[{"rt":10243,"stimulus":"Welcome to the experiment. Press any key to begin.","response":"d","trial_type":"html-keyboard-response","trial_index":0,"plugin_version":"2.1.0","time_elapsed":10245},{"rt":72775,"stimulus":"\n        <div class=\"instructions-container\">\n          <h2>Instructions</h2>\n\n          <p>\n          In this experiment, you will see <strong>two Random Dot Kinematograms (RDKs)</strong> displayed simultaneously.\n          </p>\n\n          <p>\n          An RDK is a visual stimulus consisting of many small dots that move coherently in a single direction. \n          In this experiment, the dots will be either <strong>white</strong> or <strong>black</strong> \n          (see the short demo below for an example of an RDK stimulus).\n          </p>\n\n          <p>\n          On each trial, the two RDKs will move in different directions. \n          Your task is to decide <strong>which RDK appears to contain more dots</strong>.\n          </p>\n\n          <p>\n          The RDK that you judge to have more dots is called the <strong>target RDK</strong>. \n          For example, if the white RDK appears to have more dots than the black RDK, \n          you should report the motion direction of the white RDK.\n          </p>\n\n          <p>\n          After viewing the RDKs, you will rotate a bar to indicate the perceived direction of the target RDK \n          using the <strong>left</strong> and <strong>right arrow keys</strong>. \n          Press <strong>Enter</strong> when you are satisfied with your response.\n          </p>\n\n          <p>\n          You will receive points based on the <strong>accuracy of your response</strong>, \n          and your final <strong>bonus reward</strong> may depend on your overall performance. \n          Please try to respond as accurately as possible.\n          </p>\n\n          <p>\n          You will first complete <strong>16 practice trials</strong>. \n          Press the <strong>Enter</strong> key to start the practice phase.\n          </p>\n\n          <canvas id=\"instruction-demo-rdk\" width=\"200\" height=\"200\"style=\"display:block;margin:12px auto; border-radius: 50%;\"></canvas>\n        </div>\n      ","response":"Enter","trial_type":"html-keyboard-response","trial_index":1,"plugin_version":"2.1.0","time_elapsed":83021},{"rt":null,"stimulus":"<div class=\"fixation\" style=\"font-size: 60px;\">+</div>","response":null,"trial_type":"html-keyboard-response","trial_index":2,"plugin_version":"2.1.0","time_elapsed":84024},{"target_group":"white","target_index":0,"condition_label":"practice","rt":-1,"response":"","correct":false,"choices":"ALL_KEYS","correct_choice":["a"],"trial_duration":2000,"flip_timestamps":[],"response_ends_trial":false,"number_of_apertures":2,"number_of_dots":[100,87],"number_of_sets":1,"coherent_direction":[351,242],"coherence":1,"opposite_coherence":0,"dot_radius":2,"dot_side_length":1,"dot_life":-1,"move_distance":1,"aperture_width":300,"aperture_height":300,"dot_color":["white","black"],"dot_shape":"circle","background_color":"#AAA","RDK_type":3,"aperture_type":2,"reinsert_type":2,"frame_rate":8.029045643153527,"frame_rate_array":[5,8,8,8,8,8,8,8,8,8,9,8,8,8,8,8,8,8,8,8,8,9,8,8,8,9,8,8,8,8,8,8,8,8,8,8,8,8,8,8,8,8,8,8,8,8,8,8,8,8,8,8,8,8,8,8,8,8,8,8,8,8,8,8,8,8,8,8,8,8,8,8,9,8,8,8,8,9,8,8,8,8,8,8,8,8,8,8,8,8,8,8,8,8,8,8,8,8,8,8,8,8,8,8,8,8,8,8,8,8,8,8,8,8,8,8,8,8,8,8,8,8,8,8,8,8,8,8,8,8,8,8,8,8,8,8,8,8,8,8,8,8,9,8,8,8,8,8,8,8,8,8,8,8,8,8,8,8,8,8,8,8,8,8,8,8,8,8,9,8,8,8,8,8,8,8,8,8,8,8,8,8,8,8,8,8,8,8,8,8,9,8,8,8,8,8,8,8,8,8,8,8,8,8,8,8,8,8,8,8,8,8,8,8,8,8,8,8,8,8,8,8,8,8,8,8,8,8,8,8,8,8,8,8,8,8,8,8,9,8,9],"number_of_frames":241,"aperture_center_x":768,"aperture_center_y":388,"fixation_cross":true,"fixation_cross_width":15,"fixation_cross_height":15,"fixation_cross_color":"#111","fixation_cross_thickness":1,"border":true,"border_thickness":2,"border_color":"transparent","canvas_width":1536,"canvas_height":776,"trial_type":"rdk","trial_index":3,"plugin_version":"2.0.0","time_elapsed":86030,"target_direction":351,"distractor_direction":242},{"rt":33098,"stimulus":"\n        <div class=\"response-container\">\n          <div class=\"response-instruction\">\n            <p>rotate the bar by using the left and right arrow keys.</p>\n            <p>when you are determined, press the Enter key.</p>\n          </div>\n          <div class=\"response-circle\">\n            <div class=\"response-fixation\"></div>\n            <div id=\"bar\" class=\"rotating-bar\"></div>\n          </div>\n        </div>\n      ","response":"Enter","trial_type":"html-keyboard-response","trial_index":4,"plugin_version":"2.1.0","time_elapsed":119129,"random_initial_angle":267,"response_angle_css":488,"response_angle_rdk":322,"angular_error_target":-29,"angular_error_distractor":80,"target_direction":351,"target_group":"white","reward_points":4},{"rt":null,"stimulus":"\n          <p style=\"color: #00FF00;\">Your reward: 4 points</p>\n        ","response":null,"trial_type":"html-keyboard-response","trial_index":5,"plugin_version":"2.1.0","time_elapsed":121144},{"rt":null,"stimulus":"<div class=\"fixation\" style=\"font-size: 60px;\">+</div>","response":null,"trial_type":"html-keyboard-response","trial_index":6,"plugin_version":"2.1.0","time_elapsed":122160},{"target_group":"black","target_index":1,"condition_label":"practice","rt":-1,"response":"","correct":false,"choices":"ALL_KEYS","correct_choice":["a"],"trial_duration":2000,"flip_timestamps":[],"response_ends_trial":false,"number_of_apertures":2,"number_of_dots":[98,100],"number_of_sets":1,"coherent_direction":[339,122],"coherence":1,"opposite_coherence":0,"dot_radius":2,"dot_side_length":1,"dot_life":-1,"move_distance":1,"aperture_width":300,"aperture_height":300,"dot_color":["white","black"],"dot_shape":"circle","background_color":"#AAA","RDK_type":3,"aperture_type":2,"reinsert_type":2,"frame_rate":8.164556962025317,"frame_rate_array":[37,8,8,9,8,8,8,8,8,8,8,8,8,8,8,8,8,8,8,8,8,9,8,8,8,8,8,8,8,8,8,8,8,8,8,8,8,8,8,8,8,8,8,8,8,9,8,8,8,8,8,8,8,8,8,8,8,8,8,8,8,9,8,8,8,8,8,8,9,8,8,8,8,8,8,8,8,8,8,8,8,8,8,8,8,8,8,8,8,8,8,8,8,8,8,8,8,8,9,8,8,8,8,8,9,8,8,8,8,8,8,8,8,8,8,8,8,8,8,8,8,8,8,8,8,8,8,8,8,8,9,8,8,8,8,8,8,8,8,8,8,8,8,8,8,8,8,8,8,8,8,8,8,8,8,8,8,8,8,8,8,8,8,8,8,8,8,8,8,8,8,8,8,8,8,9,8,8,8,8,8,8,8,8,8,8,8,8,8,8,8,8,8,8,8,8,8,8,8,8,8,8,8,8,8,9,8,8,8,8,8,8,8,8,8,8,8,8,8,8,8,8,8,8,8,8,8,8,8,8,8,8,8,8,8,8,8],"number_of_frames":237,"aperture_center_x":768,"aperture_center_y":388,"fixation_cross":true,"fixation_cross_width":15,"fixation_cross_height":15,"fixation_cross_color":"#111","fixation_cross_thickness":1,"border":true,"border_thickness":2,"border_color":"transparent","canvas_width":1536,"canvas_height":776,"trial_type":"rdk","trial_index":7,"plugin_version":"2.0.0","time_elapsed":124163,"target_direction":122,"distractor_direction":339},{"rt":2117,"stimulus":"\n        <div class=\"response-container\">\n          <div class=\"response-instruction\">\n            <p>rotate the bar by using the left and right arrow keys.</p>\n            <p>when you are determined, press the Enter key.</p>\n          </div>\n          <div class=\"response-circle\">\n            <div class=\"response-fixation\"></div>\n            <div id=\"bar\" class=\"rotating-bar\"></div>\n          </div>\n        </div>\n      ","response":"Enter","trial_type":"html-keyboard-response","trial_index":8,"plugin_version":"2.1.0","time_elapsed":126280,"random_initial_angle":269,"response_angle_css":283,"response_angle_rdk":167,"angular_error_target":45,"angular_error_distractor":-172,"target_direction":122,"target_group":"black","reward_points":0},{"rt":null,"stimulus":"\n          <p style=\"color: #FF3333;\">Your reward: 0 points</p>\n        ","response":null,"trial_type":"html-keyboard-response","trial_index":9,"plugin_version":"2.1.0","time_elapsed":128284},{"rt":null,"stimulus":"<div class=\"fixation\" style=\"font-size: 60px;\">+</div>","response":null,"trial_type":"html-keyboard-response","trial_index":10,"plugin_version":"2.1.0","time_elapsed":129301},{"target_group":"black","target_index":1,"condition_label":"practice","rt":335,"response":"ArrowRight","correct":false,"choices":"ALL_KEYS","correct_choice":["a"],"trial_duration":2000,"flip_timestamps":[],"response_ends_trial":false,"number_of_apertures":2,"number_of_dots":[61,100],"number_of_sets":1,"coherent_direction":[97,261],"coherence":1,"opposite_coherence":0,"dot_radius":2,"dot_side_length":1,"dot_life":-1,"move_distance":1,"aperture_width":300,"aperture_height":300,"dot_color":["white","black"],"dot_shape":"circle","background_color":"#AAA","RDK_type":3,"aperture_type":2,"reinsert_type":2,"frame_rate":8.185654008438819,"frame_rate_array":[41,8,8,8,8,8,8,8,8,8,8,8,8,8,8,8,8,9,8,8,8,8,8,9,8,8,8,8,8,8,8,8,8,8,8,8,9,8,8,8,8,8,8,8,8,8,8,8,8,8,8,8,8,8,8,8,8,8,8,8,8,8,8,8,8,8,8,8,8,8,8,8,9,8,8,8,8,8,8,8,8,8,8,8,8,8,8,8,8,8,8,8,8,8,8,8,8,8,9,8,8,8,8,8,8,8,8,8,8,8,8,9,8,8,8,8,8,8,8,8,8,8,8,8,8,8,8,8,8,8,8,8,8,8,8,8,8,8,8,9,8,8,8,8,8,8,8,8,8,8,8,8,8,8,8,8,8,9,8,8,8,8,8,8,8,8,8,8,8,8,8,8,8,8,8,8,9,8,8,8,8,9,8,8,8,8,8,8,8,8,8,8,8,8,8,8,8,8,8,8,8,8,8,8,8,8,8,8,8,8,8,8,8,8,8,8,8,8,8,8,8,8,8,8,8,9,8,8,8,8,8,8,8,8,8,8,8],"number_of_frames":237,"aperture_center_x":768,"aperture_center_y":388,"fixation_cross":true,"fixation_cross_width":15,"fixation_cross_height":15,"fixation_cross_color":"#111","fixation_cross_thickness":1,"border":true,"border_thickness":2,"border_color":"transparent","canvas_width":1536,"canvas_height":776,"trial_type":"rdk","trial_index":11,"plugin_version":"2.0.0","time_elapsed":131308,"target_direction":261,"distractor_direction":97},{"rt":1138,"stimulus":"\n        <div class=\"response-container\">\n          <div class=\"response-instruction\">\n            <p>rotate the bar by using the left and right arrow keys.</p>\n            <p>when you are determined, press the Enter key.</p>\n          </div>\n          <div class=\"response-circle\">\n            <div class=\"response-fixation\"></div>\n            <div id=\"bar\" class=\"rotating-bar\"></div>\n          </div>\n        </div>\n      ","response":"Enter","trial_type":"html-keyboard-response","trial_index":12,"plugin_version":"2.1.0","time_elapsed":132446,"random_initial_angle":296,"response_angle_css":296,"response_angle_rdk":154,"angular_error_target":-107,"angular_error_distractor":57,"target_direction":261,"target_group":"black","reward_points":0},{"rt":null,"stimulus":"\n          <p style=\"color: #FF3333;\">Your reward: 0 points</p>\n        ","response":null,"trial_type":"html-keyboard-response","trial_index":13,"plugin_version":"2.1.0","time_elapsed":134456},{"rt":null,"stimulus":"<div class=\"fixation\" style=\"font-size: 60px;\">+</div>","response":null,"trial_type":"html-keyboard-response","trial_index":14,"plugin_version":"2.1.0","time_elapsed":135472},{"target_group":"white","target_index":0,"condition_label":"practice","rt":-1,"response":"","correct":false,"choices":"ALL_KEYS","correct_choice":["a"],"trial_duration":2000,"flip_timestamps":[],"response_ends_trial":false,"number_of_apertures":2,"number_of_dots":[100,51],"number_of_sets":1,"coherent_direction":[165,345],"coherence":1,"opposite_coherence":0,"dot_radius":2,"dot_side_length":1,"dot_life":-1,"move_distance":1,"aperture_width":300,"aperture_height":300,"dot_color":["white","black"],"dot_shape":"circle","background_color":"#AAA","RDK_type":3,"aperture_type":2,"reinsert_type":2,"frame_rate":8.058091286307054,"frame_rate_array":[1,8,8,8,8,8,9,8,9,8,8,8,8,8,8,9,8,8,8,8,8,8,8,8,8,8,8,8,8,8,8,8,8,8,8,8,8,8,8,8,14,3,9,8,8,8,8,8,8,8,8,8,8,8,8,8,8,8,8,8,8,8,8,8,8,8,8,8,8,8,8,8,8,8,8,8,8,8,8,9,8,8,8,8,8,8,8,8,8,8,8,8,9,8,8,8,8,8,8,8,8,8,8,8,8,8,8,8,8,8,8,8,8,8,8,8,8,8,8,8,8,9,8,8,8,9,8,8,8,8,9,8,8,8,8,8,8,8,8,8,8,8,8,8,8,8,8,8,8,8,8,8,8,8,8,8,8,8,8,8,8,9,8,8,8,8,8,8,8,8,8,8,9,8,9,8,8,8,8,8,8,8,8,8,8,8,8,9,8,8,8,8,9,8,8,8,8,8,8,8,8,8,8,8,8,9,8,10,6,8,8,9,8,8,9,8,8,8,8,8,9,8,8,8,8,8,8,8,9,8,8,8,8,8,9,8,8,8,8,8,8],"number_of_frames":241,"aperture_center_x":768,"aperture_center_y":388,"fixation_cross":true,"fixation_cross_width":15,"fixation_cross_height":15,"fixation_cross_color":"#111","fixation_cross_thickness":1,"border":true,"border_thickness":2,"border_color":"transparent","canvas_width":1536,"canvas_height":776,"trial_type":"rdk","trial_index":15,"plugin_version":"2.0.0","time_elapsed":137480,"target_direction":165,"distractor_direction":345},{"rt":6602,"stimulus":"\n        <div class=\"response-container\">\n          <div class=\"response-instruction\">\n            <p>rotate the bar by using the left and right arrow keys.</p>\n            <p>when you are determined, press the Enter key.</p>\n          </div>\n          <div class=\"response-circle\">\n            <div class=\"response-fixation\"></div>\n            <div id=\"bar\" class=\"rotating-bar\"></div>\n          </div>\n        </div>\n      ","response":"Enter","trial_type":"html-keyboard-response","trial_index":16,"plugin_version":"2.1.0","time_elapsed":144082,"random_initial_angle":209,"response_angle_css":255,"response_angle_rdk":195,"angular_error_target":30,"angular_error_distractor":-150,"target_direction":165,"target_group":"white","reward_points":4},{"rt":null,"stimulus":"\n          <p style=\"color: #00FF00;\">Your reward: 4 points</p>\n        ","response":null,"trial_type":"html-keyboard-response","trial_index":17,"plugin_version":"2.1.0","time_elapsed":146097},{"rt":null,"stimulus":"<div class=\"fixation\" style=\"font-size: 60px;\">+</div>","response":null,"trial_type":"html-keyboard-response","trial_index":18,"plugin_version":"2.1.0","time_elapsed":147113},{"target_group":"white","target_index":0,"condition_label":"practice","rt":-1,"response":"","correct":false,"choices":"ALL_KEYS","correct_choice":["a"],"trial_duration":2000,"flip_timestamps":[],"response_ends_trial":false,"number_of_apertures":2,"number_of_dots":[100,69],"number_of_sets":1,"coherent_direction":[266,91],"coherence":1,"opposite_coherence":0,"dot_radius":2,"dot_side_length":1,"dot_life":-1,"move_distance":1,"aperture_width":300,"aperture_height":300,"dot_color":["white","black"],"dot_shape":"circle","background_color":"#AAA","RDK_type":3,"aperture_type":2,"reinsert_type":2,"frame_rate":8.168776371308017,"frame_rate_array":[40,8,8,8,8,8,8,8,8,8,9,8,8,8,8,8,9,8,8,8,9,8,8,8,8,8,8,8,8,8,8,8,8,8,8,8,8,9,8,8,8,8,8,8,8,8,8,8,8,8,9,8,8,8,8,8,8,8,8,8,8,8,8,8,8,8,8,8,8,8,8,8,8,8,8,8,8,8,8,8,8,8,8,8,8,8,8,8,8,8,8,8,8,8,8,8,8,8,8,8,8,8,8,8,8,8,8,8,8,8,8,8,8,8,8,8,9,8,8,8,8,8,8,8,8,8,8,8,8,8,8,8,8,8,8,9,8,8,8,8,8,8,8,8,8,8,8,8,8,8,8,8,8,8,8,8,8,8,8,8,8,8,8,8,8,8,8,8,8,8,8,8,8,8,8,8,8,8,8,8,8,8,8,8,8,8,8,8,8,8,8,8,8,8,8,8,8,8,8,8,8,8,8,8,8,8,8,8,8,8,8,8,8,8,8,9,8,8,8,8,8,8,8,8,8,8,8,8,8,8,8,8,8,8,8,8,8],"number_of_frames":237,"aperture_center_x":768,"aperture_center_y":388,"fixation_cross":true,"fixation_cross_width":15,"fixation_cross_height":15,"fixation_cross_color":"#111","fixation_cross_thickness":1,"border":true,"border_thickness":2,"border_color":"transparent","canvas_width":1536,"canvas_height":776,"trial_type":"rdk","trial_index":19,"plugin_version":"2.0.0","time_elapsed":149118,"target_direction":266,"distractor_direction":91},{"rt":3946,"stimulus":"\n        <div class=\"response-container\">\n          <div class=\"response-instruction\">\n            <p>rotate the bar by using the left and right arrow keys.</p>\n            <p>when you are determined, press the Enter key.</p>\n          </div>\n          <div class=\"response-circle\">\n            <div class=\"response-fixation\"></div>\n            <div id=\"bar\" class=\"rotating-bar\"></div>\n          </div>\n        </div>\n      ","response":"Enter","trial_type":"html-keyboard-response","trial_index":20,"plugin_version":"2.1.0","time_elapsed":153064,"random_initial_angle":80,"response_angle_css":178,"response_angle_rdk":272,"angular_error_target":6,"angular_error_distractor":-179,"target_direction":266,"target_group":"white","reward_points":8},{"rt":null,"stimulus":"\n          <p style=\"color: #00FF00;\">Your reward: 8 points</p>\n        ","response":null,"trial_type":"html-keyboard-response","trial_index":21,"plugin_version":"2.1.0","time_elapsed":155066},{"rt":null,"stimulus":"<div class=\"fixation\" style=\"font-size: 60px;\">+</div>","response":null,"trial_type":"html-keyboard-response","trial_index":22,"plugin_version":"2.1.0","time_elapsed":156091},{"target_group":"white","target_index":0,"condition_label":"practice","rt":-1,"response":"","correct":false,"choices":"ALL_KEYS","correct_choice":["a"],"trial_duration":2000,"flip_timestamps":[],"response_ends_trial":false,"number_of_apertures":2,"number_of_dots":[100,61],"number_of_sets":1,"coherent_direction":[92,206],"coherence":1,"opposite_coherence":0,"dot_radius":2,"dot_side_length":1,"dot_life":-1,"move_distance":1,"aperture_width":300,"aperture_height":300,"dot_color":["white","black"],"dot_shape":"circle","background_color":"#AAA","RDK_type":3,"aperture_type":2,"reinsert_type":2,"frame_rate":8.164556962025317,"frame_rate_array":[36,8,8,8,8,8,8,8,8,8,8,8,8,8,8,8,8,8,8,8,8,8,8,8,9,8,8,8,8,8,8,8,8,8,8,8,8,8,8,8,8,8,8,8,8,8,8,9,8,8,9,8,8,8,8,8,8,8,8,8,8,8,8,8,8,8,8,8,8,8,8,8,8,8,9,8,8,8,8,8,8,8,8,8,8,8,8,8,8,8,8,8,8,8,8,8,8,8,8,8,8,8,8,9,8,8,8,8,8,8,8,8,8,8,8,8,8,8,8,8,8,8,8,8,8,8,8,8,8,8,8,8,8,8,8,8,8,8,8,8,8,8,8,8,8,8,8,8,8,8,8,8,8,9,8,8,8,8,8,8,8,8,8,8,8,8,8,8,8,8,8,8,8,8,8,8,8,8,8,8,9,8,8,8,8,8,8,8,8,8,8,8,8,8,9,8,8,8,8,8,8,8,8,8,8,8,8,8,8,8,8,8,9,8,8,8,9,8,8,9,8,8,8,8,8,8,8,8,8,8,8,8,8,8,8,8,8],"number_of_frames":237,"aperture_center_x":768,"aperture_center_y":388,"fixation_cross":true,"fixation_cross_width":15,"fixation_cross_height":15,"fixation_cross_color":"#111","fixation_cross_thickness":1,"border":true,"border_thickness":2,"border_color":"transparent","canvas_width":1536,"canvas_height":776,"trial_type":"rdk","trial_index":23,"plugin_version":"2.0.0","time_elapsed":158094,"target_direction":92,"distractor_direction":206},{"rt":3441,"stimulus":"\n        <div class=\"response-container\">\n          <div class=\"response-instruction\">\n            <p>rotate the bar by using the left and right arrow keys.</p>\n            <p>when you are determined, press the Enter key.</p>\n          </div>\n          <div class=\"response-circle\">\n            <div class=\"response-fixation\"></div>\n            <div id=\"bar\" class=\"rotating-bar\"></div>\n          </div>\n        </div>\n      ","response":"Enter","trial_type":"html-keyboard-response","trial_index":24,"plugin_version":"2.1.0","time_elapsed":161535,"random_initial_angle":30,"response_angle_css":-1,"response_angle_rdk":91,"angular_error_target":-1,"angular_error_distractor":-115,"target_direction":92,"target_group":"white","reward_points":9},{"rt":null,"stimulus":"\n          <p style=\"color: #00FF00;\">Your reward: 9 points</p>\n        ","response":null,"trial_type":"html-keyboard-response","trial_index":25,"plugin_version":"2.1.0","time_elapsed":163549},{"rt":null,"stimulus":"<div class=\"fixation\" style=\"font-size: 60px;\">+</div>","response":null,"trial_type":"html-keyboard-response","trial_index":26,"plugin_version":"2.1.0","time_elapsed":164551},{"target_group":"white","target_index":0,"condition_label":"practice","rt":-1,"response":"","correct":false,"choices":"ALL_KEYS","correct_choice":["a"],"trial_duration":2000,"flip_timestamps":[],"response_ends_trial":false,"number_of_apertures":2,"number_of_dots":[100,71],"number_of_sets":1,"coherent_direction":[79,318],"coherence":1,"opposite_coherence":0,"dot_radius":2,"dot_side_length":1,"dot_life":-1,"move_distance":1,"aperture_width":300,"aperture_height":300,"dot_color":["white","black"],"dot_shape":"circle","background_color":"#AAA","RDK_type":3,"aperture_type":2,"reinsert_type":2,"frame_rate":8.168776371308017,"frame_rate_array":[38,8,8,8,8,8,8,8,9,8,8,8,8,8,8,8,8,9,8,8,8,8,8,9,8,8,8,8,8,8,8,8,8,8,8,8,8,9,8,8,8,9,8,8,8,8,8,8,8,8,8,8,8,8,8,8,8,8,8,8,8,8,8,8,8,8,8,8,8,8,8,8,8,8,8,8,8,8,8,8,8,8,8,8,8,8,8,8,8,8,8,8,8,8,8,8,8,8,8,8,8,8,8,8,8,8,8,8,8,8,8,8,8,8,9,8,8,8,8,8,9,8,8,8,8,8,8,9,8,8,8,8,8,8,8,8,8,8,8,8,8,8,8,8,8,8,8,8,8,8,8,8,8,8,8,8,8,8,8,8,8,8,8,8,8,8,8,8,8,8,8,8,8,8,8,8,8,8,8,8,8,8,8,8,8,8,8,8,8,8,8,8,8,8,8,8,8,8,8,9,8,8,8,8,8,8,8,8,8,9,8,8,8,8,8,8,8,8,8,8,8,8,8,8,8,8,8,8,8,8,8,8,8,8,8,8,8],"number_of_frames":237,"aperture_center_x":768,"aperture_center_y":388,"fixation_cross":true,"fixation_cross_width":15,"fixation_cross_height":15,"fixation_cross_color":"#111","fixation_cross_thickness":1,"border":true,"border_thickness":2,"border_color":"transparent","canvas_width":1536,"canvas_height":776,"trial_type":"rdk","trial_index":27,"plugin_version":"2.0.0","time_elapsed":166554,"target_direction":79,"distractor_direction":318},{"rt":3087,"stimulus":"\n        <div class=\"response-container\">\n          <div class=\"response-instruction\">\n            <p>rotate the bar by using the left and right arrow keys.</p>\n            <p>when you are determined, press the Enter key.</p>\n          </div>\n          <div class=\"response-circle\">\n            <div class=\"response-fixation\"></div>\n            <div id=\"bar\" class=\"rotating-bar\"></div>\n          </div>\n        </div>\n      ","response":"Enter","trial_type":"html-keyboard-response","trial_index":28,"plugin_version":"2.1.0","time_elapsed":169641,"random_initial_angle":116,"response_angle_css":363,"response_angle_rdk":87,"angular_error_target":8,"angular_error_distractor":129,"target_direction":79,"target_group":"white","reward_points":8},{"rt":null,"stimulus":"\n          <p style=\"color: #00FF00;\">Your reward: 8 points</p>\n        ","response":null,"trial_type":"html-keyboard-response","trial_index":29,"plugin_version":"2.1.0","time_elapsed":171643},{"rt":null,"stimulus":"<div class=\"fixation\" style=\"font-size: 60px;\">+</div>","response":null,"trial_type":"html-keyboard-response","trial_index":30,"plugin_version":"2.1.0","time_elapsed":172646},{"target_group":"black","target_index":1,"condition_label":"practice","rt":-1,"response":"","correct":false,"choices":"ALL_KEYS","correct_choice":["a"],"trial_duration":2000,"flip_timestamps":[],"response_ends_trial":false,"number_of_apertures":2,"number_of_dots":[71,100],"number_of_sets":1,"coherent_direction":[277,163],"coherence":1,"opposite_coherence":0,"dot_radius":2,"dot_side_length":1,"dot_life":-1,"move_distance":1,"aperture_width":300,"aperture_height":300,"dot_color":["white","black"],"dot_shape":"circle","background_color":"#AAA","RDK_type":3,"aperture_type":2,"reinsert_type":2,"frame_rate":8.156118143459915,"frame_rate_array":[37,8,8,8,8,8,8,8,8,8,8,8,8,8,8,8,8,8,8,8,8,8,8,8,8,8,8,8,8,8,8,8,8,8,8,8,8,8,8,8,8,8,8,8,8,8,9,8,8,8,8,8,8,8,8,8,8,8,8,8,8,8,8,8,8,8,8,8,8,8,8,8,8,8,8,8,8,8,8,8,8,8,8,8,8,8,8,8,8,8,8,8,8,8,8,9,8,8,8,8,8,8,8,8,8,8,8,8,8,8,8,8,8,8,8,8,8,8,8,8,8,8,8,8,8,8,8,8,8,8,9,8,8,8,8,8,8,8,8,8,8,9,8,8,8,8,8,8,8,8,8,8,8,8,8,8,8,8,8,8,8,8,8,8,8,8,8,8,8,8,8,8,8,8,8,9,8,8,8,8,9,8,8,8,8,8,8,8,8,9,8,8,8,8,8,8,8,8,9,8,8,8,8,8,8,8,8,8,8,8,8,8,8,8,8,8,8,8,8,8,8,8,8,8,8,8,8,8,8,8,8,8,8,8,8,8,8],"number_of_frames":237,"aperture_center_x":768,"aperture_center_y":388,"fixation_cross":true,"fixation_cross_width":15,"fixation_cross_height":15,"fixation_cross_color":"#111","fixation_cross_thickness":1,"border":true,"border_thickness":2,"border_color":"transparent","canvas_width":1536,"canvas_height":776,"trial_type":"rdk","trial_index":31,"plugin_version":"2.0.0","time_elapsed":174648,"target_direction":163,"distractor_direction":277},{"rt":1175,"stimulus":"\n        <div class=\"response-container\">\n          <div class=\"response-instruction\">\n            <p>rotate the bar by using the left and right arrow keys.</p>\n            <p>when you are determined, press the Enter key.</p>\n          </div>\n          <div class=\"response-circle\">\n            <div class=\"response-fixation\"></div>\n            <div id=\"bar\" class=\"rotating-bar\"></div>\n          </div>\n        </div>\n      ","response":"Enter","trial_type":"html-keyboard-response","trial_index":32,"plugin_version":"2.1.0","time_elapsed":175823,"random_initial_angle":105,"response_angle_css":186,"response_angle_rdk":264,"angular_error_target":101,"angular_error_distractor":-13,"target_direction":163,"target_group":"black","reward_points":0},{"rt":null,"stimulus":"\n          <p style=\"color: #FF3333;\">Your reward: 0 points</p>\n        ","response":null,"trial_type":"html-keyboard-response","trial_index":33,"plugin_version":"2.1.0","time_elapsed":177831},{"rt":null,"stimulus":"<div class=\"fixation\" style=\"font-size: 60px;\">+</div>","response":null,"trial_type":"html-keyboard-response","trial_index":34,"plugin_version":"2.1.0","time_elapsed":178847},{"target_group":"black","target_index":1,"condition_label":"practice","rt":-1,"response":"","correct":false,"choices":"ALL_KEYS","correct_choice":["a"],"trial_duration":2000,"flip_timestamps":[],"response_ends_trial":false,"number_of_apertures":2,"number_of_dots":[85,100],"number_of_sets":1,"coherent_direction":[241,353],"coherence":1,"opposite_coherence":0,"dot_radius":2,"dot_side_length":1,"dot_life":-1,"move_distance":1,"aperture_width":300,"aperture_height":300,"dot_color":["white","black"],"dot_shape":"circle","background_color":"#AAA","RDK_type":3,"aperture_type":2,"reinsert_type":2,"frame_rate":8.168776371308017,"frame_rate_array":[40,8,8,8,8,8,8,8,8,8,8,8,8,8,8,9,8,8,8,8,8,8,8,8,9,8,8,8,8,8,8,8,8,8,8,8,8,8,8,8,8,8,8,8,8,8,8,8,8,8,8,8,8,8,8,8,8,8,8,8,8,8,8,8,8,8,8,8,8,8,8,8,8,8,8,8,8,8,8,8,8,8,8,8,8,8,8,8,8,8,9,8,8,8,8,8,8,8,8,8,8,8,8,8,8,8,9,8,8,8,8,8,8,8,8,8,8,8,8,8,8,8,8,8,8,8,8,8,8,8,8,8,8,8,8,8,8,8,8,8,8,8,8,8,8,8,8,8,8,8,8,8,8,8,8,8,8,8,8,8,8,8,8,8,8,8,8,8,8,8,8,8,8,8,8,8,8,8,9,8,8,8,8,8,8,8,8,8,8,9,8,8,8,8,8,8,8,8,8,8,8,9,8,8,8,8,8,8,8,8,8,8,8,8,8,8,8,8,8,8,8,8,8,8,8,8,8,8,8,8,8,8,8,8,8,9,8],"number_of_frames":237,"aperture_center_x":768,"aperture_center_y":388,"fixation_cross":true,"fixation_cross_width":15,"fixation_cross_height":15,"fixation_cross_color":"#111","fixation_cross_thickness":1,"border":true,"border_thickness":2,"border_color":"transparent","canvas_width":1536,"canvas_height":776,"trial_type":"rdk","trial_index":35,"plugin_version":"2.0.0","time_elapsed":180853,"target_direction":353,"distractor_direction":241},{"rt":1479,"stimulus":"\n        <div class=\"response-container\">\n          <div class=\"response-instruction\">\n            <p>rotate the bar by using the left and right arrow keys.</p>\n            <p>when you are determined, press the Enter key.</p>\n          </div>\n          <div class=\"response-circle\">\n            <div class=\"response-fixation\"></div>\n            <div id=\"bar\" class=\"rotating-bar\"></div>\n          </div>\n        </div>\n      ","response":"Enter","trial_type":"html-keyboard-response","trial_index":36,"plugin_version":"2.1.0","time_elapsed":182333,"random_initial_angle":240,"response_angle_css":218,"response_angle_rdk":232,"angular_error_target":-121,"angular_error_distractor":-9,"target_direction":353,"target_group":"black","reward_points":0},{"rt":null,"stimulus":"\n          <p style=\"color: #FF3333;\">Your reward: 0 points</p>\n        ","response":null,"trial_type":"html-keyboard-response","trial_index":37,"plugin_version":"2.1.0","time_elapsed":184346},{"rt":null,"stimulus":"<div class=\"fixation\" style=\"font-size: 60px;\">+</div>","response":null,"trial_type":"html-keyboard-response","trial_index":38,"plugin_version":"2.1.0","time_elapsed":185362},{"target_group":"black","target_index":1,"condition_label":"practice","rt":-1,"response":"","correct":false,"choices":"ALL_KEYS","correct_choice":["a"],"trial_duration":2000,"flip_timestamps":[],"response_ends_trial":false,"number_of_apertures":2,"number_of_dots":[53,100],"number_of_sets":1,"coherent_direction":[159,280],"coherence":1,"opposite_coherence":0,"dot_radius":2,"dot_side_length":1,"dot_life":-1,"move_distance":1,"aperture_width":300,"aperture_height":300,"dot_color":["white","black"],"dot_shape":"circle","background_color":"#AAA","RDK_type":3,"aperture_type":2,"reinsert_type":2,"frame_rate":8.172995780590718,"frame_rate_array":[41,7,9,8,8,8,8,8,8,9,8,8,8,8,8,9,8,8,8,8,8,8,8,8,8,8,8,8,8,8,8,8,9,8,8,8,8,8,8,8,8,8,8,8,8,8,8,8,8,8,8,8,8,8,8,8,8,8,8,8,8,8,8,8,8,8,8,8,9,8,8,8,8,8,8,8,8,8,8,8,8,8,8,8,8,8,8,8,8,8,8,9,8,8,8,8,8,8,8,8,8,9,8,8,8,8,8,8,8,8,8,8,8,8,8,8,8,8,8,8,8,8,8,8,8,8,8,8,8,8,8,8,8,8,8,8,8,8,8,8,8,8,8,8,8,8,8,8,8,8,8,8,8,8,8,8,8,8,8,8,8,8,8,8,8,8,8,8,8,8,8,8,8,8,8,8,8,8,8,8,8,8,8,8,8,8,8,8,8,8,8,9,8,8,8,8,8,8,8,8,8,8,8,8,8,8,8,8,8,8,8,8,8,8,8,8,8,8,8,8,8,8,8,8,8,8,8,9,8,8,8,8,8,8,8,8,8],"number_of_frames":237,"aperture_center_x":768,"aperture_center_y":388,"fixation_cross":true,"fixation_cross_width":15,"fixation_cross_height":15,"fixation_cross_color":"#111","fixation_cross_thickness":1,"border":true,"border_thickness":2,"border_color":"transparent","canvas_width":1536,"canvas_height":776,"trial_type":"rdk","trial_index":39,"plugin_version":"2.0.0","time_elapsed":187369,"target_direction":280,"distractor_direction":159},{"rt":2883,"stimulus":"\n        <div class=\"response-container\">\n          <div class=\"response-instruction\">\n            <p>rotate the bar by using the left and right arrow keys.</p>\n            <p>when you are determined, press the Enter key.</p>\n          </div>\n          <div class=\"response-circle\">\n            <div class=\"response-fixation\"></div>\n            <div id=\"bar\" class=\"rotating-bar\"></div>\n          </div>\n        </div>\n      ","response":"Enter","trial_type":"html-keyboard-response","trial_index":40,"plugin_version":"2.1.0","time_elapsed":190253,"random_initial_angle":81,"response_angle_css":-185,"response_angle_rdk":275,"angular_error_target":-5,"angular_error_distractor":116,"target_direction":280,"target_group":"black","reward_points":9},{"rt":null,"stimulus":"\n          <p style=\"color: #00FF00;\">Your reward: 9 points</p>\n        ","response":null,"trial_type":"html-keyboard-response","trial_index":41,"plugin_version":"2.1.0","time_elapsed":192253},{"rt":null,"stimulus":"<div class=\"fixation\" style=\"font-size: 60px;\">+</div>","response":null,"trial_type":"html-keyboard-response","trial_index":42,"plugin_version":"2.1.0","time_elapsed":193270},{"target_group":"white","target_index":0,"condition_label":"practice","rt":-1,"response":"","correct":false,"choices":"ALL_KEYS","correct_choice":["a"],"trial_duration":2000,"flip_timestamps":[],"response_ends_trial":false,"number_of_apertures":2,"number_of_dots":[100,72],"number_of_sets":1,"coherent_direction":[50,218],"coherence":1,"opposite_coherence":0,"dot_radius":2,"dot_side_length":1,"dot_life":-1,"move_distance":1,"aperture_width":300,"aperture_height":300,"dot_color":["white","black"],"dot_shape":"circle","background_color":"#AAA","RDK_type":3,"aperture_type":2,"reinsert_type":2,"frame_rate":8.138655462184873,"frame_rate_array":[34,8,8,8,8,8,8,8,8,8,8,8,8,9,8,8,8,8,8,8,8,8,8,8,8,8,8,8,8,8,8,8,8,8,8,8,8,8,8,8,8,8,8,8,8,8,8,8,8,8,8,8,8,8,8,8,8,8,8,8,8,8,8,8,8,8,8,8,8,8,8,8,8,8,8,8,8,8,9,8,8,8,8,8,8,8,8,8,8,8,8,8,8,8,8,8,8,8,8,8,8,8,8,8,8,8,8,8,8,8,8,8,8,8,8,8,8,8,8,8,8,8,8,8,8,8,8,8,8,8,8,8,8,8,8,8,8,8,8,8,8,8,8,9,8,8,8,8,8,8,8,8,8,8,8,8,8,8,8,8,8,8,8,8,8,8,8,8,8,8,8,8,8,8,9,8,8,8,8,9,8,8,8,8,8,8,8,8,8,8,8,9,8,8,8,8,8,9,8,8,8,8,8,8,8,8,8,8,8,8,8,8,8,8,8,8,8,8,8,8,8,8,8,8,8,8,8,8,8,8,8,8,8,8,8,8,8,8],"number_of_frames":238,"aperture_center_x":768,"aperture_center_y":388,"fixation_cross":true,"fixation_cross_width":15,"fixation_cross_height":15,"fixation_cross_color":"#111","fixation_cross_thickness":1,"border":true,"border_thickness":2,"border_color":"transparent","canvas_width":1536,"canvas_height":776,"trial_type":"rdk","trial_index":43,"plugin_version":"2.0.0","time_elapsed":195278,"target_direction":50,"distractor_direction":218},{"rt":1392,"stimulus":"\n        <div class=\"response-container\">\n          <div class=\"response-instruction\">\n            <p>rotate the bar by using the left and right arrow keys.</p>\n            <p>when you are determined, press the Enter key.</p>\n          </div>\n          <div class=\"response-circle\">\n            <div class=\"response-fixation\"></div>\n            <div id=\"bar\" class=\"rotating-bar\"></div>\n          </div>\n        </div>\n      ","response":"Enter","trial_type":"html-keyboard-response","trial_index":44,"plugin_version":"2.1.0","time_elapsed":196671,"random_initial_angle":15,"response_angle_css":40,"response_angle_rdk":50,"angular_error_target":0,"angular_error_distractor":-168,"target_direction":50,"target_group":"white","reward_points":10},{"rt":null,"stimulus":"\n          <p style=\"color: #00FF00;\">Your reward: 10 points</p>\n        ","response":null,"trial_type":"html-keyboard-response","trial_index":45,"plugin_version":"2.1.0","time_elapsed":198675},{"rt":null,"stimulus":"<div class=\"fixation\" style=\"font-size: 60px;\">+</div>","response":null,"trial_type":"html-keyboard-response","trial_index":46,"plugin_version":"2.1.0","time_elapsed":199691},{"target_group":"white","target_index":0,"condition_label":"practice","rt":-1,"response":"","correct":false,"choices":"ALL_KEYS","correct_choice":["a"],"trial_duration":2000,"flip_timestamps":[],"response_ends_trial":false,"number_of_apertures":2,"number_of_dots":[100,94],"number_of_sets":1,"coherent_direction":[158,1],"coherence":1,"opposite_coherence":0,"dot_radius":2,"dot_side_length":1,"dot_life":-1,"move_distance":1,"aperture_width":300,"aperture_height":300,"dot_color":["white","black"],"dot_shape":"circle","background_color":"#AAA","RDK_type":3,"aperture_type":2,"reinsert_type":2,"frame_rate":8.142857142857142,"frame_rate_array":[35,8,8,8,8,8,8,8,8,8,8,8,8,9,8,8,8,8,8,8,8,8,8,8,8,8,8,8,8,8,8,8,8,8,8,8,8,8,8,8,8,8,8,8,8,8,8,8,8,9,8,8,8,8,8,8,8,8,8,8,8,8,8,8,8,8,8,8,8,8,8,8,8,8,8,8,8,8,8,8,8,8,8,8,8,8,8,8,8,8,8,8,8,8,8,8,8,8,8,8,8,8,8,8,8,8,8,8,8,8,8,8,8,8,8,8,8,8,8,9,8,8,8,8,9,8,8,8,8,8,8,8,8,8,8,8,9,8,8,8,9,8,8,8,8,8,8,8,8,8,8,8,8,8,8,8,8,8,8,8,8,8,8,8,8,8,8,8,8,8,8,8,8,8,8,8,8,8,8,8,8,8,8,8,8,8,8,8,8,8,8,8,8,8,8,9,8,8,8,8,8,8,8,8,8,8,8,8,8,8,8,8,8,8,8,8,8,8,8,8,8,8,8,8,8,8,8,8,8,8,8,8,8,8,8,8,8,8],"number_of_frames":238,"aperture_center_x":768,"aperture_center_y":388,"fixation_cross":true,"fixation_cross_width":15,"fixation_cross_height":15,"fixation_cross_color":"#111","fixation_cross_thickness":1,"border":true,"border_thickness":2,"border_color":"transparent","canvas_width":1536,"canvas_height":776,"trial_type":"rdk","trial_index":47,"plugin_version":"2.0.0","time_elapsed":201700,"target_direction":158,"distractor_direction":1},{"rt":2448,"stimulus":"\n        <div class=\"response-container\">\n          <div class=\"response-instruction\">\n            <p>rotate the bar by using the left and right arrow keys.</p>\n            <p>when you are determined, press the Enter key.</p>\n          </div>\n          <div class=\"response-circle\">\n            <div class=\"response-fixation\"></div>\n            <div id=\"bar\" class=\"rotating-bar\"></div>\n          </div>\n        </div>\n      ","response":"Enter","trial_type":"html-keyboard-response","trial_index":48,"plugin_version":"2.1.0","time_elapsed":204149,"random_initial_angle":276,"response_angle_css":303,"response_angle_rdk":147,"angular_error_target":-11,"angular_error_distractor":146,"target_direction":158,"target_group":"white","reward_points":7},{"rt":null,"stimulus":"\n          <p style=\"color: #00FF00;\">Your reward: 7 points</p>\n        ","response":null,"trial_type":"html-keyboard-response","trial_index":49,"plugin_version":"2.1.0","time_elapsed":206159},{"rt":null,"stimulus":"<div class=\"fixation\" style=\"font-size: 60px;\">+</div>","response":null,"trial_type":"html-keyboard-response","trial_index":50,"plugin_version":"2.1.0","time_elapsed":207175},{"target_group":"black","target_index":1,"condition_label":"practice","rt":-1,"response":"","correct":false,"choices":"ALL_KEYS","correct_choice":["a"],"trial_duration":2000,"flip_timestamps":[],"response_ends_trial":false,"number_of_apertures":2,"number_of_dots":[94,100],"number_of_sets":1,"coherent_direction":[165,323],"coherence":1,"opposite_coherence":0,"dot_radius":2,"dot_side_length":1,"dot_life":-1,"move_distance":1,"aperture_width":300,"aperture_height":300,"dot_color":["white","black"],"dot_shape":"circle","background_color":"#AAA","RDK_type":3,"aperture_type":2,"reinsert_type":2,"frame_rate":8.181434599156118,"frame_rate_array":[38,8,8,8,8,8,8,8,8,8,8,8,8,8,8,8,8,8,8,8,8,8,8,8,8,8,8,8,8,8,8,8,8,8,8,8,9,8,8,8,8,9,8,8,8,8,8,8,8,8,8,8,8,8,8,9,8,8,8,8,8,8,8,8,8,8,8,8,8,8,8,8,8,8,9,8,8,8,8,8,8,8,8,9,8,8,8,8,8,8,8,8,8,8,8,8,8,8,8,8,8,8,8,8,8,8,8,8,8,8,8,8,8,9,8,8,8,8,8,8,8,8,8,9,8,8,8,8,9,8,8,8,8,9,8,8,8,8,8,8,8,8,8,8,8,8,8,8,8,8,8,8,8,8,8,8,8,8,8,8,8,8,8,8,8,8,8,8,8,8,8,8,8,8,8,8,8,8,8,8,8,8,8,8,8,8,8,8,8,8,8,8,8,8,8,8,9,8,8,8,8,8,8,8,8,9,8,8,8,8,8,9,8,9,8,8,8,8,8,8,8,8,8,8,8,8,8,8,8,8,8,8,8,8,8,8,8],"number_of_frames":237,"aperture_center_x":768,"aperture_center_y":388,"fixation_cross":true,"fixation_cross_width":15,"fixation_cross_height":15,"fixation_cross_color":"#111","fixation_cross_thickness":1,"border":true,"border_thickness":2,"border_color":"transparent","canvas_width":1536,"canvas_height":776,"trial_type":"rdk","trial_index":51,"plugin_version":"2.0.0","time_elapsed":209178,"target_direction":323,"distractor_direction":165},{"rt":1105,"stimulus":"\n        <div class=\"response-container\">\n          <div class=\"response-instruction\">\n            <p>rotate the bar by using the left and right arrow keys.</p>\n            <p>when you are determined, press the Enter key.</p>\n          </div>\n          <div class=\"response-circle\">\n            <div class=\"response-fixation\"></div>\n            <div id=\"bar\" class=\"rotating-bar\"></div>\n          </div>\n        </div>\n      ","response":"Enter","trial_type":"html-keyboard-response","trial_index":52,"plugin_version":"2.1.0","time_elapsed":210283,"random_initial_angle":272,"response_angle_css":272,"response_angle_rdk":178,"angular_error_target":-145,"angular_error_distractor":13,"target_direction":323,"target_group":"black","reward_points":0},{"rt":null,"stimulus":"\n          <p style=\"color: #FF3333;\">Your reward: 0 points</p>\n        ","response":null,"trial_type":"html-keyboard-response","trial_index":53,"plugin_version":"2.1.0","time_elapsed":212285},{"rt":null,"stimulus":"<div class=\"fixation\" style=\"font-size: 60px;\">+</div>","response":null,"trial_type":"html-keyboard-response","trial_index":54,"plugin_version":"2.1.0","time_elapsed":213302},{"target_group":"black","target_index":1,"condition_label":"practice","rt":-1,"response":"","correct":false,"choices":"ALL_KEYS","correct_choice":["a"],"trial_duration":2000,"flip_timestamps":[],"response_ends_trial":false,"number_of_apertures":2,"number_of_dots":[91,100],"number_of_sets":1,"coherent_direction":[138,273],"coherence":1,"opposite_coherence":0,"dot_radius":2,"dot_side_length":1,"dot_life":-1,"move_distance":1,"aperture_width":300,"aperture_height":300,"dot_color":["white","black"],"dot_shape":"circle","background_color":"#AAA","RDK_type":3,"aperture_type":2,"reinsert_type":2,"frame_rate":8.177215189873417,"frame_rate_array":[41,8,8,8,8,8,8,8,8,9,8,8,8,8,8,8,8,8,8,8,8,8,8,8,8,8,8,9,8,8,8,8,8,8,8,8,8,8,8,8,8,8,8,8,8,9,8,8,8,9,8,8,8,8,8,8,8,8,8,8,8,8,8,8,8,8,8,8,8,8,8,8,8,8,8,8,8,9,8,8,8,8,8,8,8,9,8,8,8,8,8,8,8,8,8,8,8,8,8,8,8,8,8,8,8,8,8,8,8,8,8,8,8,8,8,8,8,8,8,8,8,8,8,8,8,8,9,8,8,8,8,8,8,8,8,8,8,8,8,8,8,8,8,8,8,8,8,8,8,8,8,8,8,8,8,8,8,8,8,9,8,8,8,8,9,8,8,8,8,8,8,8,8,8,8,8,8,8,8,8,8,8,8,8,8,8,8,8,8,8,8,8,8,8,8,8,8,8,8,8,8,8,8,8,8,8,8,8,8,8,8,8,8,8,8,8,8,8,8,8,8,8,8,8,8,8,8,8,8,8,8,8,8,8,8,8,8],"number_of_frames":237,"aperture_center_x":768,"aperture_center_y":388,"fixation_cross":true,"fixation_cross_width":15,"fixation_cross_height":15,"fixation_cross_color":"#111","fixation_cross_thickness":1,"border":true,"border_thickness":2,"border_color":"transparent","canvas_width":1536,"canvas_height":776,"trial_type":"rdk","trial_index":55,"plugin_version":"2.0.0","time_elapsed":215309,"target_direction":273,"distractor_direction":138},{"rt":3029,"stimulus":"\n        <div class=\"response-container\">\n          <div class=\"response-instruction\">\n            <p>rotate the bar by using the left and right arrow keys.</p>\n            <p>when you are determined, press the Enter key.</p>\n          </div>\n          <div class=\"response-circle\">\n            <div class=\"response-fixation\"></div>\n            <div id=\"bar\" class=\"rotating-bar\"></div>\n          </div>\n        </div>\n      ","response":"Enter","trial_type":"html-keyboard-response","trial_index":56,"plugin_version":"2.1.0","time_elapsed":218339,"random_initial_angle":125,"response_angle_css":312,"response_angle_rdk":138,"angular_error_target":-135,"angular_error_distractor":0,"target_direction":273,"target_group":"black","reward_points":0},{"rt":null,"stimulus":"\n          <p style=\"color: #FF3333;\">Your reward: 0 points</p>\n        ","response":null,"trial_type":"html-keyboard-response","trial_index":57,"plugin_version":"2.1.0","time_elapsed":220346},{"rt":null,"stimulus":"<div class=\"fixation\" style=\"font-size: 60px;\">+</div>","response":null,"trial_type":"html-keyboard-response","trial_index":58,"plugin_version":"2.1.0","time_elapsed":221365},{"target_group":"white","target_index":0,"condition_label":"practice","rt":-1,"response":"","correct":false,"choices":"ALL_KEYS","correct_choice":["a"],"trial_duration":2000,"flip_timestamps":[],"response_ends_trial":false,"number_of_apertures":2,"number_of_dots":[100,100],"number_of_sets":1,"coherent_direction":[140,22],"coherence":1,"opposite_coherence":0,"dot_radius":2,"dot_side_length":1,"dot_life":-1,"move_distance":1,"aperture_width":300,"aperture_height":300,"dot_color":["white","black"],"dot_shape":"circle","background_color":"#AAA","RDK_type":3,"aperture_type":2,"reinsert_type":2,"frame_rate":8.172995780590718,"frame_rate_array":[39,8,8,8,8,8,8,8,8,8,8,8,8,8,8,8,8,8,8,8,8,8,8,8,8,8,8,8,8,9,8,8,8,9,8,8,8,8,8,8,8,8,8,8,8,8,8,8,8,8,8,8,8,8,8,8,8,8,8,8,8,8,8,8,8,8,8,8,8,8,8,9,8,8,8,8,8,8,8,8,8,8,8,8,8,8,8,8,8,8,8,8,8,8,8,8,8,8,8,8,8,8,8,9,8,8,8,8,8,8,8,8,8,8,8,8,8,8,8,8,8,8,8,8,8,8,8,8,8,8,8,8,8,8,8,8,8,8,8,8,8,8,9,8,8,8,8,8,8,8,8,8,8,8,8,8,8,8,8,8,8,8,8,9,8,8,8,8,8,8,8,8,8,8,8,8,9,8,9,9,8,8,8,8,8,8,8,8,8,8,8,8,8,8,8,8,8,8,8,8,8,8,8,8,8,8,8,8,8,8,8,8,8,8,8,8,8,8,8,8,8,8,8,8,9,8,8,8,8,8,8,8,8,8,8,8,8],"number_of_frames":237,"aperture_center_x":768,"aperture_center_y":388,"fixation_cross":true,"fixation_cross_width":15,"fixation_cross_height":15,"fixation_cross_color":"#111","fixation_cross_thickness":1,"border":true,"border_thickness":2,"border_color":"transparent","canvas_width":1536,"canvas_height":776,"trial_type":"rdk","trial_index":59,"plugin_version":"2.0.0","time_elapsed":223369,"target_direction":140,"distractor_direction":22},{"rt":3994,"stimulus":"\n        <div class=\"response-container\">\n          <div class=\"response-instruction\">\n            <p>rotate the bar by using the left and right arrow keys.</p>\n            <p>when you are determined, press the Enter key.</p>\n          </div>\n          <div class=\"response-circle\">\n            <div class=\"response-fixation\"></div>\n            <div id=\"bar\" class=\"rotating-bar\"></div>\n          </div>\n        </div>\n      ","response":"Enter","trial_type":"html-keyboard-response","trial_index":60,"plugin_version":"2.1.0","time_elapsed":227363,"random_initial_angle":44,"response_angle_css":311,"response_angle_rdk":139,"angular_error_target":-1,"angular_error_distractor":117,"target_direction":140,"target_group":"white","reward_points":9},{"rt":null,"stimulus":"\n          <p style=\"color: #00FF00;\">Your reward: 9 points</p>\n        ","response":null,"trial_type":"html-keyboard-response","trial_index":61,"plugin_version":"2.1.0","time_elapsed":229378},{"rt":null,"stimulus":"<div class=\"fixation\" style=\"font-size: 60px;\">+</div>","response":null,"trial_type":"html-keyboard-response","trial_index":62,"plugin_version":"2.1.0","time_elapsed":230394},{"target_group":"black","target_index":1,"condition_label":"practice","rt":-1,"response":"","correct":false,"choices":"ALL_KEYS","correct_choice":["a"],"trial_duration":2000,"flip_timestamps":[],"response_ends_trial":false,"number_of_apertures":2,"number_of_dots":[76,100],"number_of_sets":1,"coherent_direction":[259,110],"coherence":1,"opposite_coherence":0,"dot_radius":2,"dot_side_length":1,"dot_life":-1,"move_distance":1,"aperture_width":300,"aperture_height":300,"dot_color":["white","black"],"dot_shape":"circle","background_color":"#AAA","RDK_type":3,"aperture_type":2,"reinsert_type":2,"frame_rate":8.15126050420168,"frame_rate_array":[36,8,9,8,8,8,8,8,8,8,8,8,8,8,8,8,8,8,8,8,8,8,9,8,8,8,8,8,8,8,8,8,8,8,8,8,8,8,8,8,9,8,8,8,8,8,8,8,8,8,8,8,8,8,8,8,8,8,8,8,8,8,8,8,8,8,8,8,8,8,8,8,8,8,8,8,8,8,8,8,8,8,8,8,8,8,8,8,8,8,8,8,8,8,8,8,8,9,8,8,8,8,8,8,8,8,8,8,8,8,8,8,8,8,8,8,8,8,8,8,9,8,8,8,8,8,8,8,8,8,8,8,8,8,8,8,8,8,8,8,8,8,8,8,8,8,8,8,8,8,8,8,8,8,8,8,8,8,8,9,8,8,8,8,8,8,8,8,8,8,8,8,8,8,8,8,8,8,8,8,8,8,8,8,9,8,8,8,8,8,8,8,8,8,8,8,8,8,8,8,8,8,8,8,8,8,8,8,8,8,8,8,8,8,8,8,8,8,8,8,8,8,8,8,8,8,8,8,8,8,8,9,8,8,8,8,8,8],"number_of_frames":238,"aperture_center_x":768,"aperture_center_y":388,"fixation_cross":true,"fixation_cross_width":15,"fixation_cross_height":15,"fixation_cross_color":"#111","fixation_cross_thickness":1,"border":true,"border_thickness":2,"border_color":"transparent","canvas_width":1536,"canvas_height":776,"trial_type":"rdk","trial_index":63,"plugin_version":"2.0.0","time_elapsed":232403,"target_direction":110,"distractor_direction":259},{"rt":1985,"stimulus":"\n        <div class=\"response-container\">\n          <div class=\"response-instruction\">\n            <p>rotate the bar by using the left and right arrow keys.</p>\n            <p>when you are determined, press the Enter key.</p>\n          </div>\n          <div class=\"response-circle\">\n            <div class=\"response-fixation\"></div>\n            <div id=\"bar\" class=\"rotating-bar\"></div>\n          </div>\n        </div>\n      ","response":"Enter","trial_type":"html-keyboard-response","trial_index":64,"plugin_version":"2.1.0","time_elapsed":234389,"random_initial_angle":101,"response_angle_css":193,"response_angle_rdk":257,"angular_error_target":147,"angular_error_distractor":-2,"target_direction":110,"target_group":"black","reward_points":0},{"rt":null,"stimulus":"\n          <p style=\"color: #FF3333;\">Your reward: 0 points</p>\n        ","response":null,"trial_type":"html-keyboard-response","trial_index":65,"plugin_version":"2.1.0","time_elapsed":236395},{"rt":1556,"stimulus":"\n        <div class=\"instructions-container\">\n          <h2>End of Practice</h2>\n          <p>You have completed the practice trials.</p>\n          <p>Press <strong>Enter</strong> key to begin the main experiment.</p>\n        </div>\n      ","response":"Enter","trial_type":"html-keyboard-response","trial_index":66,"plugin_version":"2.1.0","time_elapsed":237952},{"rt":null,"stimulus":"<div class=\"fixation\" style=\"font-size: 60px;\">+</div>","response":null,"trial_type":"html-keyboard-response","trial_index":67,"plugin_version":"2.1.0","time_elapsed":238958},{"target_group":"black","condition_label":"B_H_vs_W_L_rep16","target_direction":51,"distractor_direction":148,"session_rotation":313,"rt":-1,"response":"","correct":false,"choices":"ALL_KEYS","correct_choice":["a"],"trial_duration":2000,"flip_timestamps":[],"response_ends_trial":false,"number_of_apertures":200,"number_of_dots":[1,1,1,1,1,1,1,1,1,1,1,1,1,1,1,1,1,1,1,1,1,1,1,1,1,1,1,1,1,1,1,1,1,1,1,1,1,1,1,1,1,1,1,1,1,1,1,1,1,1,1,1,1,1,1,1,1,1,1,1,1,1,1,1,1,1,1,1,1,1,1,1,1,1,1,1,1,1,1,1,1,1,1,1,1,1,1,1,1,1,1,1,1,1,1,1,1,1,1,1,1,1,1,1,1,1,1,1,1,1,1,1,1,1,1,1,1,1,1,1,1,1,1,1,1,1,1,1,1,1,1,1,1,1,1,1,1,1,1,1,1,1,1,1,1,1,1,1,1,1,1,1,1,1,1,1,1,1,1,1,1,1,1,1,1,1,1,1,1,1,1,1,1,1,1,1,1,1,1,1,1,1,1,1,1,1,1,1,1,1,1,1,1,1,1,1,1,1,1,1],"number_of_sets":1,"coherent_direction":[148,51,51,148,148,51,148,148,51,148,148,148,148,51,148,148,51,148,148,148,51,51,148,148,51,148,51,148,148,148,148,51,51,51,51,51,51,51,51,148,148,148,51,51,148,148,148,51,51,148,51,148,148,148,51,148,148,148,51,148,148,51,51,51,148,51,148,51,148,51,148,148,51,51,148,51,51,51,51,148,148,148,148,148,148,51,148,51,51,51,51,51,51,148,148,148,148,148,51,51,148,51,148,51,51,51,148,51,51,51,51,51,148,51,148,51,51,148,51,148,148,148,148,148,51,51,51,51,51,51,51,148,148,148,148,51,51,51,51,51,148,51,148,148,148,148,148,148,51,51,148,51,148,51,148,51,148,51,148,148,51,148,148,148,51,148,148,51,148,148,51,148,148,148,148,51,51,51,51,51,51,51,51,148,148,148,51,51,51,51,148,148,51,148,51,51,148,51,51,51],"coherence":1,"opposite_coherence":0,"dot_radius":2,"dot_side_length":1,"dot_life":-1,"move_distance":1,"aperture_width":300,"aperture_height":300,"dot_color":["white","black","black","white","white","black","white","white","black","white","white","white","white","black","white","white","black","white","white","white","black","black","white","white","black","white","black","white","white","white","white","black","black","black","black","black","black","black","black","white","white","white","black","black","white","white","white","black","black","white","black","white","white","white","black","white","white","white","black","white","white","black","black","black","white","black","white","black","white","black","white","white","black","black","white","black","black","black","black","white","white","white","white","white","white","black","white","black","black","black","black","black","black","white","white","white","white","white","black","black","white","black","white","black","black","black","white","black","black","black","black","black","white","black","white","black","black","white","black","white","white","white","white","white","black","black","black","black","black","black","black","white","white","white","white","black","black","black","black","black","white","black","white","white","white","white","white","white","black","black","white","black","white","black","white","black","white","black","white","white","black","white","white","white","black","white","white","black","white","white","black","white","white","white","white","black","black","black","black","black","black","black","black","white","white","white","black","black","black","black","white","white","black","white","black","black","white","black","black","black"],"dot_shape":"circle","background_color":"#AAA","RDK_type":3,"aperture_type":2,"reinsert_type":2,"frame_rate":8.308016877637131,"frame_rate_array":[39,8,8,9,8,8,8,8,9,8,9,8,8,8,9,8,8,9,8,8,8,8,8,9,8,8,9,8,8,8,9,8,8,8,8,8,9,8,8,9,8,9,8,8,9,8,8,8,8,8,8,9,8,8,8,8,9,8,8,9,8,8,8,8,8,8,8,8,8,8,8,9,8,8,8,8,8,9,8,8,8,8,9,8,8,8,8,9,8,8,8,8,8,8,9,8,8,8,8,8,8,8,8,9,8,8,8,8,9,8,8,8,8,8,8,8,9,8,8,8,8,8,8,8,8,8,9,8,8,8,8,9,8,8,8,8,9,8,8,8,8,8,8,8,8,8,8,8,8,8,9,8,8,9,8,8,8,8,8,8,8,8,8,8,8,8,8,9,8,8,8,9,8,8,8,8,8,8,8,8,8,8,9,8,8,9,9,8,9,8,9,8,8,9,9,8,9,8,8,8,8,8,8,9,8,8,8,8,8,8,8,8,8,8,8,9,8,8,8,8,8,8,8,8,8,8,8,9,8,8,9,8,8,8,8,8,8],"number_of_frames":237,"aperture_center_x":768,"aperture_center_y":388,"fixation_cross":true,"fixation_cross_width":15,"fixation_cross_height":15,"fixation_cross_color":"#111","fixation_cross_thickness":1,"border":true,"border_thickness":2,"border_color":"transparent","canvas_width":1536,"canvas_height":776,"trial_type":"rdk","trial_index":68,"plugin_version":"2.0.0","time_elapsed":240963},{"rt":1537,"stimulus":"\n        <div class=\"response-container\">\n          <div class=\"response-instruction\">\n            <p>rotate the bar by using the left and right arrow keys.</p>\n            <p>when you are determined, press the Enter key.</p>\n          </div>\n          <div class=\"response-circle\">\n            <div class=\"response-fixation\"></div>\n            <div id=\"bar\" class=\"rotating-bar\"></div>\n          </div>\n        </div>\n      ","response":"Enter","trial_type":"html-keyboard-response","trial_index":69,"plugin_version":"2.1.0","time_elapsed":242501,"random_initial_angle":234,"response_angle_css":295,"response_angle_rdk":155,"angular_error_target":104,"angular_error_distractor":7,"target_direction":51,"target_group":"black","reward_points":0},{"rt":null,"stimulus":"\n          <p style=\"color: #FF3333;\">Your reward: 0 points</p>\n        ","response":null,"trial_type":"html-keyboard-response","trial_index":70,"plugin_version":"2.1.0","time_elapsed":244504},{"rt":null,"stimulus":"<div class=\"fixation\" style=\"font-size: 60px;\">+</div>","response":null,"trial_type":"html-keyboard-response","trial_index":71,"plugin_version":"2.1.0","time_elapsed":245518},{"target_group":"black","condition_label":"B_H_vs_W_L_rep19","target_direction":45,"distractor_direction":147,"session_rotation":313,"rt":-1,"response":"","correct":false,"choices":"ALL_KEYS","correct_choice":["a"],"trial_duration":2000,"flip_timestamps":[],"response_ends_trial":false,"number_of_apertures":200,"number_of_dots":[1,1,1,1,1,1,1,1,1,1,1,1,1,1,1,1,1,1,1,1,1,1,1,1,1,1,1,1,1,1,1,1,1,1,1,1,1,1,1,1,1,1,1,1,1,1,1,1,1,1,1,1,1,1,1,1,1,1,1,1,1,1,1,1,1,1,1,1,1,1,1,1,1,1,1,1,1,1,1,1,1,1,1,1,1,1,1,1,1,1,1,1,1,1,1,1,1,1,1,1,1,1,1,1,1,1,1,1,1,1,1,1,1,1,1,1,1,1,1,1,1,1,1,1,1,1,1,1,1,1,1,1,1,1,1,1,1,1,1,1,1,1,1,1,1,1,1,1,1,1,1,1,1,1,1,1,1,1,1,1,1,1,1,1,1,1,1,1,1,1,1,1,1,1,1,1,1,1,1,1,1,1,1,1,1,1,1,1,1,1,1,1,1,1,1,1,1,1,1,1],"number_of_sets":1,"coherent_direction":[147,45,45,147,147,45,147,45,45,147,147,147,147,45,147,45,45,147,147,147,147,45,147,147,45,45,147,147,45,45,147,147,147,45,45,147,45,45,147,147,45,45,45,45,147,45,147,147,45,45,147,147,45,45,147,147,147,45,147,147,147,147,45,45,45,45,147,45,147,45,147,45,45,45,147,147,147,147,147,45,45,147,147,147,45,45,45,45,147,45,45,147,45,45,45,45,147,45,147,45,147,147,45,147,45,147,45,45,147,45,147,147,147,147,45,147,45,45,45,45,147,45,45,45,45,45,45,45,45,147,147,45,45,147,45,147,45,45,45,45,45,147,147,147,45,45,45,147,147,147,147,45,45,45,45,147,147,147,45,45,147,147,45,45,45,147,147,147,147,147,45,147,147,45,45,147,45,147,147,45,147,45,147,45,147,45,147,147,147,45,147,147,147,45,147,147,147,147,45,45],"coherence":1,"opposite_coherence":0,"dot_radius":2,"dot_side_length":1,"dot_life":-1,"move_distance":1,"aperture_width":300,"aperture_height":300,"dot_color":["white","black","black","white","white","black","white","black","black","white","white","white","white","black","white","black","black","white","white","white","white","black","white","white","black","black","white","white","black","black","white","white","white","black","black","white","black","black","white","white","black","black","black","black","white","black","white","white","black","black","white","white","black","black","white","white","white","black","white","white","white","white","black","black","black","black","white","black","white","black","white","black","black","black","white","white","white","white","white","black","black","white","white","white","black","black","black","black","white","black","black","white","black","black","black","black","white","black","white","black","white","white","black","white","black","white","black","black","white","black","white","white","white","white","black","white","black","black","black","black","white","black","black","black","black","black","black","black","black","white","white","black","black","white","black","white","black","black","black","black","black","white","white","white","black","black","black","white","white","white","white","black","black","black","black","white","white","white","black","black","white","white","black","black","black","white","white","white","white","white","black","white","white","black","black","white","black","white","white","black","white","black","white","black","white","black","white","white","white","black","white","white","white","black","white","white","white","white","black","black"],"dot_shape":"circle","background_color":"#AAA","RDK_type":3,"aperture_type":2,"reinsert_type":2,"frame_rate":8.221757322175732,"frame_rate_array":[26,8,8,8,8,8,8,8,8,8,8,8,8,9,8,8,8,8,8,9,8,8,8,8,8,8,9,8,8,8,8,8,8,8,9,8,8,8,8,8,8,8,8,8,8,8,8,8,8,9,8,8,9,8,8,8,8,8,8,8,8,8,8,9,8,8,8,8,8,8,9,8,9,9,8,8,9,8,8,8,8,8,8,8,8,9,8,8,8,8,8,9,8,8,9,8,8,8,9,8,8,8,8,8,8,8,8,8,8,9,8,9,8,8,8,8,9,8,9,8,8,8,8,8,8,8,8,8,8,9,8,8,9,8,9,8,8,8,8,8,8,8,8,8,9,8,8,8,9,8,8,8,8,8,8,8,8,9,9,8,8,8,8,8,8,9,8,9,8,8,8,8,8,8,8,8,9,8,8,8,8,9,8,8,8,8,8,9,8,8,8,8,8,8,8,8,8,8,8,8,8,8,8,8,8,8,8,8,8,8,8,9,9,8,8,8,8,8,8,8,8,8,8,8,9,8,8,8,8,8,8,8,8,8,9,8,8,8,8],"number_of_frames":239,"aperture_center_x":768,"aperture_center_y":388,"fixation_cross":true,"fixation_cross_width":15,"fixation_cross_height":15,"fixation_cross_color":"#111","fixation_cross_thickness":1,"border":true,"border_thickness":2,"border_color":"transparent","canvas_width":1536,"canvas_height":776,"trial_type":"rdk","trial_index":72,"plugin_version":"2.0.0","time_elapsed":247527},{"rt":3243,"stimulus":"\n        <div class=\"response-container\">\n          <div class=\"response-instruction\">\n            <p>rotate the bar by using the left and right arrow keys.</p>\n            <p>when you are determined, press the Enter key.</p>\n          </div>\n          <div class=\"response-circle\">\n            <div class=\"response-fixation\"></div>\n            <div id=\"bar\" class=\"rotating-bar\"></div>\n          </div>\n        </div>\n      ","response":"Enter","trial_type":"html-keyboard-response","trial_index":73,"plugin_version":"2.1.0","time_elapsed":250771,"random_initial_angle":116,"response_angle_css":285,"response_angle_rdk":165,"angular_error_target":120,"angular_error_distractor":18,"target_direction":45,"target_group":"black","reward_points":0},{"rt":null,"stimulus":"\n          <p style=\"color: #FF3333;\">Your reward: 0 points</p>\n        ","response":null,"trial_type":"html-keyboard-response","trial_index":74,"plugin_version":"2.1.0","time_elapsed":252784},{"rt":null,"stimulus":"<div class=\"fixation\" style=\"font-size: 60px;\">+</div>","response":null,"trial_type":"html-keyboard-response","trial_index":75,"plugin_version":"2.1.0","time_elapsed":253786},{"target_group":"black","condition_label":"B_H_vs_W_L_rep20","target_direction":43,"distractor_direction":172,"session_rotation":313,"rt":-1,"response":"","correct":false,"choices":"ALL_KEYS","correct_choice":["a"],"trial_duration":2000,"flip_timestamps":[],"response_ends_trial":false,"number_of_apertures":200,"number_of_dots":[1,1,1,1,1,1,1,1,1,1,1,1,1,1,1,1,1,1,1,1,1,1,1,1,1,1,1,1,1,1,1,1,1,1,1,1,1,1,1,1,1,1,1,1,1,1,1,1,1,1,1,1,1,1,1,1,1,1,1,1,1,1,1,1,1,1,1,1,1,1,1,1,1,1,1,1,1,1,1,1,1,1,1,1,1,1,1,1,1,1,1,1,1,1,1,1,1,1,1,1,1,1,1,1,1,1,1,1,1,1,1,1,1,1,1,1,1,1,1,1,1,1,1,1,1,1,1,1,1,1,1,1,1,1,1,1,1,1,1,1,1,1,1,1,1,1,1,1,1,1,1,1,1,1,1,1,1,1,1,1,1,1,1,1,1,1,1,1,1,1,1,1,1,1,1,1,1,1,1,1,1,1,1,1,1,1,1,1,1,1,1,1,1,1,1,1,1,1,1,1],"number_of_sets":1,"coherent_direction":[172,172,172,43,172,172,172,43,172,43,172,43,172,172,43,43,172,172,172,43,43,43,43,43,172,172,43,43,172,43,43,43,43,43,43,172,172,172,172,43,172,172,172,172,43,43,172,172,172,43,172,43,172,172,43,172,43,43,172,43,172,43,172,43,172,43,43,172,43,43,43,43,43,43,172,172,43,172,172,172,43,43,43,43,172,172,172,43,172,172,43,43,43,43,172,43,172,43,43,172,43,43,43,43,43,172,172,172,172,172,172,43,43,43,172,172,172,172,172,43,43,43,172,172,172,43,43,172,172,43,172,43,172,172,172,172,172,172,172,172,43,43,172,172,172,43,43,172,43,172,172,172,172,43,172,172,43,172,43,43,43,43,172,43,43,172,172,172,43,172,172,43,43,43,43,172,43,43,43,43,172,172,43,43,172,43,43,43,172,43,43,172,43,172,172,43,43,43,172,43],"coherence":1,"opposite_coherence":0,"dot_radius":2,"dot_side_length":1,"dot_life":-1,"move_distance":1,"aperture_width":300,"aperture_height":300,"dot_color":["white","white","white","black","white","white","white","black","white","black","white","black","white","white","black","black","white","white","white","black","black","black","black","black","white","white","black","black","white","black","black","black","black","black","black","white","white","white","white","black","white","white","white","white","black","black","white","white","white","black","white","black","white","white","black","white","black","black","white","black","white","black","white","black","white","black","black","white","black","black","black","black","black","black","white","white","black","white","white","white","black","black","black","black","white","white","white","black","white","white","black","black","black","black","white","black","white","black","black","white","black","black","black","black","black","white","white","white","white","white","white","black","black","black","white","white","white","white","white","black","black","black","white","white","white","black","black","white","white","black","white","black","white","white","white","white","white","white","white","white","black","black","white","white","white","black","black","white","black","white","white","white","white","black","white","white","black","white","black","black","black","black","white","black","black","white","white","white","black","white","white","black","black","black","black","white","black","black","black","black","white","white","black","black","white","black","black","black","white","black","black","white","black","white","white","black","black","black","white","black"],"dot_shape":"circle","background_color":"#AAA","RDK_type":3,"aperture_type":2,"reinsert_type":2,"frame_rate":8.218487394957982,"frame_rate_array":[34,8,9,8,8,8,9,8,9,8,8,9,8,8,8,9,8,8,8,8,8,8,8,8,8,8,9,8,8,8,8,8,8,8,8,9,8,8,8,9,8,8,8,8,8,8,8,8,8,9,8,8,8,8,8,8,8,8,8,8,8,8,8,8,8,8,8,8,8,8,8,8,8,8,8,8,8,8,8,8,8,9,8,8,8,8,8,8,8,8,8,8,8,8,9,8,8,8,8,8,8,8,8,8,8,8,8,8,8,8,8,8,9,8,8,8,8,8,8,8,8,8,8,8,8,8,9,8,8,9,8,8,8,8,8,8,8,9,8,8,8,8,8,8,9,8,8,8,8,8,8,8,8,8,8,8,9,8,9,8,8,8,8,8,8,8,8,9,8,8,8,9,8,8,8,8,8,8,8,8,8,8,8,8,9,8,8,8,8,8,8,8,8,8,9,8,8,8,8,8,8,8,8,9,8,8,9,8,8,8,8,8,8,8,8,9,8,8,8,8,8,8,8,8,8,8,9,8,8,8,8,8,8,8,8,8,8,8],"number_of_frames":238,"aperture_center_x":768,"aperture_center_y":388,"fixation_cross":true,"fixation_cross_width":15,"fixation_cross_height":15,"fixation_cross_color":"#111","fixation_cross_thickness":1,"border":true,"border_thickness":2,"border_color":"transparent","canvas_width":1536,"canvas_height":776,"trial_type":"rdk","trial_index":76,"plugin_version":"2.0.0","time_elapsed":255795},{"rt":1669,"stimulus":"\n        <div class=\"response-container\">\n          <div class=\"response-instruction\">\n            <p>rotate the bar by using the left and right arrow keys.</p>\n            <p>when you are determined, press the Enter key.</p>\n          </div>\n          <div class=\"response-circle\">\n            <div class=\"response-fixation\"></div>\n            <div id=\"bar\" class=\"rotating-bar\"></div>\n          </div>\n        </div>\n      ","response":"Enter","trial_type":"html-keyboard-response","trial_index":77,"plugin_version":"2.1.0","time_elapsed":257465,"random_initial_angle":278,"response_angle_css":275,"response_angle_rdk":175,"angular_error_target":132,"angular_error_distractor":3,"target_direction":43,"target_group":"black","reward_points":0},{"rt":null,"stimulus":"\n          <p style=\"color: #FF3333;\">Your reward: 0 points</p>\n        ","response":null,"trial_type":"html-keyboard-response","trial_index":78,"plugin_version":"2.1.0","time_elapsed":259471},{"rt":null,"stimulus":"<div class=\"fixation\" style=\"font-size: 60px;\">+</div>","response":null,"trial_type":"html-keyboard-response","trial_index":79,"plugin_version":"2.1.0","time_elapsed":260472},{"target_group":"black","condition_label":"B_H_vs_W_L_rep14","target_direction":45,"distractor_direction":175,"session_rotation":313,"rt":-1,"response":"","correct":false,"choices":"ALL_KEYS","correct_choice":["a"],"trial_duration":2000,"flip_timestamps":[],"response_ends_trial":false,"number_of_apertures":200,"number_of_dots":[1,1,1,1,1,1,1,1,1,1,1,1,1,1,1,1,1,1,1,1,1,1,1,1,1,1,1,1,1,1,1,1,1,1,1,1,1,1,1,1,1,1,1,1,1,1,1,1,1,1,1,1,1,1,1,1,1,1,1,1,1,1,1,1,1,1,1,1,1,1,1,1,1,1,1,1,1,1,1,1,1,1,1,1,1,1,1,1,1,1,1,1,1,1,1,1,1,1,1,1,1,1,1,1,1,1,1,1,1,1,1,1,1,1,1,1,1,1,1,1,1,1,1,1,1,1,1,1,1,1,1,1,1,1,1,1,1,1,1,1,1,1,1,1,1,1,1,1,1,1,1,1,1,1,1,1,1,1,1,1,1,1,1,1,1,1,1,1,1,1,1,1,1,1,1,1,1,1,1,1,1,1,1,1,1,1,1,1,1,1,1,1,1,1,1,1,1,1,1,1],"number_of_sets":1,"coherent_direction":[45,45,45,175,45,175,45,45,45,45,175,175,175,175,45,175,45,45,175,45,45,45,45,45,45,175,175,175,45,175,175,175,175,45,175,45,45,45,175,175,175,175,45,175,175,45,45,45,45,45,45,45,45,175,175,175,45,175,175,175,45,45,45,45,175,175,45,45,45,45,45,175,175,175,175,45,175,175,45,45,45,175,175,45,45,45,45,175,45,175,175,175,175,175,175,45,175,45,175,45,45,175,45,175,175,175,45,175,45,175,45,175,45,45,175,175,175,175,45,175,45,45,45,175,45,45,175,175,175,175,175,175,175,175,175,45,175,45,175,45,175,175,175,175,175,175,45,45,175,45,45,175,45,45,175,175,45,45,45,45,175,45,45,45,45,175,175,175,175,175,45,175,45,175,45,45,45,45,45,45,175,45,175,175,175,175,175,175,175,175,45,45,45,175,45,45,45,175,45,45],"coherence":1,"opposite_coherence":0,"dot_radius":2,"dot_side_length":1,"dot_life":-1,"move_distance":1,"aperture_width":300,"aperture_height":300,"dot_color":["black","black","black","white","black","white","black","black","black","black","white","white","white","white","black","white","black","black","white","black","black","black","black","black","black","white","white","white","black","white","white","white","white","black","white","black","black","black","white","white","white","white","black","white","white","black","black","black","black","black","black","black","black","white","white","white","black","white","white","white","black","black","black","black","white","white","black","black","black","black","black","white","white","white","white","black","white","white","black","black","black","white","white","black","black","black","black","white","black","white","white","white","white","white","white","black","white","black","white","black","black","white","black","white","white","white","black","white","black","white","black","white","black","black","white","white","white","white","black","white","black","black","black","white","black","black","white","white","white","white","white","white","white","white","white","black","white","black","white","black","white","white","white","white","white","white","black","black","white","black","black","white","black","black","white","white","black","black","black","black","white","black","black","black","black","white","white","white","white","white","black","white","black","white","black","black","black","black","black","black","white","black","white","white","white","white","white","white","white","white","black","black","black","white","black","black","black","white","black","black"],"dot_shape":"circle","background_color":"#AAA","RDK_type":3,"aperture_type":2,"reinsert_type":2,"frame_rate":8.232067510548523,"frame_rate_array":[38,8,8,8,8,8,8,8,8,9,8,8,8,8,8,8,8,9,8,8,8,8,8,8,8,8,9,8,8,9,8,8,8,8,8,8,8,8,8,8,8,9,8,8,8,8,8,9,8,8,8,8,8,8,9,8,8,8,8,8,8,8,9,8,8,8,8,8,8,8,8,9,8,8,8,8,8,8,8,9,8,8,8,8,8,9,8,8,8,8,8,8,8,8,8,8,8,8,8,8,8,8,8,9,8,8,8,8,8,8,8,8,8,8,8,8,8,8,8,8,8,8,8,8,8,8,8,9,8,9,8,8,8,8,9,8,9,8,9,8,8,8,8,9,8,8,8,8,9,8,8,8,8,9,8,8,8,8,8,8,8,8,8,8,8,8,8,8,8,8,8,8,9,8,8,8,8,8,8,8,8,8,8,9,8,9,8,8,8,8,8,8,8,8,8,8,8,8,8,8,8,8,9,9,8,8,8,8,8,8,8,8,8,8,8,8,8,8,8,8,8,8,8,8,8,8,8,8,8,8,8,8,8,8,8,8,8],"number_of_frames":237,"aperture_center_x":768,"aperture_center_y":388,"fixation_cross":true,"fixation_cross_width":15,"fixation_cross_height":15,"fixation_cross_color":"#111","fixation_cross_thickness":1,"border":true,"border_thickness":2,"border_color":"transparent","canvas_width":1536,"canvas_height":776,"trial_type":"rdk","trial_index":80,"plugin_version":"2.0.0","time_elapsed":262475},{"rt":2477,"stimulus":"\n        <div class=\"response-container\">\n          <div class=\"response-instruction\">\n            <p>rotate the bar by using the left and right arrow keys.</p>\n            <p>when you are determined, press the Enter key.</p>\n          </div>\n          <div class=\"response-circle\">\n            <div class=\"response-fixation\"></div>\n            <div id=\"bar\" class=\"rotating-bar\"></div>\n          </div>\n        </div>\n      ","response":"Enter","trial_type":"html-keyboard-response","trial_index":81,"plugin_version":"2.1.0","time_elapsed":264953,"random_initial_angle":87,"response_angle_css":276,"response_angle_rdk":174,"angular_error_target":129,"angular_error_distractor":-1,"target_direction":45,"target_group":"black","reward_points":0},{"rt":null,"stimulus":"\n          <p style=\"color: #FF3333;\">Your reward: 0 points</p>\n        ","response":null,"trial_type":"html-keyboard-response","trial_index":82,"plugin_version":"2.1.0","time_elapsed":266955},{"rt":null,"stimulus":"<div class=\"fixation\" style=\"font-size: 60px;\">+</div>","response":null,"trial_type":"html-keyboard-response","trial_index":83,"plugin_version":"2.1.0","time_elapsed":267972},{"target_group":"white","condition_label":"W_H_vs_B_L_rep1","target_direction":340,"distractor_direction":235,"session_rotation":313,"rt":-1,"response":"","correct":false,"choices":"ALL_KEYS","correct_choice":["a"],"trial_duration":2000,"flip_timestamps":[],"response_ends_trial":false,"number_of_apertures":200,"number_of_dots":[1,1,1,1,1,1,1,1,1,1,1,1,1,1,1,1,1,1,1,1,1,1,1,1,1,1,1,1,1,1,1,1,1,1,1,1,1,1,1,1,1,1,1,1,1,1,1,1,1,1,1,1,1,1,1,1,1,1,1,1,1,1,1,1,1,1,1,1,1,1,1,1,1,1,1,1,1,1,1,1,1,1,1,1,1,1,1,1,1,1,1,1,1,1,1,1,1,1,1,1,1,1,1,1,1,1,1,1,1,1,1,1,1,1,1,1,1,1,1,1,1,1,1,1,1,1,1,1,1,1,1,1,1,1,1,1,1,1,1,1,1,1,1,1,1,1,1,1,1,1,1,1,1,1,1,1,1,1,1,1,1,1,1,1,1,1,1,1,1,1,1,1,1,1,1,1,1,1,1,1,1,1,1,1,1,1,1,1,1,1,1,1,1,1,1,1,1,1,1,1],"number_of_sets":1,"coherent_direction":[340,235,235,235,235,340,235,340,340,235,340,235,340,235,340,340,340,235,235,340,235,235,235,235,235,340,340,235,340,235,340,340,340,340,235,340,235,340,235,235,235,340,340,340,235,340,340,340,340,340,340,235,340,340,235,340,340,235,340,340,340,235,340,340,340,235,235,340,340,340,340,235,235,235,235,340,340,235,340,340,235,340,235,340,235,340,340,235,340,340,235,340,235,340,340,235,235,340,235,235,340,340,235,340,235,340,235,235,235,340,340,235,340,340,235,235,340,235,340,235,340,235,235,235,340,340,235,340,340,340,235,235,340,235,235,235,340,235,235,235,340,340,340,235,235,235,235,235,235,235,235,340,340,340,340,235,235,235,340,235,235,340,235,235,340,235,340,340,340,235,235,340,235,235,235,340,235,235,235,235,235,340,340,235,235,235,340,340,340,340,235,235,235,340,340,340,235,340,235,340],"coherence":1,"opposite_coherence":0,"dot_radius":2,"dot_side_length":1,"dot_life":-1,"move_distance":1,"aperture_width":300,"aperture_height":300,"dot_color":["white","black","black","black","black","white","black","white","white","black","white","black","white","black","white","white","white","black","black","white","black","black","black","black","black","white","white","black","white","black","white","white","white","white","black","white","black","white","black","black","black","white","white","white","black","white","white","white","white","white","white","black","white","white","black","white","white","black","white","white","white","black","white","white","white","black","black","white","white","white","white","black","black","black","black","white","white","black","white","white","black","white","black","white","black","white","white","black","white","white","black","white","black","white","white","black","black","white","black","black","white","white","black","white","black","white","black","black","black","white","white","black","white","white","black","black","white","black","white","black","white","black","black","black","white","white","black","white","white","white","black","black","white","black","black","black","white","black","black","black","white","white","white","black","black","black","black","black","black","black","black","white","white","white","white","black","black","black","white","black","black","white","black","black","white","black","white","white","white","black","black","white","black","black","black","white","black","black","black","black","black","white","white","black","black","black","white","white","white","white","black","black","black","white","white","white","black","white","black","white"],"dot_shape":"circle","background_color":"#AAA","RDK_type":3,"aperture_type":2,"reinsert_type":2,"frame_rate":8.248945147679326,"frame_rate_array":[41,8,8,8,8,8,8,8,8,8,9,8,8,8,8,8,8,8,9,8,8,8,8,9,8,8,8,8,8,8,8,8,8,8,8,8,9,8,8,8,8,8,8,8,8,8,8,8,8,8,8,8,8,8,8,9,8,8,8,8,8,8,8,8,8,8,8,8,9,8,8,8,8,8,8,8,8,8,8,8,8,8,8,8,8,8,8,8,8,8,9,8,9,8,8,8,9,8,8,8,8,8,8,8,8,8,9,8,8,8,8,8,8,9,8,8,8,9,8,8,8,8,8,8,8,8,8,8,8,8,8,8,8,8,8,8,9,8,8,8,9,8,8,8,8,8,9,8,8,8,9,8,9,8,9,8,8,8,8,8,8,8,8,8,8,8,10,6,8,9,8,8,8,8,8,8,8,8,9,8,8,8,8,9,8,8,8,8,8,8,8,8,8,8,8,9,8,8,8,8,8,8,8,8,8,8,8,8,8,8,9,8,8,8,8,9,8,8,8,8,8,8,8,8,8,8,9,8,8,8,8,8,8,9,8,8,8],"number_of_frames":237,"aperture_center_x":768,"aperture_center_y":388,"fixation_cross":true,"fixation_cross_width":15,"fixation_cross_height":15,"fixation_cross_color":"#111","fixation_cross_thickness":1,"border":true,"border_thickness":2,"border_color":"transparent","canvas_width":1536,"canvas_height":776,"trial_type":"rdk","trial_index":84,"plugin_version":"2.0.0","time_elapsed":269979},{"rt":2584,"stimulus":"\n        <div class=\"response-container\">\n          <div class=\"response-instruction\">\n            <p>rotate the bar by using the left and right arrow keys.</p>\n            <p>when you are determined, press the Enter key.</p>\n          </div>\n          <div class=\"response-circle\">\n            <div class=\"response-fixation\"></div>\n            <div id=\"bar\" class=\"rotating-bar\"></div>\n          </div>\n        </div>\n      ","response":"Enter","trial_type":"html-keyboard-response","trial_index":85,"plugin_version":"2.1.0","time_elapsed":272564,"random_initial_angle":90,"response_angle_css":123,"response_angle_rdk":327,"angular_error_target":-13,"angular_error_distractor":92,"target_direction":340,"target_group":"white","reward_points":7},{"rt":null,"stimulus":"\n          <p style=\"color: #00FF00;\">Your reward: 7 points</p>\n        ","response":null,"trial_type":"html-keyboard-response","trial_index":86,"plugin_version":"2.1.0","time_elapsed":274565},{"rt":null,"stimulus":"<div class=\"fixation\" style=\"font-size: 60px;\">+</div>","response":null,"trial_type":"html-keyboard-response","trial_index":87,"plugin_version":"2.1.0","time_elapsed":275581},{"target_group":"white","condition_label":"W_H_vs_B_L_rep24","target_direction":328,"distractor_direction":230,"session_rotation":313,"rt":-1,"response":"","correct":false,"choices":"ALL_KEYS","correct_choice":["a"],"trial_duration":2000,"flip_timestamps":[],"response_ends_trial":false,"number_of_apertures":200,"number_of_dots":[1,1,1,1,1,1,1,1,1,1,1,1,1,1,1,1,1,1,1,1,1,1,1,1,1,1,1,1,1,1,1,1,1,1,1,1,1,1,1,1,1,1,1,1,1,1,1,1,1,1,1,1,1,1,1,1,1,1,1,1,1,1,1,1,1,1,1,1,1,1,1,1,1,1,1,1,1,1,1,1,1,1,1,1,1,1,1,1,1,1,1,1,1,1,1,1,1,1,1,1,1,1,1,1,1,1,1,1,1,1,1,1,1,1,1,1,1,1,1,1,1,1,1,1,1,1,1,1,1,1,1,1,1,1,1,1,1,1,1,1,1,1,1,1,1,1,1,1,1,1,1,1,1,1,1,1,1,1,1,1,1,1,1,1,1,1,1,1,1,1,1,1,1,1,1,1,1,1,1,1,1,1,1,1,1,1,1,1,1,1,1,1,1,1,1,1,1,1,1,1],"number_of_sets":1,"coherent_direction":[328,230,230,328,328,230,328,230,230,230,328,328,328,230,328,328,328,230,230,230,328,230,328,328,230,230,230,328,328,230,230,230,328,230,230,230,230,230,328,328,328,230,328,328,230,230,230,230,328,230,328,230,328,328,328,328,230,230,230,328,328,328,230,328,230,230,328,230,230,328,328,230,230,328,328,230,230,328,328,230,328,230,230,328,328,230,328,230,230,328,328,230,328,230,328,328,328,230,328,230,230,230,328,328,328,230,230,230,230,230,230,328,328,328,328,230,328,230,328,328,230,328,230,328,328,230,328,328,230,328,328,230,328,230,230,328,328,230,328,328,328,328,328,230,328,230,328,230,230,230,230,230,328,328,328,328,230,328,328,328,230,230,328,328,230,328,230,328,230,328,328,328,230,230,328,328,328,230,230,230,230,328,230,230,328,328,230,230,230,230,230,328,328,328,328,230,230,230,230,230],"coherence":1,"opposite_coherence":0,"dot_radius":2,"dot_side_length":1,"dot_life":-1,"move_distance":1,"aperture_width":300,"aperture_height":300,"dot_color":["white","black","black","white","white","black","white","black","black","black","white","white","white","black","white","white","white","black","black","black","white","black","white","white","black","black","black","white","white","black","black","black","white","black","black","black","black","black","white","white","white","black","white","white","black","black","black","black","white","black","white","black","white","white","white","white","black","black","black","white","white","white","black","white","black","black","white","black","black","white","white","black","black","white","white","black","black","white","white","black","white","black","black","white","white","black","white","black","black","white","white","black","white","black","white","white","white","black","white","black","black","black","white","white","white","black","black","black","black","black","black","white","white","white","white","black","white","black","white","white","black","white","black","white","white","black","white","white","black","white","white","black","white","black","black","white","white","black","white","white","white","white","white","black","white","black","white","black","black","black","black","black","white","white","white","white","black","white","white","white","black","black","white","white","black","white","black","white","black","white","white","white","black","black","white","white","white","black","black","black","black","white","black","black","white","white","black","black","black","black","black","white","white","white","white","black","black","black","black","black"],"dot_shape":"circle","background_color":"#AAA","RDK_type":3,"aperture_type":2,"reinsert_type":2,"frame_rate":8.243697478991596,"frame_rate_array":[35,8,8,8,8,8,8,8,8,8,8,8,8,8,8,8,8,8,8,8,8,9,8,9,8,8,8,8,8,8,9,8,8,9,8,9,8,8,8,8,8,8,8,8,8,9,8,8,8,8,8,8,8,8,8,8,8,8,9,8,8,8,8,8,8,8,8,8,8,8,8,8,8,8,8,8,8,8,8,8,8,8,9,8,8,9,8,8,8,8,8,9,8,8,8,8,8,8,8,8,8,9,8,8,8,8,8,8,8,8,8,8,8,9,8,8,8,8,8,8,9,8,8,8,9,8,8,8,9,8,9,8,8,8,8,8,9,8,8,8,8,8,8,8,8,8,8,8,8,8,8,9,8,9,8,8,8,8,8,9,8,8,8,8,8,8,8,8,8,8,8,9,8,9,8,8,8,8,9,8,8,8,8,8,8,8,8,8,9,8,8,8,8,8,9,8,8,8,8,9,8,8,8,8,8,8,8,8,8,8,8,8,9,8,8,8,9,8,8,8,8,9,8,9,8,8,8,8,8,8,8,8,8,8,8,8,9,8],"number_of_frames":238,"aperture_center_x":768,"aperture_center_y":388,"fixation_cross":true,"fixation_cross_width":15,"fixation_cross_height":15,"fixation_cross_color":"#111","fixation_cross_thickness":1,"border":true,"border_thickness":2,"border_color":"transparent","canvas_width":1536,"canvas_height":776,"trial_type":"rdk","trial_index":88,"plugin_version":"2.0.0","time_elapsed":277590},{"rt":2876,"stimulus":"\n        <div class=\"response-container\">\n          <div class=\"response-instruction\">\n            <p>rotate the bar by using the left and right arrow keys.</p>\n            <p>when you are determined, press the Enter key.</p>\n          </div>\n          <div class=\"response-circle\">\n            <div class=\"response-fixation\"></div>\n            <div id=\"bar\" class=\"rotating-bar\"></div>\n          </div>\n        </div>\n      ","response":"Enter","trial_type":"html-keyboard-response","trial_index":89,"plugin_version":"2.1.0","time_elapsed":280467,"random_initial_angle":190,"response_angle_css":122,"response_angle_rdk":328,"angular_error_target":0,"angular_error_distractor":98,"target_direction":328,"target_group":"white","reward_points":10},{"rt":null,"stimulus":"\n          <p style=\"color: #00FF00;\">Your reward: 10 points</p>\n        ","response":null,"trial_type":"html-keyboard-response","trial_index":90,"plugin_version":"2.1.0","time_elapsed":282475},{"rt":null,"stimulus":"<div class=\"fixation\" style=\"font-size: 60px;\">+</div>","response":null,"trial_type":"html-keyboard-response","trial_index":91,"plugin_version":"2.1.0","time_elapsed":283492},{"target_group":"white","condition_label":"W_H_vs_B_L_rep10","target_direction":330,"distractor_direction":232,"session_rotation":313,"rt":-1,"response":"","correct":false,"choices":"ALL_KEYS","correct_choice":["a"],"trial_duration":2000,"flip_timestamps":[],"response_ends_trial":false,"number_of_apertures":200,"number_of_dots":[1,1,1,1,1,1,1,1,1,1,1,1,1,1,1,1,1,1,1,1,1,1,1,1,1,1,1,1,1,1,1,1,1,1,1,1,1,1,1,1,1,1,1,1,1,1,1,1,1,1,1,1,1,1,1,1,1,1,1,1,1,1,1,1,1,1,1,1,1,1,1,1,1,1,1,1,1,1,1,1,1,1,1,1,1,1,1,1,1,1,1,1,1,1,1,1,1,1,1,1,1,1,1,1,1,1,1,1,1,1,1,1,1,1,1,1,1,1,1,1,1,1,1,1,1,1,1,1,1,1,1,1,1,1,1,1,1,1,1,1,1,1,1,1,1,1,1,1,1,1,1,1,1,1,1,1,1,1,1,1,1,1,1,1,1,1,1,1,1,1,1,1,1,1,1,1,1,1,1,1,1,1,1,1,1,1,1,1,1,1,1,1,1,1,1,1,1,1,1,1],"number_of_sets":1,"coherent_direction":[232,330,232,232,232,330,232,232,232,330,232,330,232,232,232,330,232,330,330,232,232,330,330,232,330,232,330,232,232,232,330,232,330,232,330,232,330,330,232,330,330,232,232,330,232,232,330,330,232,232,232,330,330,232,232,330,232,330,330,232,330,232,330,330,330,232,232,330,232,330,232,330,232,330,232,330,232,330,330,330,232,232,330,330,330,330,330,330,330,232,330,232,330,330,232,232,232,330,232,232,330,330,232,232,330,232,232,330,330,330,232,330,232,232,232,330,232,330,232,330,232,330,330,330,232,330,330,232,232,330,232,330,232,232,232,330,232,232,232,232,330,232,232,232,232,232,330,330,232,232,330,232,330,232,232,232,232,330,330,330,330,330,232,330,330,330,330,232,330,330,330,232,232,330,330,330,232,330,330,330,330,330,330,232,232,330,232,232,232,232,330,232,330,232,330,232,330,330,232,330],"coherence":1,"opposite_coherence":0,"dot_radius":2,"dot_side_length":1,"dot_life":-1,"move_distance":1,"aperture_width":300,"aperture_height":300,"dot_color":["black","white","black","black","black","white","black","black","black","white","black","white","black","black","black","white","black","white","white","black","black","white","white","black","white","black","white","black","black","black","white","black","white","black","white","black","white","white","black","white","white","black","black","white","black","black","white","white","black","black","black","white","white","black","black","white","black","white","white","black","white","black","white","white","white","black","black","white","black","white","black","white","black","white","black","white","black","white","white","white","black","black","white","white","white","white","white","white","white","black","white","black","white","white","black","black","black","white","black","black","white","white","black","black","white","black","black","white","white","white","black","white","black","black","black","white","black","white","black","white","black","white","white","white","black","white","white","black","black","white","black","white","black","black","black","white","black","black","black","black","white","black","black","black","black","black","white","white","black","black","white","black","white","black","black","black","black","white","white","white","white","white","black","white","white","white","white","black","white","white","white","black","black","white","white","white","black","white","white","white","white","white","white","black","black","white","black","black","black","black","white","black","white","black","white","black","white","white","black","white"],"dot_shape":"circle","background_color":"#AAA","RDK_type":3,"aperture_type":2,"reinsert_type":2,"frame_rate":8.239495798319327,"frame_rate_array":[34,9,8,8,8,8,8,9,8,8,9,8,8,8,8,8,8,8,8,8,8,8,8,8,8,8,9,8,8,9,8,8,8,8,8,8,8,8,8,8,8,8,8,8,8,9,8,9,8,8,8,9,8,8,8,8,8,9,8,8,8,8,8,8,8,8,8,8,8,8,8,8,8,8,8,8,8,8,9,8,8,8,8,8,8,8,9,8,8,9,8,8,8,8,8,8,8,8,8,8,8,9,8,8,8,8,8,9,8,9,8,8,8,8,8,8,9,8,8,8,8,8,8,8,8,8,8,8,8,8,8,8,8,8,8,8,8,8,8,8,8,8,9,8,8,8,8,8,9,8,8,8,8,9,8,8,8,8,8,8,8,8,9,8,8,9,8,9,8,8,8,8,8,8,8,8,8,8,8,8,8,9,8,8,8,8,9,8,8,9,8,8,8,8,8,9,8,8,9,8,8,8,9,8,8,8,8,8,8,8,8,8,8,8,8,8,8,8,8,9,8,8,8,8,9,8,8,8,8,8,8,8,8,8,8,9,8,8],"number_of_frames":238,"aperture_center_x":768,"aperture_center_y":388,"fixation_cross":true,"fixation_cross_width":15,"fixation_cross_height":15,"fixation_cross_color":"#111","fixation_cross_thickness":1,"border":true,"border_thickness":2,"border_color":"transparent","canvas_width":1536,"canvas_height":776,"trial_type":"rdk","trial_index":92,"plugin_version":"2.0.0","time_elapsed":285501},{"rt":3746,"stimulus":"\n        <div class=\"response-container\">\n          <div class=\"response-instruction\">\n            <p>rotate the bar by using the left and right arrow keys.</p>\n            <p>when you are determined, press the Enter key.</p>\n          </div>\n          <div class=\"response-circle\">\n            <div class=\"response-fixation\"></div>\n            <div id=\"bar\" class=\"rotating-bar\"></div>\n          </div>\n        </div>\n      ","response":"Enter","trial_type":"html-keyboard-response","trial_index":93,"plugin_version":"2.1.0","time_elapsed":289247,"random_initial_angle":255,"response_angle_css":126,"response_angle_rdk":324,"angular_error_target":-6,"angular_error_distractor":92,"target_direction":330,"target_group":"white","reward_points":8},{"rt":null,"stimulus":"\n          <p style=\"color: #00FF00;\">Your reward: 8 points</p>\n        ","response":null,"trial_type":"html-keyboard-response","trial_index":94,"plugin_version":"2.1.0","time_elapsed":291253},{"rt":null,"stimulus":"<div class=\"fixation\" style=\"font-size: 60px;\">+</div>","response":null,"trial_type":"html-keyboard-response","trial_index":95,"plugin_version":"2.1.0","time_elapsed":292254},{"target_group":"black","condition_label":"B_H_vs_W_L_rep22","target_direction":43,"distractor_direction":142,"session_rotation":313,"rt":-1,"response":"","correct":false,"choices":"ALL_KEYS","correct_choice":["a"],"trial_duration":2000,"flip_timestamps":[],"response_ends_trial":false,"number_of_apertures":200,"number_of_dots":[1,1,1,1,1,1,1,1,1,1,1,1,1,1,1,1,1,1,1,1,1,1,1,1,1,1,1,1,1,1,1,1,1,1,1,1,1,1,1,1,1,1,1,1,1,1,1,1,1,1,1,1,1,1,1,1,1,1,1,1,1,1,1,1,1,1,1,1,1,1,1,1,1,1,1,1,1,1,1,1,1,1,1,1,1,1,1,1,1,1,1,1,1,1,1,1,1,1,1,1,1,1,1,1,1,1,1,1,1,1,1,1,1,1,1,1,1,1,1,1,1,1,1,1,1,1,1,1,1,1,1,1,1,1,1,1,1,1,1,1,1,1,1,1,1,1,1,1,1,1,1,1,1,1,1,1,1,1,1,1,1,1,1,1,1,1,1,1,1,1,1,1,1,1,1,1,1,1,1,1,1,1,1,1,1,1,1,1,1,1,1,1,1,1,1,1,1,1,1,1],"number_of_sets":1,"coherent_direction":[43,142,142,142,142,142,142,43,142,43,142,43,43,43,43,142,142,43,43,43,43,43,43,43,142,43,142,142,43,142,43,142,142,43,142,142,142,142,142,43,142,142,43,43,142,142,142,142,43,43,142,43,43,142,43,43,142,142,43,142,142,43,43,142,142,142,43,43,43,142,43,43,142,43,43,142,142,142,142,142,43,43,43,43,43,142,43,43,43,43,142,43,142,43,43,142,43,142,142,43,142,43,142,43,43,142,142,43,142,142,142,142,142,142,43,43,43,142,43,43,142,43,43,43,142,142,142,43,142,142,142,43,142,43,43,142,43,43,142,142,43,43,142,43,142,142,142,142,43,43,43,43,142,43,142,142,142,43,142,43,142,142,142,43,142,43,142,43,43,142,142,142,142,142,142,43,43,43,43,142,43,43,43,142,43,43,43,142,142,43,43,142,43,43,43,142,43,142,142,43],"coherence":1,"opposite_coherence":0,"dot_radius":2,"dot_side_length":1,"dot_life":-1,"move_distance":1,"aperture_width":300,"aperture_height":300,"dot_color":["black","white","white","white","white","white","white","black","white","black","white","black","black","black","black","white","white","black","black","black","black","black","black","black","white","black","white","white","black","white","black","white","white","black","white","white","white","white","white","black","white","white","black","black","white","white","white","white","black","black","white","black","black","white","black","black","white","white","black","white","white","black","black","white","white","white","black","black","black","white","black","black","white","black","black","white","white","white","white","white","black","black","black","black","black","white","black","black","black","black","white","black","white","black","black","white","black","white","white","black","white","black","white","black","black","white","white","black","white","white","white","white","white","white","black","black","black","white","black","black","white","black","black","black","white","white","white","black","white","white","white","black","white","black","black","white","black","black","white","white","black","black","white","black","white","white","white","white","black","black","black","black","white","black","white","white","white","black","white","black","white","white","white","black","white","black","white","black","black","white","white","white","white","white","white","black","black","black","black","white","black","black","black","white","black","black","black","white","white","black","black","white","black","black","black","white","black","white","white","black"],"dot_shape":"circle","background_color":"#AAA","RDK_type":3,"aperture_type":2,"reinsert_type":2,"frame_rate":8.253164556962025,"frame_rate_array":[41,8,8,8,8,8,8,8,8,8,8,8,8,8,8,8,8,8,8,8,8,8,8,9,8,8,8,8,8,9,8,8,8,9,8,8,8,8,8,8,8,8,8,9,8,8,8,8,8,8,8,8,8,8,8,8,8,9,8,8,9,8,8,8,8,8,8,8,8,8,8,8,9,8,8,8,9,8,8,9,8,8,8,8,8,8,8,8,8,9,8,8,8,8,8,8,8,8,8,8,8,8,8,8,9,8,8,8,8,8,8,8,8,8,8,9,8,8,9,8,8,9,8,8,8,8,8,8,8,8,8,8,8,8,9,8,8,8,8,9,8,8,8,8,8,8,8,8,8,8,8,9,8,9,8,8,8,8,8,8,8,8,8,8,8,8,8,8,8,8,8,9,8,8,8,8,9,8,8,8,8,8,8,8,8,9,8,8,9,8,8,8,9,8,8,8,8,8,8,8,8,8,8,8,8,8,9,8,8,8,8,8,8,8,8,8,8,8,9,8,8,8,8,8,8,9,8,8,9,8,8,8,8,8,8,8,8],"number_of_frames":237,"aperture_center_x":768,"aperture_center_y":388,"fixation_cross":true,"fixation_cross_width":15,"fixation_cross_height":15,"fixation_cross_color":"#111","fixation_cross_thickness":1,"border":true,"border_thickness":2,"border_color":"transparent","canvas_width":1536,"canvas_height":776,"trial_type":"rdk","trial_index":96,"plugin_version":"2.0.0","time_elapsed":294261},{"rt":1150,"stimulus":"\n        <div class=\"response-container\">\n          <div class=\"response-instruction\">\n            <p>rotate the bar by using the left and right arrow keys.</p>\n            <p>when you are determined, press the Enter key.</p>\n          </div>\n          <div class=\"response-circle\">\n            <div class=\"response-fixation\"></div>\n            <div id=\"bar\" class=\"rotating-bar\"></div>\n          </div>\n        </div>\n      ","response":"Enter","trial_type":"html-keyboard-response","trial_index":97,"plugin_version":"2.1.0","time_elapsed":295411,"random_initial_angle":319,"response_angle_css":303,"response_angle_rdk":147,"angular_error_target":104,"angular_error_distractor":5,"target_direction":43,"target_group":"black","reward_points":0},{"rt":null,"stimulus":"\n          <p style=\"color: #FF3333;\">Your reward: 0 points</p>\n        ","response":null,"trial_type":"html-keyboard-response","trial_index":98,"plugin_version":"2.1.0","time_elapsed":297425},{"rt":null,"stimulus":"<div class=\"fixation\" style=\"font-size: 60px;\">+</div>","response":null,"trial_type":"html-keyboard-response","trial_index":99,"plugin_version":"2.1.0","time_elapsed":298441},{"target_group":"white","condition_label":"W_H_vs_B_L_rep11","target_direction":356,"distractor_direction":256,"session_rotation":313,"rt":-1,"response":"","correct":false,"choices":"ALL_KEYS","correct_choice":["a"],"trial_duration":2000,"flip_timestamps":[],"response_ends_trial":false,"number_of_apertures":200,"number_of_dots":[1,1,1,1,1,1,1,1,1,1,1,1,1,1,1,1,1,1,1,1,1,1,1,1,1,1,1,1,1,1,1,1,1,1,1,1,1,1,1,1,1,1,1,1,1,1,1,1,1,1,1,1,1,1,1,1,1,1,1,1,1,1,1,1,1,1,1,1,1,1,1,1,1,1,1,1,1,1,1,1,1,1,1,1,1,1,1,1,1,1,1,1,1,1,1,1,1,1,1,1,1,1,1,1,1,1,1,1,1,1,1,1,1,1,1,1,1,1,1,1,1,1,1,1,1,1,1,1,1,1,1,1,1,1,1,1,1,1,1,1,1,1,1,1,1,1,1,1,1,1,1,1,1,1,1,1,1,1,1,1,1,1,1,1,1,1,1,1,1,1,1,1,1,1,1,1,1,1,1,1,1,1,1,1,1,1,1,1,1,1,1,1,1,1,1,1,1,1,1,1],"number_of_sets":1,"coherent_direction":[356,356,256,356,256,256,256,356,256,256,356,356,256,256,256,256,356,256,256,256,356,356,356,256,356,356,256,356,256,256,256,356,256,356,356,256,256,256,356,356,356,256,256,356,256,356,356,256,356,356,256,356,256,256,256,256,356,356,356,356,356,256,356,356,256,256,356,356,356,356,256,256,256,256,356,256,356,356,256,356,256,356,356,256,356,356,256,356,356,256,256,256,256,356,356,356,356,356,256,356,256,356,356,356,256,256,256,356,356,256,356,256,256,356,256,256,256,356,256,256,356,256,256,256,356,256,356,256,256,356,256,256,356,256,356,256,256,356,356,256,356,256,356,256,256,356,356,256,256,356,256,256,356,356,356,256,256,256,256,256,256,256,356,256,256,356,356,356,356,256,356,356,356,256,356,356,356,356,356,256,256,356,356,256,356,256,356,356,356,256,356,356,356,356,256,256,356,256,256,256],"coherence":1,"opposite_coherence":0,"dot_radius":2,"dot_side_length":1,"dot_life":-1,"move_distance":1,"aperture_width":300,"aperture_height":300,"dot_color":["white","white","black","white","black","black","black","white","black","black","white","white","black","black","black","black","white","black","black","black","white","white","white","black","white","white","black","white","black","black","black","white","black","white","white","black","black","black","white","white","white","black","black","white","black","white","white","black","white","white","black","white","black","black","black","black","white","white","white","white","white","black","white","white","black","black","white","white","white","white","black","black","black","black","white","black","white","white","black","white","black","white","white","black","white","white","black","white","white","black","black","black","black","white","white","white","white","white","black","white","black","white","white","white","black","black","black","white","white","black","white","black","black","white","black","black","black","white","black","black","white","black","black","black","white","black","white","black","black","white","black","black","white","black","white","black","black","white","white","black","white","black","white","black","black","white","white","black","black","white","black","black","white","white","white","black","black","black","black","black","black","black","white","black","black","white","white","white","white","black","white","white","white","black","white","white","white","white","white","black","black","white","white","black","white","black","white","white","white","black","white","white","white","white","black","black","white","black","black","black"],"dot_shape":"circle","background_color":"#AAA","RDK_type":3,"aperture_type":2,"reinsert_type":2,"frame_rate":8.210084033613445,"frame_rate_array":[35,8,8,8,8,8,8,8,8,8,8,8,8,8,8,8,8,8,8,8,8,8,9,9,8,8,9,8,8,8,8,8,8,8,8,8,8,8,8,8,8,8,8,8,8,8,8,8,8,9,9,8,8,9,8,8,8,8,9,8,8,8,8,8,9,8,8,8,8,8,8,8,8,8,8,8,8,8,8,8,8,8,8,8,8,8,8,8,8,8,8,8,8,9,8,8,8,8,8,8,8,8,8,9,8,8,8,8,8,8,8,8,9,8,8,8,8,8,8,8,8,8,8,8,8,8,9,8,8,9,8,8,8,8,8,8,8,8,8,8,8,8,8,8,8,8,8,8,8,8,9,8,8,9,8,8,8,8,8,8,8,8,8,8,8,8,8,8,8,9,8,9,8,8,8,8,8,9,8,8,8,8,8,8,8,8,8,8,8,8,9,8,8,8,8,8,8,8,8,8,8,8,8,8,8,8,8,8,8,9,8,8,8,9,8,8,8,8,9,8,8,8,8,8,8,8,8,9,8,8,8,8,8,8,8,8,8,8],"number_of_frames":238,"aperture_center_x":768,"aperture_center_y":388,"fixation_cross":true,"fixation_cross_width":15,"fixation_cross_height":15,"fixation_cross_color":"#111","fixation_cross_thickness":1,"border":true,"border_thickness":2,"border_color":"transparent","canvas_width":1536,"canvas_height":776,"trial_type":"rdk","trial_index":100,"plugin_version":"2.0.0","time_elapsed":300450},{"rt":3803,"stimulus":"\n        <div class=\"response-container\">\n          <div class=\"response-instruction\">\n            <p>rotate the bar by using the left and right arrow keys.</p>\n            <p>when you are determined, press the Enter key.</p>\n          </div>\n          <div class=\"response-circle\">\n            <div class=\"response-fixation\"></div>\n            <div id=\"bar\" class=\"rotating-bar\"></div>\n          </div>\n        </div>\n      ","response":"Enter","trial_type":"html-keyboard-response","trial_index":101,"plugin_version":"2.1.0","time_elapsed":304253,"random_initial_angle":291,"response_angle_css":480,"response_angle_rdk":330,"angular_error_target":-26,"angular_error_distractor":74,"target_direction":356,"target_group":"white","reward_points":4},{"rt":null,"stimulus":"\n          <p style=\"color: #00FF00;\">Your reward: 4 points</p>\n        ","response":null,"trial_type":"html-keyboard-response","trial_index":102,"plugin_version":"2.1.0","time_elapsed":306269},{"rt":null,"stimulus":"<div class=\"fixation\" style=\"font-size: 60px;\">+</div>","response":null,"trial_type":"html-keyboard-response","trial_index":103,"plugin_version":"2.1.0","time_elapsed":307286},{"target_group":"black","condition_label":"B_H_vs_W_L_rep6","target_direction":63,"distractor_direction":174,"session_rotation":313,"rt":-1,"response":"","correct":false,"choices":"ALL_KEYS","correct_choice":["a"],"trial_duration":2000,"flip_timestamps":[],"response_ends_trial":false,"number_of_apertures":200,"number_of_dots":[1,1,1,1,1,1,1,1,1,1,1,1,1,1,1,1,1,1,1,1,1,1,1,1,1,1,1,1,1,1,1,1,1,1,1,1,1,1,1,1,1,1,1,1,1,1,1,1,1,1,1,1,1,1,1,1,1,1,1,1,1,1,1,1,1,1,1,1,1,1,1,1,1,1,1,1,1,1,1,1,1,1,1,1,1,1,1,1,1,1,1,1,1,1,1,1,1,1,1,1,1,1,1,1,1,1,1,1,1,1,1,1,1,1,1,1,1,1,1,1,1,1,1,1,1,1,1,1,1,1,1,1,1,1,1,1,1,1,1,1,1,1,1,1,1,1,1,1,1,1,1,1,1,1,1,1,1,1,1,1,1,1,1,1,1,1,1,1,1,1,1,1,1,1,1,1,1,1,1,1,1,1,1,1,1,1,1,1,1,1,1,1,1,1,1,1,1,1,1,1],"number_of_sets":1,"coherent_direction":[63,174,174,174,174,63,174,174,63,174,63,63,174,63,174,63,63,174,63,63,174,174,174,174,174,174,174,174,174,174,174,63,174,63,174,63,174,63,174,174,63,63,63,174,174,63,63,63,174,63,174,174,63,174,174,174,174,63,63,63,174,174,174,63,63,174,174,63,174,63,174,174,174,174,63,174,174,174,174,63,174,174,63,174,63,63,63,63,63,174,63,63,63,174,174,63,174,63,174,174,174,174,63,174,63,63,63,63,63,174,63,174,63,174,63,174,63,63,63,63,63,63,63,63,63,174,174,63,63,63,63,63,174,174,174,63,63,174,174,63,63,63,174,174,63,63,63,174,63,174,174,63,63,174,174,174,174,174,63,63,174,63,63,174,174,63,63,63,174,63,174,174,174,174,63,63,63,174,63,174,63,63,174,174,174,63,174,174,63,174,63,174,63,63,174,63,63,63,63,63],"coherence":1,"opposite_coherence":0,"dot_radius":2,"dot_side_length":1,"dot_life":-1,"move_distance":1,"aperture_width":300,"aperture_height":300,"dot_color":["black","white","white","white","white","black","white","white","black","white","black","black","white","black","white","black","black","white","black","black","white","white","white","white","white","white","white","white","white","white","white","black","white","black","white","black","white","black","white","white","black","black","black","white","white","black","black","black","white","black","white","white","black","white","white","white","white","black","black","black","white","white","white","black","black","white","white","black","white","black","white","white","white","white","black","white","white","white","white","black","white","white","black","white","black","black","black","black","black","white","black","black","black","white","white","black","white","black","white","white","white","white","black","white","black","black","black","black","black","white","black","white","black","white","black","white","black","black","black","black","black","black","black","black","black","white","white","black","black","black","black","black","white","white","white","black","black","white","white","black","black","black","white","white","black","black","black","white","black","white","white","black","black","white","white","white","white","white","black","black","white","black","black","white","white","black","black","black