[{"rt":2878,"stimulus":"Welcome to the experiment. Press any key to begin.","response":"F11","trial_type":"html-keyboard-response","trial_index":0,"plugin_version":"2.1.0","time_elapsed":2887},{"rt":76352,"stimulus":"\n        <div class=\"instructions-container\">\n          <h2>Instructions</h2>\n\n          <p>\n          In this experiment, you will see <strong>two Random Dot Kinematograms (RDKs)</strong> displayed simultaneously.\n          </p>\n\n          <p>\n          An RDK is a visual stimulus consisting of many small dots that move coherently in a single direction. \n          In this experiment, the dots will be either <strong>white</strong> or <strong>black</strong> \n          (see the short demo below for an example of an RDK stimulus).\n          </p>\n\n          <p>\n          On each trial, the two RDKs will move in different directions. \n          Your task is to decide <strong>which RDK appears to contain more dots</strong>.\n          </p>\n\n          <p>\n          The RDK that you judge to have more dots is called the <strong>target RDK</strong>. \n          For example, if the white RDK appears to have more dots than the black RDK, \n          you should report the motion direction of the white RDK.\n          </p>\n\n          <p>\n          After viewing the RDKs, you will rotate a bar to indicate the perceived direction of the target RDK \n          using the <strong>left</strong> and <strong>right arrow keys</strong>. \n          Press <strong>Enter</strong> when you are satisfied with your response.\n          </p>\n\n          <p>\n          You will receive points based on the <strong>accuracy of your response</strong>, \n          and your final <strong>bonus reward</strong> may depend on your overall performance. \n          Please try to respond as accurately as possible.\n          </p>\n\n          <p>\n          You will first complete <strong>three practice trials</strong>. \n          Press the <strong>Enter</strong> key to start the practice phase.\n          </p>\n\n          <canvas id=\"instruction-demo-rdk\" width=\"300\" height=\"300\"style=\"display:block;margin:12px auto; border-radius: 50%;\"></canvas>\n        </div>\n      ","response":"Enter","trial_type":"html-keyboard-response","trial_index":1,"plugin_version":"2.1.0","time_elapsed":79241},{"rt":null,"stimulus":"<div class=\"fixation\" style=\"font-size: 60px;\">+</div>","response":null,"trial_type":"html-keyboard-response","trial_index":2,"plugin_version":"2.1.0","time_elapsed":80254},{"target_group":"black","target_index":1,"condition_label":"B_H_vs_W_L","rt":-1,"response":"","correct":false,"choices":"ALL_KEYS","correct_choice":["a"],"trial_duration":2000,"flip_timestamps":[],"response_ends_trial":false,"number_of_apertures":2,"number_of_dots":[50,100],"number_of_sets":1,"coherent_direction":[10,100],"coherence":1,"opposite_coherence":0,"dot_radius":2,"dot_side_length":1,"dot_life":-1,"move_distance":1,"aperture_width":300,"aperture_height":300,"dot_color":["white","black"],"dot_shape":"circle","background_color":"#AAA","RDK_type":3,"aperture_type":2,"reinsert_type":2,"frame_rate":16.949579831932773,"frame_rate_array":[22,2,31,15,17,17,16,17,17,16,17,17,17,17,17,17,17,17,17,17,17,17,17,17,17,17,17,17,17,17,17,17,17,17,17,17,17,17,17,17,17,17,17,18,16,17,17,17,17,17,17,17,17,17,17,17,17,17,17,17,16,17,17,17,17,17,17,17,17,17,17,17,17,17,17,17,17,17,17,16,17,17,17,17,17,18,15,17,16,17,17,17,17,17,17,17,17,17,17,17,17,16,17,16,17,17,17,17,17,17,17,17,17,17,17,17,17,17,17],"number_of_frames":119,"aperture_center_x":683,"aperture_center_y":384,"fixation_cross":true,"fixation_cross_width":15,"fixation_cross_height":15,"fixation_cross_color":"#111","fixation_cross_thickness":1,"border":true,"border_thickness":2,"border_color":"transparent","canvas_width":1366,"canvas_height":768,"trial_type":"rdk","trial_index":3,"plugin_version":"2.0.0","time_elapsed":82271,"target_direction":100,"distractor_direction":10},{"rt":7941,"stimulus":"\n        <div class=\"response-container\">\n          <div class=\"response-instruction\">\n            <p>rotate the bar by using the left and right arrow keys.</p>\n            <p>when you are determined, press the Enter key.</p>\n          </div>\n          <div class=\"response-circle\">\n            <div class=\"response-fixation\"></div>\n            <div id=\"bar\" class=\"rotating-bar\"></div>\n          </div>\n        </div>\n      ","response":"Enter","trial_type":"html-keyboard-response","trial_index":4,"plugin_version":"2.1.0","time_elapsed":90215,"response_angle_css":326,"response_angle_rdk":124,"angular_error_target":24,"angular_error_distractor":114,"target_direction":100,"target_group":"black","reward_points":5},{"rt":null,"stimulus":"\n          <p style=\"color: #00FF00;\">Your reward: 5 points</p>\n        ","response":null,"trial_type":"html-keyboard-response","trial_index":5,"plugin_version":"2.1.0","time_elapsed":92227},{"rt":null,"stimulus":"<div class=\"fixation\" style=\"font-size: 60px;\">+</div>","response":null,"trial_type":"html-keyboard-response","trial_index":6,"plugin_version":"2.1.0","time_elapsed":93243},{"target_group":"white","target_index":0,"condition_label":"W_H_vs_B_L","rt":-1,"response":"","correct":false,"choices":"ALL_KEYS","correct_choice":["a"],"trial_duration":2000,"flip_timestamps":[],"response_ends_trial":false,"number_of_apertures":2,"number_of_dots":[100,50],"number_of_sets":1,"coherent_direction":[150,30],"coherence":1,"opposite_coherence":0,"dot_radius":2,"dot_side_length":1,"dot_life":-1,"move_distance":1,"aperture_width":300,"aperture_height":300,"dot_color":["white","black"],"dot_shape":"circle","background_color":"#AAA","RDK_type":3,"aperture_type":2,"reinsert_type":2,"frame_rate":16.974789915966387,"frame_rate_array":[20,16,17,16,17,17,17,17,17,17,17,17,17,17,17,17,17,17,17,17,17,17,17,17,17,16,17,17,17,17,17,17,17,17,17,17,17,17,17,17,17,17,17,17,17,17,17,17,16,17,17,17,17,17,17,17,17,17,17,17,17,17,17,17,17,17,17,17,17,17,17,17,17,17,17,17,17,17,17,17,17,17,17,17,17,17,17,16,17,17,17,17,17,17,17,17,17,17,17,17,17,17,17,17,17,17,17,17,16,17,17,17,17,17,17,17,17,17,17],"number_of_frames":119,"aperture_center_x":683,"aperture_center_y":384,"fixation_cross":true,"fixation_cross_width":15,"fixation_cross_height":15,"fixation_cross_color":"#111","fixation_cross_thickness":1,"border":true,"border_thickness":2,"border_color":"transparent","canvas_width":1366,"canvas_height":768,"trial_type":"rdk","trial_index":7,"plugin_version":"2.0.0","time_elapsed":95255,"target_direction":150,"distractor_direction":30},{"rt":3674,"stimulus":"\n        <div class=\"response-container\">\n          <div class=\"response-instruction\">\n            <p>rotate the bar by using the left and right arrow keys.</p>\n            <p>when you are determined, press the Enter key.</p>\n          </div>\n          <div class=\"response-circle\">\n            <div class=\"response-fixation\"></div>\n            <div id=\"bar\" class=\"rotating-bar\"></div>\n          </div>\n        </div>\n      ","response":"Enter","trial_type":"html-keyboard-response","trial_index":8,"plugin_version":"2.1.0","time_elapsed":98932,"response_angle_css":295,"response_angle_rdk":155,"angular_error_target":5,"angular_error_distractor":125,"target_direction":150,"target_group":"white","reward_points":9},{"rt":null,"stimulus":"\n          <p style=\"color: #00FF00;\">Your reward: 9 points</p>\n        ","response":null,"trial_type":"html-keyboard-response","trial_index":9,"plugin_version":"2.1.0","time_elapsed":100946},{"rt":null,"stimulus":"<div class=\"fixation\" style=\"font-size: 60px;\">+</div>","response":null,"trial_type":"html-keyboard-response","trial_index":10,"plugin_version":"2.1.0","time_elapsed":101954},{"target_group":"black","target_index":1,"condition_label":"B_H_vs_W_L","rt":-1,"response":"","correct":false,"choices":"ALL_KEYS","correct_choice":["a"],"trial_duration":2000,"flip_timestamps":[],"response_ends_trial":false,"number_of_apertures":2,"number_of_dots":[50,100],"number_of_sets":1,"coherent_direction":[270,180],"coherence":1,"opposite_coherence":0,"dot_radius":2,"dot_side_length":1,"dot_life":-1,"move_distance":1,"aperture_width":300,"aperture_height":300,"dot_color":["white","black"],"dot_shape":"circle","background_color":"#AAA","RDK_type":3,"aperture_type":2,"reinsert_type":2,"frame_rate":16.933333333333334,"frame_rate_array":[14,17,17,17,17,16,17,16,17,17,17,17,18,16,17,17,16,17,17,17,17,17,17,17,17,17,17,17,16,17,17,17,17,17,17,17,17,17,17,17,17,17,17,17,17,17,17,17,17,17,17,17,17,17,17,17,17,16,17,17,17,17,17,17,17,17,17,17,17,17,17,17,17,17,17,17,17,17,17,17,17,17,17,17,18,16,17,17,17,17,17,17,17,17,17,17,17,17,17,17,17,17,17,17,17,17,17,17,17,17,17,17,17,17,17,17,17,17,17,17],"number_of_frames":120,"aperture_center_x":683,"aperture_center_y":384,"fixation_cross":true,"fixation_cross_width":15,"fixation_cross_height":15,"fixation_cross_color":"#111","fixation_cross_thickness":1,"border":true,"border_thickness":2,"border_color":"transparent","canvas_width":1366,"canvas_height":768,"trial_type":"rdk","trial_index":11,"plugin_version":"2.0.0","time_elapsed":103962,"target_direction":180,"distractor_direction":270},{"rt":3711,"stimulus":"\n        <div class=\"response-container\">\n          <div class=\"response-instruction\">\n            <p>rotate the bar by using the left and right arrow keys.</p>\n            <p>when you are determined, press the Enter key.</p>\n          </div>\n          <div class=\"response-circle\">\n            <div class=\"response-fixation\"></div>\n            <div id=\"bar\" class=\"rotating-bar\"></div>\n          </div>\n        </div>\n      ","response":"Enter","trial_type":"html-keyboard-response","trial_index":12,"plugin_version":"2.1.0","time_elapsed":107675,"response_angle_css":269,"response_angle_rdk":181,"angular_error_target":1,"angular_error_distractor":-89,"target_direction":180,"target_group":"black","reward_points":9},{"rt":null,"stimulus":"\n          <p style=\"color: #00FF00;\">Your reward: 9 points</p>\n        ","response":null,"trial_type":"html-keyboard-response","trial_index":13,"plugin_version":"2.1.0","time_elapsed":109689},{"rt":2642,"stimulus":"\n        <div class=\"instructions-container\">\n          <h2>End of Practice</h2>\n          <p>You have completed the practice trials.</p>\n          <p>Press <strong>Enter</strong> key to begin the main experiment.</p>\n        </div>\n      ","response":"Enter","trial_type":"html-keyboard-response","trial_index":14,"plugin_version":"2.1.0","time_elapsed":112332},{"rt":null,"stimulus":"<div class=\"fixation\" style=\"font-size: 60px;\">+</div>","response":null,"trial_type":"html-keyboard-response","trial_index":15,"plugin_version":"2.1.0","time_elapsed":113339},{"target_group":"white","condition_label":"W_H_vs_B_L_rep11","target_direction":120,"distractor_direction":26,"session_rotation":109,"rt":-1,"response":"","correct":false,"choices":"ALL_KEYS","correct_choice":["a"],"trial_duration":2000,"flip_timestamps":[],"response_ends_trial":false,"number_of_apertures":200,"number_of_dots":[1,1,1,1,1,1,1,1,1,1,1,1,1,1,1,1,1,1,1,1,1,1,1,1,1,1,1,1,1,1,1,1,1,1,1,1,1,1,1,1,1,1,1,1,1,1,1,1,1,1,1,1,1,1,1,1,1,1,1,1,1,1,1,1,1,1,1,1,1,1,1,1,1,1,1,1,1,1,1,1,1,1,1,1,1,1,1,1,1,1,1,1,1,1,1,1,1,1,1,1,1,1,1,1,1,1,1,1,1,1,1,1,1,1,1,1,1,1,1,1,1,1,1,1,1,1,1,1,1,1,1,1,1,1,1,1,1,1,1,1,1,1,1,1,1,1,1,1,1,1,1,1,1,1,1,1,1,1,1,1,1,1,1,1,1,1,1,1,1,1,1,1,1,1,1,1,1,1,1,1,1,1,1,1,1,1,1,1,1,1,1,1,1,1,1,1,1,1,1,1],"number_of_sets":1,"coherent_direction":[26,120,26,120,120,26,120,26,26,120,26,26,120,120,120,26,120,26,26,26,120,26,120,120,120,120,26,120,26,120,120,26,26,120,120,26,120,26,120,120,26,26,26,26,26,120,120,26,26,26,120,120,120,26,120,26,26,26,26,120,26,120,120,26,26,120,26,26,120,26,120,26,26,120,120,120,26,120,120,120,26,26,120,120,120,26,26,120,120,26,120,26,120,26,26,26,120,26,120,120,26,26,26,120,120,26,26,26,120,120,120,120,26,26,120,26,120,120,120,120,26,120,120,26,26,120,120,120,120,120,26,26,26,120,26,120,26,26,26,26,26,120,120,26,120,120,26,120,120,120,26,120,26,26,120,120,120,120,26,26,26,26,26,120,120,26,120,26,120,26,26,120,26,120,26,120,26,120,120,26,120,120,120,120,120,26,26,26,26,26,120,120,26,26,26,26,120,26,26,120],"coherence":1,"opposite_coherence":0,"dot_radius":2,"dot_side_length":1,"dot_life":-1,"move_distance":1,"aperture_width":300,"aperture_height":300,"dot_color":["black","white","black","white","white","black","white","black","black","white","black","black","white","white","white","black","white","black","black","black","white","black","white","white","white","white","black","white","black","white","white","black","black","white","white","black","white","black","white","white","black","black","black","black","black","white","white","black","black","black","white","white","white","black","white","black","black","black","black","white","black","white","white","black","black","white","black","black","white","black","white","black","black","white","white","white","black","white","white","white","black","black","white","white","white","black","black","white","white","black","white","black","white","black","black","black","white","black","white","white","black","black","black","white","white","black","black","black","white","white","white","white","black","black","white","black","white","white","white","white","black","white","white","black","black","white","white","white","white","white","black","black","black","white","black","white","black","black","black","black","black","white","white","black","white","white","black","white","white","white","black","white","black","black","white","white","white","white","black","black","black","black","black","white","white","black","white","black","white","black","black","white","black","white","black","white","black","white","white","black","white","white","white","white","white","black","black","black","black","black","white","white","black","black","black","black","white","black","black","white"],"dot_shape":"circle","background_color":"#AAA","RDK_type":3,"aperture_type":2,"reinsert_type":2,"frame_rate":16.7,"frame_rate_array":[6,16,19,14,17,17,16,17,17,16,17,17,17,16,17,17,17,17,17,17,17,17,17,17,17,17,16,17,17,16,17,17,16,17,17,16,17,16,17,17,17,17,17,16,18,16,17,17,17,17,17,16,17,17,17,17,17,16,17,17,17,17,17,17,17,17,16,17,17,17,17,16,17,16,17,17,17,16,17,17,17,17,17,17,17,17,17,17,16,17,17,17,17,17,17,17,17,17,16,17,17,16,17,17,17,16,16,17,16,17,16,17,17,17,17,17,16,17,17,17],"number_of_frames":120,"aperture_center_x":683,"aperture_center_y":384,"fixation_cross":true,"fixation_cross_width":15,"fixation_cross_height":15,"fixation_cross_color":"#111","fixation_cross_thickness":1,"border":true,"border_thickness":2,"border_color":"transparent","canvas_width":1366,"canvas_height":768,"trial_type":"rdk","trial_index":16,"plugin_version":"2.0.0","time_elapsed":115354},{"rt":4246,"stimulus":"\n        <div class=\"response-container\">\n          <div class=\"response-instruction\">\n            <p>rotate the bar by using the left and right arrow keys.</p>\n            <p>when you are determined, press the Enter key.</p>\n          </div>\n          <div class=\"response-circle\">\n            <div class=\"response-fixation\"></div>\n            <div id=\"bar\" class=\"rotating-bar\"></div>\n          </div>\n        </div>\n      ","response":"Enter","trial_type":"html-keyboard-response","trial_index":17,"plugin_version":"2.1.0","time_elapsed":119602,"response_angle_css":311,"response_angle_rdk":139,"angular_error_target":19,"angular_error_distractor":113,"target_direction":120,"target_group":"white","reward_points":6},{"rt":null,"stimulus":"\n          <p style=\"color: #00FF00;\">Your reward: 6 points</p>\n        ","response":null,"trial_type":"html-keyboard-response","trial_index":18,"plugin_version":"2.1.0","time_elapsed":121605},{"rt":null,"stimulus":"<div class=\"fixation\" style=\"font-size: 60px;\">+</div>","response":null,"trial_type":"html-keyboard-response","trial_index":19,"plugin_version":"2.1.0","time_elapsed":122619},{"target_group":"white","condition_label":"W_H_vs_B_L_rep5","target_direction":150,"distractor_direction":57,"session_rotation":109,"rt":-1,"response":"","correct":false,"choices":"ALL_KEYS","correct_choice":["a"],"trial_duration":2000,"flip_timestamps":[],"response_ends_trial":false,"number_of_apertures":200,"number_of_dots":[1,1,1,1,1,1,1,1,1,1,1,1,1,1,1,1,1,1,1,1,1,1,1,1,1,1,1,1,1,1,1,1,1,1,1,1,1,1,1,1,1,1,1,1,1,1,1,1,1,1,1,1,1,1,1,1,1,1,1,1,1,1,1,1,1,1,1,1,1,1,1,1,1,1,1,1,1,1,1,1,1,1,1,1,1,1,1,1,1,1,1,1,1,1,1,1,1,1,1,1,1,1,1,1,1,1,1,1,1,1,1,1,1,1,1,1,1,1,1,1,1,1,1,1,1,1,1,1,1,1,1,1,1,1,1,1,1,1,1,1,1,1,1,1,1,1,1,1,1,1,1,1,1,1,1,1,1,1,1,1,1,1,1,1,1,1,1,1,1,1,1,1,1,1,1,1,1,1,1,1,1,1,1,1,1,1,1,1,1,1,1,1,1,1,1,1,1,1,1,1],"number_of_sets":1,"coherent_direction":[57,57,57,57,150,150,150,150,57,57,57,150,150,150,150,150,57,57,150,150,150,57,150,57,57,57,150,57,150,57,150,57,57,150,57,57,57,150,57,150,57,150,150,150,150,150,57,150,150,150,57,57,150,57,57,150,150,57,150,57,57,150,150,57,57,57,57,150,150,57,150,150,150,57,150,57,150,150,150,57,150,150,150,150,150,57,150,57,150,150,150,57,57,57,57,150,57,57,150,57,150,57,57,57,150,150,150,150,57,57,150,57,57,150,150,57,57,150,150,57,150,57,57,57,150,57,57,57,150,57,57,57,57,57,57,57,150,150,57,150,150,150,57,57,150,150,57,150,57,150,150,57,57,150,57,57,57,150,57,150,150,57,150,150,57,57,150,57,150,150,57,150,57,57,57,57,150,150,57,150,150,57,150,57,57,57,57,57,150,150,150,57,150,150,150,150,150,57,57,150],"coherence":1,"opposite_coherence":0,"dot_radius":2,"dot_side_length":1,"dot_life":-1,"move_distance":1,"aperture_width":300,"aperture_height":300,"dot_color":["black","black","black","black","white","white","white","white","black","black","black","white","white","white","white","white","black","black","white","white","white","black","white","black","black","black","white","black","white","black","white","black","black","white","black","black","black","white","black","white","black","white","white","white","white","white","black","white","white","white","black","black","white","black","black","white","white","black","white","black","black","white","white","black","black","black","black","white","white","black","white","white","white","black","white","black","white","white","white","black","white","white","white","white","white","black","white","black","white","white","white","black","black","black","black","white","black","black","white","black","white","black","black","black","white","white","white","white","black","black","white","black","black","white","white","black","black","white","white","black","white","black","black","black","white","black","black","black","white","black","black","black","black","black","black","black","white","white","black","white","white","white","black","black","white","white","black","white","black","white","white","black","black","white","black","black","black","white","black","white","white","black","white","white","black","black","white","black","white","white","black","white","black","black","black","black","white","white","black","white","white","black","white","black","black","black","black","black","white","white","white","black","white","white","white","white","white","black","black","white"],"dot_shape":"circle","background_color":"#AAA","RDK_type":3,"aperture_type":2,"reinsert_type":2,"frame_rate":16.801652892561982,"frame_rate_array":[4,13,17,17,17,17,17,17,17,17,17,17,17,17,17,17,17,16,17,17,17,17,17,17,17,17,17,17,16,17,17,17,17,17,17,17,17,17,17,21,13,17,17,17,17,17,17,17,17,17,17,17,17,17,17,17,17,17,17,17,17,17,17,17,17,17,17,17,17,17,17,17,17,17,17,17,17,16,17,17,17,17,17,17,17,16,17,16,17,17,17,17,17,17,17,17,17,17,17,17,16,17,17,17,17,17,17,17,17,17,17,17,17,17,17,16,18,16,17,17,17],"number_of_frames":121,"aperture_center_x":683,"aperture_center_y":384,"fixation_cross":true,"fixation_cross_width":15,"fixation_cross_height":15,"fixation_cross_color":"#111","fixation_cross_thickness":1,"border":true,"border_thickness":2,"border_color":"transparent","canvas_width":1366,"canvas_height":768,"trial_type":"rdk","trial_index":20,"plugin_version":"2.0.0","time_elapsed":124632},{"rt":1912,"stimulus":"\n        <div class=\"response-container\">\n          <div class=\"response-instruction\">\n            <p>rotate the bar by using the left and right arrow keys.</p>\n            <p>when you are determined, press the Enter key.</p>\n          </div>\n          <div class=\"response-circle\">\n            <div class=\"response-fixation\"></div>\n            <div id=\"bar\" class=\"rotating-bar\"></div>\n          </div>\n        </div>\n      ","response":"Enter","trial_type":"html-keyboard-response","trial_index":21,"plugin_version":"2.1.0","time_elapsed":126546,"response_angle_css":285,"response_angle_rdk":165,"angular_error_target":15,"angular_error_distractor":108,"target_direction":150,"target_group":"white","reward_points":7},{"rt":null,"stimulus":"\n          <p style=\"color: #00FF00;\">Your reward: 7 points</p>\n        ","response":null,"trial_type":"html-keyboard-response","trial_index":22,"plugin_version":"2.1.0","time_elapsed":128554},{"rt":null,"stimulus":"<div class=\"fixation\" style=\"font-size: 60px;\">+</div>","response":null,"trial_type":"html-keyboard-response","trial_index":23,"plugin_version":"2.1.0","time_elapsed":129570},{"target_group":"white","condition_label":"W_H_vs_B_L_rep12","target_direction":146,"distractor_direction":22,"session_rotation":109,"rt":-1,"response":"","correct":false,"choices":"ALL_KEYS","correct_choice":["a"],"trial_duration":2000,"flip_timestamps":[],"response_ends_trial":false,"number_of_apertures":200,"number_of_dots":[1,1,1,1,1,1,1,1,1,1,1,1,1,1,1,1,1,1,1,1,1,1,1,1,1,1,1,1,1,1,1,1,1,1,1,1,1,1,1,1,1,1,1,1,1,1,1,1,1,1,1,1,1,1,1,1,1,1,1,1,1,1,1,1,1,1,1,1,1,1,1,1,1,1,1,1,1,1,1,1,1,1,1,1,1,1,1,1,1,1,1,1,1,1,1,1,1,1,1,1,1,1,1,1,1,1,1,1,1,1,1,1,1,1,1,1,1,1,1,1,1,1,1,1,1,1,1,1,1,1,1,1,1,1,1,1,1,1,1,1,1,1,1,1,1,1,1,1,1,1,1,1,1,1,1,1,1,1,1,1,1,1,1,1,1,1,1,1,1,1,1,1,1,1,1,1,1,1,1,1,1,1,1,1,1,1,1,1,1,1,1,1,1,1,1,1,1,1,1,1],"number_of_sets":1,"coherent_direction":[146,22,146,146,146,22,146,146,146,146,146,22,146,22,22,146,146,22,146,22,22,22,146,146,22,22,22,22,22,146,146,146,22,22,22,22,22,22,146,146,22,146,22,146,22,146,146,22,146,22,22,22,146,146,22,146,22,146,22,22,146,22,146,146,22,22,146,22,146,22,146,22,22,22,22,146,22,146,146,22,22,146,146,146,146,22,146,22,22,146,22,22,146,22,146,146,22,22,146,146,146,22,146,146,22,22,22,146,22,22,146,22,146,22,22,22,22,146,22,22,22,22,146,146,22,22,146,22,146,22,146,146,22,22,22,22,146,22,146,146,146,22,146,146,22,22,22,22,22,22,22,146,146,146,146,22,146,146,146,146,22,146,146,22,146,22,22,22,146,146,22,22,146,146,146,146,22,146,146,22,22,22,22,146,146,146,146,146,22,22,146,146,146,22,146,146,146,146,146,22],"coherence":1,"opposite_coherence":0,"dot_radius":2,"dot_side_length":1,"dot_life":-1,"move_distance":1,"aperture_width":300,"aperture_height":300,"dot_color":["white","black","white","white","white","black","white","white","white","white","white","black","white","black","black","white","white","black","white","black","black","black","white","white","black","black","black","black","black","white","white","white","black","black","black","black","black","black","white","white","black","white","black","white","black","white","white","black","white","black","black","black","white","white","black","white","black","white","black","black","white","black","white","white","black","black","white","black","white","black","white","black","black","black","black","white","black","white","white","black","black","white","white","white","white","black","white","black","black","white","black","black","white","black","white","white","black","black","white","white","white","black","white","white","black","black","black","white","black","black","white","black","white","black","black","black","black","white","black","black","black","black","white","white","black","black","white","black","white","black","white","white","black","black","black","black","white","black","white","white","white","black","white","white","black","black","black","black","black","black","black","white","white","white","white","black","white","white","white","white","black","white","white","black","white","black","black","black","white","white","black","black","white","white","white","white","black","white","white","black","black","black","black","white","white","white","white","white","black","black","white","white","white","black","white","white","white","white","white","black"],"dot_shape":"circle","background_color":"#AAA","RDK_type":3,"aperture_type":2,"reinsert_type":2,"frame_rate":16.791666666666668,"frame_rate_array":[4,14,17,17,17,17,17,17,17,17,17,17,17,16,16,17,17,17,17,17,17,17,16,17,17,17,17,17,17,17,17,17,16,17,16,17,17,17,17,17,17,17,17,17,17,17,17,17,17,17,17,17,16,17,17,17,16,17,17,17,17,17,17,17,17,17,17,17,17,17,17,17,16,17,17,17,17,17,17,17,17,17,17,17,16,17,17,17,17,17,17,17,18,16,17,17,17,17,17,17,17,17,17,17,17,17,17,17,17,17,17,17,17,17,17,17,18,16,17,17],"number_of_frames":120,"aperture_center_x":683,"aperture_center_y":384,"fixation_cross":true,"fixation_cross_width":15,"fixation_cross_height":15,"fixation_cross_color":"#111","fixation_cross_thickness":1,"border":true,"border_thickness":2,"border_color":"transparent","canvas_width":1366,"canvas_height":768,"trial_type":"rdk","trial_index":24,"plugin_version":"2.0.0","time_elapsed":131579},{"rt":4284,"stimulus":"\n        <div class=\"response-container\">\n          <div class=\"response-instruction\">\n            <p>rotate the bar by using the left and right arrow keys.</p>\n            <p>when you are determined, press the Enter key.</p>\n          </div>\n          <div class=\"response-circle\">\n            <div class=\"response-fixation\"></div>\n            <div id=\"bar\" class=\"rotating-bar\"></div>\n          </div>\n        </div>\n      ","response":"Enter","trial_type":"html-keyboard-response","trial_index":25,"plugin_version":"2.1.0","time_elapsed":135865,"response_angle_css":289,"response_angle_rdk":161,"angular_error_target":15,"angular_error_distractor":139,"target_direction":146,"target_group":"white","reward_points":7},{"rt":null,"stimulus":"\n          <p style=\"color: #00FF00;\">Your reward: 7 points</p>\n        ","response":null,"trial_type":"html-keyboard-response","trial_index":26,"plugin_version":"2.1.0","time_elapsed":137878},{"rt":null,"stimulus":"<div class=\"fixation\" style=\"font-size: 60px;\">+</div>","response":null,"trial_type":"html-keyboard-response","trial_index":27,"plugin_version":"2.1.0","time_elapsed":138883},{"target_group":"black","condition_label":"B_H_vs_W_L_rep23","target_direction":208,"distractor_direction":299,"session_rotation":109,"rt":-1,"response":"","correct":false,"choices":"ALL_KEYS","correct_choice":["a"],"trial_duration":2000,"flip_timestamps":[],"response_ends_trial":false,"number_of_apertures":200,"number_of_dots":[1,1,1,1,1,1,1,1,1,1,1,1,1,1,1,1,1,1,1,1,1,1,1,1,1,1,1,1,1,1,1,1,1,1,1,1,1,1,1,1,1,1,1,1,1,1,1,1,1,1,1,1,1,1,1,1,1,1,1,1,1,1,1,1,1,1,1,1,1,1,1,1,1,1,1,1,1,1,1,1,1,1,1,1,1,1,1,1,1,1,1,1,1,1,1,1,1,1,1,1,1,1,1,1,1,1,1,1,1,1,1,1,1,1,1,1,1,1,1,1,1,1,1,1,1,1,1,1,1,1,1,1,1,1,1,1,1,1,1,1,1,1,1,1,1,1,1,1,1,1,1,1,1,1,1,1,1,1,1,1,1,1,1,1,1,1,1,1,1,1,1,1,1,1,1,1,1,1,1,1,1,1,1,1,1,1,1,1,1,1,1,1,1,1,1,1,1,1,1,1],"number_of_sets":1,"coherent_direction":[208,299,208,299,299,299,208,299,299,299,299,299,208,299,208,208,208,208,208,299,208,299,299,299,299,208,208,299,299,299,208,208,208,208,208,208,299,299,299,299,299,208,208,208,208,299,299,208,208,208,208,208,299,208,299,208,299,208,299,208,208,299,299,299,299,208,208,299,299,299,299,208,299,208,299,208,299,208,208,208,299,299,208,208,208,299,299,208,299,208,299,208,208,299,208,299,299,299,299,208,208,299,299,208,208,299,299,299,299,299,208,208,208,208,299,299,208,208,299,299,299,208,299,208,208,208,208,299,208,299,299,208,299,299,208,208,299,208,299,208,208,299,299,299,208,299,208,208,299,208,208,299,208,208,208,299,299,299,299,208,299,208,208,208,299,299,208,299,208,208,299,208,208,208,208,299,299,299,299,208,299,299,299,299,208,208,299,208,299,299,208,299,299,208,208,208,299,208,208,208],"coherence":1,"opposite_coherence":0,"dot_radius":2,"dot_side_length":1,"dot_life":-1,"move_distance":1,"aperture_width":300,"aperture_height":300,"dot_color":["black","white","black","white","white","white","black","white","white","white","white","white","black","white","black","black","black","black","black","white","black","white","white","white","white","black","black","white","white","white","black","black","black","black","black","black","white","white","white","white","white","black","black","black","black","white","white","black","black","black","black","black","white","black","white","black","white","black","white","black","black","white","white","white","white","black","black","white","white","white","white","black","white","black","white","black","white","black","black","black","white","white","black","black","black","white","white","black","white","black","white","black","black","white","black","white","white","white","white","black","black","white","white","black","black","white","white","white","white","white","black","black","black","black","white","white","black","black","white","white","white","black","white","black","black","black","black","white","black","white","white","black","white","white","black","black","white","black","white","black","black","white","white","white","black","white","black","black","white","black","black","white","black","black","black","white","white","white","white","black","white","black","black","black","white","white","black","white","black","black","white","black","black","black","black","white","white","white","white","black","white","white","white","white","black","black","white","black","white","white","black","white","white","black","black","black","white","black","black","black"],"dot_shape":"circle","background_color":"#AAA","RDK_type":3,"aperture_type":2,"reinsert_type":2,"frame_rate":16.825,"frame_rate_array":[12,18,15,17,17,17,17,16,17,17,17,17,17,17,16,17,17,17,17,17,17,17,17,17,17,17,17,17,17,17,17,17,17,17,17,17,17,17,17,17,16,18,17,17,17,17,17,16,18,17,17,17,17,17,17,17,16,17,16,17,17,16,16,18,17,16,17,17,17,17,16,17,18,16,16,17,17,17,17,17,17,17,20,13,16,17,17,17,17,16,17,16,17,16,17,16,17,17,17,17,17,17,17,17,17,17,17,16,17,17,17,17,18,15,17,17,17,17,17,18],"number_of_frames":120,"aperture_center_x":683,"aperture_center_y":384,"fixation_cross":true,"fixation_cross_width":15,"fixation_cross_height":15,"fixation_cross_color":"#111","fixation_cross_thickness":1,"border":true,"border_thickness":2,"border_color":"transparent","canvas_width":1366,"canvas_height":768,"trial_type":"rdk","trial_index":28,"plugin_version":"2.0.0","time_elapsed":140890},{"rt":3711,"stimulus":"\n        <div class=\"response-container\">\n          <div class=\"response-instruction\">\n            <p>rotate the bar by using the left and right arrow keys.</p>\n            <p>when you are determined, press the Enter key.</p>\n          </div>\n          <div class=\"response-circle\">\n            <div class=\"response-fixation\"></div>\n            <div id=\"bar\" class=\"rotating-bar\"></div>\n          </div>\n        </div>\n      ","response":"Enter","trial_type":"html-keyboard-response","trial_index":29,"plugin_version":"2.1.0","time_elapsed":144602,"response_angle_css":244,"response_angle_rdk":206,"angular_error_target":-2,"angular_error_distractor":-93,"target_direction":208,"target_group":"black","reward_points":9},{"rt":null,"stimulus":"\n          <p style=\"color: #00FF00;\">Your reward: 9 points</p>\n        ","response":null,"trial_type":"html-keyboard-response","trial_index":30,"plugin_version":"2.1.0","time_elapsed":146605},{"rt":null,"stimulus":"<div class=\"fixation\" style=\"font-size: 60px;\">+</div>","response":null,"trial_type":"html-keyboard-response","trial_index":31,"plugin_version":"2.1.0","time_elapsed":147619},{"target_group":"white","condition_label":"W_H_vs_B_L_rep2","target_direction":140,"distractor_direction":24,"session_rotation":109,"rt":-1,"response":"","correct":false,"choices":"ALL_KEYS","correct_choice":["a"],"trial_duration":2000,"flip_timestamps":[],"response_ends_trial":false,"number_of_apertures":200,"number_of_dots":[1,1,1,1,1,1,1,1,1,1,1,1,1,1,1,1,1,1,1,1,1,1,1,1,1,1,1,1,1,1,1,1,1,1,1,1,1,1,1,1,1,1,1,1,1,1,1,1,1,1,1,1,1,1,1,1,1,1,1,1,1,1,1,1,1,1,1,1,1,1,1,1,1,1,1,1,1,1,1,1,1,1,1,1,1,1,1,1,1,1,1,1,1,1,1,1,1,1,1,1,1,1,1,1,1,1,1,1,1,1,1,1,1,1,1,1,1,1,1,1,1,1,1,1,1,1,1,1,1,1,1,1,1,1,1,1,1,1,1,1,1,1,1,1,1,1,1,1,1,1,1,1,1,1,1,1,1,1,1,1,1,1,1,1,1,1,1,1,1,1,1,1,1,1,1,1,1,1,1,1,1,1,1,1,1,1,1,1,1,1,1,1,1,1,1,1,1,1,1,1],"number_of_sets":1,"coherent_direction":[24,24,140,24,140,24,24,140,24,140,140,24,140,140,140,140,24,24,140,24,24,24,140,24,24,140,24,140,140,140,140,140,140,24,140,140,24,24,24,140,140,24,24,24,140,24,140,140,24,24,24,140,140,140,24,140,140,140,140,140,140,140,24,140,140,140,140,140,140,140,140,24,24,24,24,24,24,24,24,140,140,24,140,140,140,140,24,140,24,140,24,24,140,140,24,24,24,140,24,140,24,140,140,24,140,24,24,140,140,24,24,140,24,24,24,24,24,24,24,140,24,24,24,140,140,140,24,140,140,140,24,140,140,24,24,24,24,24,24,24,24,24,24,140,24,140,24,24,140,24,24,140,140,24,24,24,24,140,24,24,140,140,140,24,24,140,24,140,24,140,140,140,140,140,140,24,140,24,24,140,140,24,140,24,24,140,140,140,140,24,140,140,140,24,24,140,140,24,24,24],"coherence":1,"opposite_coherence":0,"dot_radius":2,"dot_side_length":1,"dot_life":-1,"move_distance":1,"aperture_width":300,"aperture_height":300,"dot_color":["black","black","white","black","white","black","black","white","black","white","white","black","white","white","white","white","black","black","white","black","black","black","white","black","black","white","black","white","white","white","white","white","white","black","white","white","black","black","black","white","white","black","black","black","white","black","white","white","black","black","black","white","white","white","black","white","white","white","white","white","white","white","black","white","white","white","white","white","white","white","white","black","black","black","black","black","black","black","black","white","white","black","white","white","white","white","black","white","black","white","black","black","white","white","black","black","black","white","black","white","black","white","white","black","white","black","black","white","white","black","black","white","black","black","black","black","black","black","black","white","black","black","black","white","white","white","black","white","white","white","black","white","white","black","black","black","black","black","black","black","black","black","black","white","black","white","black","black","white","black","black","white","white","black","black","black","black","white","black","black","white","white","white","black","black","white","black","white","black","white","white","white","white","white","white","black","white","black","black","white","white","black","white","black","black","white","white","white","white","black","white","white","white","black","black","white","white","black","black","black"],"dot_shape":"circle","background_color":"#AAA","RDK_type":3,"aperture_type":2,"reinsert_type":2,"frame_rate":16.85,"frame_rate_array":[13,18,16,17,17,17,17,17,17,17,16,18,16,17,18,15,18,17,17,17,17,17,17,17,17,17,17,17,17,17,17,17,17,17,17,17,16,17,17,17,17,16,17,17,17,17,17,17,17,17,16,17,18,16,17,17,17,17,16,17,17,17,17,17,17,17,17,17,17,17,17,17,17,17,17,16,17,17,16,16,17,17,17,17,16,16,18,16,17,17,17,17,17,16,17,17,16,17,29,5,17,17,16,16,16,17,17,17,17,18,17,17,17,17,16,18,17,17,17,17],"number_of_frames":120,"aperture_center_x":683,"aperture_center_y":384,"fixation_cross":true,"fixation_cross_width":15,"fixation_cross_height":15,"fixation_cross_color":"#111","fixation_cross_thickness":1,"border":true,"border_thickness":2,"border_color":"transparent","canvas_width":1366,"canvas_height":768,"trial_type":"rdk","trial_index":32,"plugin_version":"2.0.0","time_elapsed":149628},{"rt":2143,"stimulus":"\n        <div class=\"response-container\">\n          <div class=\"response-instruction\">\n            <p>rotate the bar by using the left and right arrow keys.</p>\n            <p>when you are determined, press the Enter key.</p>\n          </div>\n          <div class=\"response-circle\">\n            <div class=\"response-fixation\"></div>\n            <div id=\"bar\" class=\"rotating-bar\"></div>\n          </div>\n        </div>\n      ","response":"Enter","trial_type":"html-keyboard-response","trial_index":33,"plugin_version":"2.1.0","time_elapsed":151772,"response_angle_css":295,"response_angle_rdk":155,"angular_error_target":15,"angular_error_distractor":131,"target_direction":140,"target_group":"white","reward_points":7},{"rt":null,"stimulus":"\n          <p style=\"color: #00FF00;\">Your reward: 7 points</p>\n        ","response":null,"trial_type":"html-keyboard-response","trial_index":34,"plugin_version":"2.1.0","time_elapsed":153785},{"rt":null,"stimulus":"<div class=\"fixation\" style=\"font-size: 60px;\">+</div>","response":null,"trial_type":"html-keyboard-response","trial_index":35,"plugin_version":"2.1.0","time_elapsed":154800},{"target_group":"black","condition_label":"B_H_vs_W_L_rep20","target_direction":232,"distractor_direction":322,"session_rotation":109,"rt":-1,"response":"","correct":false,"choices":"ALL_KEYS","correct_choice":["a"],"trial_duration":2000,"flip_timestamps":[],"response_ends_trial":false,"number_of_apertures":200,"number_of_dots":[1,1,1,1,1,1,1,1,1,1,1,1,1,1,1,1,1,1,1,1,1,1,1,1,1,1,1,1,1,1,1,1,1,1,1,1,1,1,1,1,1,1,1,1,1,1,1,1,1,1,1,1,1,1,1,1,1,1,1,1,1,1,1,1,1,1,1,1,1,1,1,1,1,1,1,1,1,1,1,1,1,1,1,1,1,1,1,1,1,1,1,1,1,1,1,1,1,1,1,1,1,1,1,1,1,1,1,1,1,1,1,1,1,1,1,1,1,1,1,1,1,1,1,1,1,1,1,1,1,1,1,1,1,1,1,1,1,1,1,1,1,1,1,1,1,1,1,1,1,1,1,1,1,1,1,1,1,1,1,1,1,1,1,1,1,1,1,1,1,1,1,1,1,1,1,1,1,1,1,1,1,1,1,1,1,1,1,1,1,1,1,1,1,1,1,1,1,1,1,1],"number_of_sets":1,"coherent_direction":[232,232,322,322,232,322,232,232,232,322,232,232,322,322,322,322,232,232,232,232,232,232,232,232,232,232,232,232,232,232,232,232,232,232,232,322,232,322,232,232,322,322,232,322,232,232,232,232,322,322,232,232,232,322,322,232,232,322,232,322,322,232,322,322,232,232,322,322,232,322,322,322,232,322,232,322,322,322,322,232,232,322,232,322,322,322,322,322,322,322,322,232,232,322,232,232,232,322,322,232,322,322,322,232,232,322,322,232,322,322,232,232,322,322,232,322,232,322,322,232,322,322,232,322,232,322,232,232,322,232,232,322,232,232,322,322,232,232,232,322,322,232,232,232,232,322,322,232,322,232,322,322,232,322,232,322,322,232,322,322,322,322,322,322,232,232,322,232,322,322,232,322,232,322,322,232,232,322,232,322,322,232,322,232,322,232,322,322,232,322,232,322,322,322,232,322,322,232,322,232],"coherence":1,"opposite_coherence":0,"dot_radius":2,"dot_side_length":1,"dot_life":-1,"move_distance":1,"aperture_width":300,"aperture_height":300,"dot_color":["black","black","white","white","black","white","black","black","black","white","black","black","white","white","white","white","black","black","black","black","black","black","black","black","black","black","black","black","black","black","black","black","black","black","black","white","black","white","black","black","white","white","black","white","black","black","black","black","white","white","black","black","black","white","white","black","black","white","black","white","white","black","white","white","black","black","white","white","black","white","white","white","black","white","black","white","white","white","white","black","black","white","black","white","white","white","white","white","white","white","white","black","black","white","black","black","black","white","white","black","white","white","white","black","black","white","white","black","white","white","black","black","white","white","black","white","black","white","white","black","white","white","black","white","black","white","black","black","white","black","black","white","black","black","white","white","black","black","black","white","white","black","black","black","black","white","white","black","white","black","white","white","black","white","black","white","white","black","white","white","white","white","white","white","black","black","white","black","white","white","black","white","black","white","white","black","black","white","black","white","white","black","white","black","white","black","white","white","black","white","black","white","white","white","black","white","white","black","white","black"],"dot_shape":"circle","background_color":"#AAA","RDK_type":3,"aperture_type":2,"reinsert_type":2,"frame_rate":16.733333333333334,"frame_rate_array":[3,17,18,16,17,17,17,17,17,17,18,16,17,17,17,16,17,17,17,16,18,15,17,17,17,16,17,17,17,16,17,17,17,17,17,17,18,17,15,17,17,16,17,16,17,17,17,17,16,17,16,17,17,17,17,17,17,17,17,17,17,17,17,16,17,16,17,17,17,17,18,16,17,17,17,16,18,16,17,17,18,15,17,17,16,17,17,17,17,17,17,17,17,17,17,17,18,16,17,17,17,17,17,17,17,17,17,17,17,16,17,16,17,17,17,16,17,17,17,17],"number_of_frames":120,"aperture_center_x":683,"aperture_center_y":384,"fixation_cross":true,"fixation_cross_width":15,"fixation_cross_height":15,"fixation_cross_color":"#111","fixation_cross_thickness":1,"border":true,"border_thickness":2,"border_color":"transparent","canvas_width":1366,"canvas_height":768,"trial_type":"rdk","trial_index":36,"plugin_version":"2.0.0","time_elapsed":156809},{"rt":4301,"stimulus":"\n        <div class=\"response-container\">\n          <div class=\"response-instruction\">\n            <p>rotate the bar by using the left and right arrow keys.</p>\n            <p>when you are determined, press the Enter key.</p>\n          </div>\n          <div class=\"response-circle\">\n            <div class=\"response-fixation\"></div>\n            <div id=\"bar\" class=\"rotating-bar\"></div>\n          </div>\n        </div>\n      ","response":"Enter","trial_type":"html-keyboard-response","trial_index":37,"plugin_version":"2.1.0","time_elapsed":161111,"response_angle_css":213,"response_angle_rdk":237,"angular_error_target":5,"angular_error_distractor":-85,"target_direction":232,"target_group":"black","reward_points":9},{"rt":null,"stimulus":"\n          <p style=\"color: #00FF00;\">Your reward: 9 points</p>\n        ","response":null,"trial_type":"html-keyboard-response","trial_index":38,"plugin_version":"2.1.0","time_elapsed":163123},{"rt":null,"stimulus":"<div class=\"fixation\" style=\"font-size: 60px;\">+</div>","response":null,"trial_type":"html-keyboard-response","trial_index":39,"plugin_version":"2.1.0","time_elapsed":164132},{"target_group":"black","condition_label":"B_H_vs_W_L_rep22","target_direction":220,"distractor_direction":317,"session_rotation":109,"rt":-1,"response":"","correct":false,"choices":"ALL_KEYS","correct_choice":["a"],"trial_duration":2000,"flip_timestamps":[],"response_ends_trial":false,"number_of_apertures":200,"number_of_dots":[1,1,1,1,1,1,1,1,1,1,1,1,1,1,1,1,1,1,1,1,1,1,1,1,1,1,1,1,1,1,1,1,1,1,1,1,1,1,1,1,1,1,1,1,1,1,1,1,1,1,1,1,1,1,1,1,1,1,1,1,1,1,1,1,1,1,1,1,1,1,1,1,1,1,1,1,1,1,1,1,1,1,1,1,1,1,1,1,1,1,1,1,1,1,1,1,1,1,1,1,1,1,1,1,1,1,1,1,1,1,1,1,1,1,1,1,1,1,1,1,1,1,1,1,1,1,1,1,1,1,1,1,1,1,1,1,1,1,1,1,1,1,1,1,1,1,1,1,1,1,1,1,1,1,1,1,1,1,1,1,1,1,1,1,1,1,1,1,1,1,1,1,1,1,1,1,1,1,1,1,1,1,1,1,1,1,1,1,1,1,1,1,1,1,1,1,1,1,1,1],"number_of_sets":1,"coherent_direction":[317,220,317,317,317,317,317,220,317,220,220,317,220,220,317,220,220,317,317,220,220,220,317,317,317,220,220,317,220,220,220,220,220,220,317,317,220,220,317,317,220,317,317,220,220,220,220,317,220,317,317,220,220,317,317,220,220,220,220,220,220,317,317,220,317,317,220,317,220,317,220,220,317,317,317,220,317,317,220,220,317,317,220,220,317,317,220,220,220,220,220,317,317,317,317,317,317,220,317,220,317,317,220,220,317,317,317,220,220,220,220,220,220,220,220,220,317,317,317,317,317,317,317,317,220,317,220,220,317,317,317,220,317,220,317,220,317,220,220,317,317,317,317,317,220,220,220,317,220,220,220,317,220,220,317,220,317,220,317,220,317,317,220,317,317,317,317,220,317,220,220,220,317,220,317,220,220,220,220,220,220,220,317,317,220,220,317,220,317,317,317,317,317,220,317,317,317,317,220,317],"coherence":1,"opposite_coherence":0,"dot_radius":2,"dot_side_length":1,"dot_life":-1,"move_distance":1,"aperture_width":300,"aperture_height":300,"dot_color":["white","black","white","white","white","white","white","black","white","black","black","white","black","black","white","black","black","white","white","black","black","black","white","white","white","black","black","white","black","black","black","black","black","black","white","white","black","black","white","white","black","white","white","black","black","black","black","white","black","white","white","black","black","white","white","black","black","black","black","black","black","white","white","black","white","white","black","white","black","white","black","black","white","white","white","black","white","white","black","black","white","white","black","black","white","white","black","black","black","black","black","white","white","white","white","white","white","black","white","black","white","white","black","black","white","white","white","black","black","black","black","black","black","black","black","black","white","white","white","white","white","white","white","white","black","white","black","black","white","white","white","black","white","black","white","black","white","black","black","white","white","white","white","white","black","black","black","white","black","black","black","white","black","black","white","black","white","black","white","black","white","white","black","white","white","white","white","black","white","black","black","black","white","black","white","black","black","black","black","black","black","black","white","white","black","black","white","black","white","white","white","white","white","black","white","white","white","white","black","white"],"dot_shape":"circle","background_color":"#AAA","RDK_type":3,"aperture_type":2,"reinsert_type":2,"frame_rate":16.85,"frame_rate_array":[10,17,17,16,17,16,17,17,17,17,17,17,17,16,17,17,17,17,17,17,17,17,17,17,17,17,17,17,16,17,17,17,17,17,17,17,17,17,17,17,16,17,17,17,17,17,17,16,18,16,17,17,17,17,17,17,17,17,16,17,17,17,18,17,17,16,17,17,17,17,17,17,17,17,17,17,17,17,17,17,17,17,17,17,17,17,17,17,17,17,17,17,17,17,17,16,16,17,17,17,17,17,17,18,16,17,17,17,17,17,17,17,17,17,17,16,17,16,17,17],"number_of_frames":120,"aperture_center_x":683,"aperture_center_y":384,"fixation_cross":true,"fixation_cross_width":15,"fixation_cross_height":15,"fixation_cross_color":"#111","fixation_cross_thickness":1,"border":true,"border_thickness":2,"border_color":"transparent","canvas_width":1366,"canvas_height":768,"trial_type":"rdk","trial_index":40,"plugin_version":"2.0.0","time_elapsed":166135},{"rt":4924,"stimulus":"\n        <div class=\"response-container\">\n          <div class=\"response-instruction\">\n            <p>rotate the bar by using the left and right arrow keys.</p>\n            <p>when you are determined, press the Enter key.</p>\n          </div>\n          <div class=\"response-circle\">\n            <div class=\"response-fixation\"></div>\n            <div id=\"bar\" class=\"rotating-bar\"></div>\n          </div>\n        </div>\n      ","response":"Enter","trial_type":"html-keyboard-response","trial_index":41,"plugin_version":"2.1.0","time_elapsed":171060,"response_angle_css":222,"response_angle_rdk":228,"angular_error_target":8,"angular_error_distractor":-89,"target_direction":220,"target_group":"black","reward_points":8},{"rt":null,"stimulus":"\n          <p style=\"color: #00FF00;\">Your reward: 8 points</p>\n        ","response":null,"trial_type":"html-keyboard-response","trial_index":42,"plugin_version":"2.1.0","time_elapsed":173066},{"rt":null,"stimulus":"<div class=\"fixation\" style=\"font-size: 60px;\">+</div>","response":null,"trial_type":"html-keyboard-response","trial_index":43,"plugin_version":"2.1.0","time_elapsed":174077},{"target_group":"black","condition_label":"B_H_vs_W_L_rep13","target_direction":215,"distractor_direction":310,"session_rotation":109,"rt":-1,"response":"","correct":false,"choices":"ALL_KEYS","correct_choice":["a"],"trial_duration":2000,"flip_timestamps":[],"response_ends_trial":false,"number_of_apertures":200,"number_of_dots":[1,1,1,1,1,1,1,1,1,1,1,1,1,1,1,1,1,1,1,1,1,1,1,1,1,1,1,1,1,1,1,1,1,1,1,1,1,1,1,1,1,1,1,1,1,1,1,1,1,1,1,1,1,1,1,1,1,1,1,1,1,1,1,1,1,1,1,1,1,1,1,1,1,1,1,1,1,1,1,1,1,1,1,1,1,1,1,1,1,1,1,1,1,1,1,1,1,1,1,1,1,1,1,1,1,1,1,1,1,1,1,1,1,1,1,1,1,1,1,1,1,1,1,1,1,1,1,1,1,1,1,1,1,1,1,1,1,1,1,1,1,1,1,1,1,1,1,1,1,1,1,1,1,1,1,1,1,1,1,1,1,1,1,1,1,1,1,1,1,1,1,1,1,1,1,1,1,1,1,1,1,1,1,1,1,1,1,1,1,1,1,1,1,1,1,1,1,1,1,1],"number_of_sets":1,"coherent_direction":[310,310,310,215,215,215,310,310,215,215,215,215,310,310,310,310,215,215,215,215,310,215,215,310,310,215,215,310,215,215,215,215,215,215,215,215,215,310,310,215,310,215,310,215,215,215,310,215,310,215,215,310,310,215,310,215,215,310,215,215,215,310,310,310,215,310,310,215,215,310,310,310,310,310,215,310,215,215,310,310,215,310,310,310,215,215,310,310,215,310,215,215,215,215,310,215,310,215,310,310,310,215,215,215,310,310,215,310,215,310,215,215,215,310,310,215,215,310,310,310,310,215,310,215,215,310,310,310,215,310,215,215,215,215,310,215,310,215,215,215,310,310,310,215,310,310,215,215,310,310,215,215,310,215,215,310,310,310,310,215,215,310,310,215,310,215,310,215,310,215,310,310,215,310,310,215,310,215,310,215,310,310,310,310,310,310,215,215,310,310,215,310,310,215,310,215,310,310,215,215],"coherence":1,"opposite_coherence":0,"dot_radius":2,"dot_side_length":1,"dot_life":-1,"move_distance":1,"aperture_width":300,"aperture_height":300,"dot_color":["white","white","white","black","black","black","white","white","black","black","black","black","white","white","white","white","black","black","black","black","white","black","black","white","white","black","black","white","black","black","black","black","black","black","black","black","black","white","white","black","white","black","white","black","black","black","white","black","white","black","black","white","white","black","white","black","black","white","black","black","black","white","white","white","black","white","white","black","black","white","white","white","white","white","black","white","black","black","white","white","black","white","white","white","black","black","white","white","black","white","black","black","black","black","white","black","white","black","white","white","white","black","black","black","white","white","black","white","black","white","black","black","black","white","white","black","black","white","white","white","white","black","white","black","black","white","white","white","black","white","black","black","black","black","white","black","white","black","black","black","white","white","white","black","white","white","black","black","white","white","black","black","white","black","black","white","white","white","white","black","black","white","white","black","white","black","white","black","white","black","white","white","black","white","white","black","white","black","white","black","white","white","white","white","white","white","black","black","white","white","black","white","white","black","white","black","white","white","black","black"],"dot_shape":"circle","background_color":"#AAA","RDK_type":3,"aperture_type":2,"reinsert_type":2,"frame_rate":16.85123966942149,"frame_rate_array":[8,16,17,16,17,18,16,17,17,17,17,17,17,17,17,17,17,17,17,17,17,17,17,17,17,17,17,17,17,17,17,16,17,17,17,17,17,17,17,17,17,18,16,17,17,16,17,16,17,17,17,16,17,17,17,17,17,17,17,17,17,17,17,17,17,16,17,17,17,17,17,17,17,17,17,17,17,17,16,17,17,17,17,17,17,17,18,16,17,17,17,17,17,17,17,17,17,17,17,17,17,18,16,17,17,17,17,17,17,17,17,17,17,17,17,16,17,17,17,17,17],"number_of_frames":121,"aperture_center_x":683,"aperture_center_y":384,"fixation_cross":true,"fixation_cross_width":15,"fixation_cross_height":15,"fixation_cross_color":"#111","fixation_cross_thickness":1,"border":true,"border_thickness":2,"border_color":"transparent","canvas_width":1366,"canvas_height":768,"trial_type":"rdk","trial_index":44,"plugin_version":"2.0.0","time_elapsed":176093},{"rt":4106,"stimulus":"\n        <div class=\"response-container\">\n          <div class=\"response-instruction\">\n            <p>rotate the bar by using the left and right arrow keys.</p>\n            <p>when you are determined, press the Enter key.</p>\n          </div>\n          <div class=\"response-circle\">\n            <div class=\"response-fixation\"></div>\n            <div id=\"bar\" class=\"rotating-bar\"></div>\n          </div>\n        </div>\n      ","response":"Enter","trial_type":"html-keyboard-response","trial_index":45,"plugin_version":"2.1.0","time_elapsed":180200,"response_angle_css":219,"response_angle_rdk":231,"angular_error_target":16,"angular_error_distractor":-79,"target_direction":215,"target_group":"black","reward_points":6},{"rt":null,"stimulus":"\n          <p style=\"color: #00FF00;\">Your reward: 6 points</p>\n        ","response":null,"trial_type":"html-keyboard-response","trial_index":46,"plugin_version":"2.1.0","time_elapsed":182208},{"rt":null,"stimulus":"<div class=\"fixation\" style=\"font-size: 60px;\">+</div>","response":null,"trial_type":"html-keyboard-response","trial_index":47,"plugin_version":"2.1.0","time_elapsed":183217},{"target_group":"black","condition_label":"B_H_vs_W_L_rep21","target_direction":208,"distractor_direction":322,"session_rotation":109,"rt":-1,"response":"","correct":false,"choices":"ALL_KEYS","correct_choice":["a"],"trial_duration":2000,"flip_timestamps":[],"response_ends_trial":false,"number_of_apertures":200,"number_of_dots":[1,1,1,1,1,1,1,1,1,1,1,1,1,1,1,1,1,1,1,1,1,1,1,1,1,1,1,1,1,1,1,1,1,1,1,1,1,1,1,1,1,1,1,1,1,1,1,1,1,1,1,1,1,1,1,1,1,1,1,1,1,1,1,1,1,1,1,1,1,1,1,1,1,1,1,1,1,1,1,1,1,1,1,1,1,1,1,1,1,1,1,1,1,1,1,1,1,1,1,1,1,1,1,1,1,1,1,1,1,1,1,1,1,1,1,1,1,1,1,1,1,1,1,1,1,1,1,1,1,1,1,1,1,1,1,1,1,1,1,1,1,1,1,1,1,1,1,1,1,1,1,1,1,1,1,1,1,1,1,1,1,1,1,1,1,1,1,1,1,1,1,1,1,1,1,1,1,1,1,1,1,1,1,1,1,1,1,1,1,1,1,1,1,1,1,1,1,1,1,1],"number_of_sets":1,"coherent_direction":[208,322,208,208,208,322,322,322,322,322,208,322,322,208,322,322,322,208,208,208,322,322,208,208,322,322,208,322,322,322,322,208,208,208,208,208,322,208,208,208,322,208,322,322,208,322,208,322,322,322,322,208,322,208,208,322,208,322,208,208,208,208,208,322,322,322,208,208,322,208,208,322,322,322,322,322,208,322,208,322,322,322,322,322,208,208,322,322,322,322,208,208,322,322,322,322,322,322,322,208,322,208,322,322,208,322,208,208,322,208,208,208,322,322,322,322,322,208,322,208,208,322,208,322,322,208,322,208,208,208,208,208,322,208,322,208,322,208,208,208,208,208,322,322,208,322,322,208,208,208,322,322,208,208,208,322,208,322,208,208,322,208,208,208,208,322,322,208,208,322,322,322,322,322,208,208,322,322,208,322,208,208,208,208,208,208,322,322,208,208,208,208,322,208,208,322,322,208,322,208],"coherence":1,"opposite_coherence":0,"dot_radius":2,"dot_side_length":1,"dot_life":-1,"move_distance":1,"aperture_width":300,"aperture_height":300,"dot_color":["black","white","black","black","black","white","white","white","white","white","black","white","white","black","white","white","white","black","black","black","white","white","black","black","white","white","black","white","white","white","white","black","black","black","black","black","white","black","black","black","white","black","white","white","black","white","black","white","white","white","white","black","white","black","black","white","black","white","black","black","black","black","black","white","white","white","black","black","white","black","black","white","white","white","white","white","black","white","black","white","white","white","white","white","black","black","white","white","white","white","black","black","white","white","white","white","white","white","white","black","white","black","white","white","black","white","black","black","white","black","black","black","white","white","white","white","white","black","white","black","black","white","black","white","white","black","white","black","black","black","black","black","white","black","white","black","white","black","black","black","black","black","white","white","black","white","white","black","black","black","white","white","black","black","black","white","black","white","black","black","white","black","black","black","black","white","white","black","black","white","white","white","white","white","black","black","white","white","black","white","black","black","black","black","black","black","white","white","black","black","black","black","white","black","black","white","white","black","white","black"],"dot_shape":"circle","background_color":"#AAA","RDK_type":3,"aperture_type":2,"reinsert_type":2,"frame_rate":16.85123966942149,"frame_rate_array":[7,17,17,17,17,17,17,17,17,17,17,17,17,17,17,17,16,17,17,19,15,17,17,17,17,17,17,16,17,17,17,17,17,17,17,17,17,16,17,17,17,17,16,17,17,17,18,16,17,18,16,17,17,18,16,17,17,16,17,17,17,16,17,17,17,16,17,17,17,17,17,17,17,17,17,17,17,17,17,17,17,17,17,17,17,17,17,17,17,17,17,17,17,17,17,17,17,17,17,17,17,17,17,17,17,17,17,18,16,17,17,17,17,17,19,15,17,17,16,17,17],"number_of_frames":121,"aperture_center_x":683,"aperture_center_y":384,"fixation_cross":true,"fixation_cross_width":15,"fixation_cross_height":15,"fixation_cross_color":"#111","fixation_cross_thickness":1,"border":true,"border_thickness":2,"border_color":"transparent","canvas_width":1366,"canvas_height":768,"trial_type":"rdk","trial_index":48,"plugin_version":"2.0.0","time_elapsed":185233},{"rt":5271,"stimulus":"\n        <div class=\"response-container\">\n          <div class=\"response-instruction\">\n            <p>rotate the bar by using the left and right arrow keys.</p>\n            <p>when you are determined, press the Enter key.</p>\n          </div>\n          <div class=\"response-circle\">\n            <div class=\"response-fixation\"></div>\n            <div id=\"bar\" class=\"rotating-bar\"></div>\n          </div>\n        </div>\n      ","response":"Enter","trial_type":"html-keyboard-response","trial_index":49,"plugin_version":"2.1.0","time_elapsed":190505,"response_angle_css":223,"response_angle_rdk":227,"angular_error_target":19,"angular_error_distractor":-95,"target_direction":208,"target_group":"black","reward_points":6},{"rt":null,"stimulus":"\n          <p style=\"color: #00FF00;\">Your reward: 6 points</p>\n        ","response":null,"trial_type":"html-keyboard-response","trial_index":50,"plugin_version":"2.1.0","time_elapsed":192513},{"rt":null,"stimulus":"<div class=\"fixation\" style=\"font-size: 60px;\">+</div>","response":null,"trial_type":"html-keyboard-response","trial_index":51,"plugin_version":"2.1.0","time_elapsed":193527},{"target_group":"black","condition_label":"B_H_vs_W_L_rep25","target_direction":201,"distractor_direction":295,"session_rotation":109,"rt":-1,"response":"","correct":false,"choices":"ALL_KEYS","correct_choice":["a"],"trial_duration":2000,"flip_timestamps":[],"response_ends_trial":false,"number_of_apertures":200,"number_of_dots":[1,1,1,1,1,1,1,1,1,1,1,1,1,1,1,1,1,1,1,1,1,1,1,1,1,1,1,1,1,1,1,1,1,1,1,1,1,1,1,1,1,1,1,1,1,1,1,1,1,1,1,1,1,1,1,1,1,1,1,1,1,1,1,1,1,1,1,1,1,1,1,1,1,1,1,1,1,1,1,1,1,1,1,1,1,1,1,1,1,1,1,1,1,1,1,1,1,1,1,1,1,1,1,1,1,1,1,1,1,1,1,1,1,1,1,1,1,1,1,1,1,1,1,1,1,1,1,1,1,1,1,1,1,1,1,1,1,1,1,1,1,1,1,1,1,1,1,1,1,1,1,1,1,1,1,1,1,1,1,1,1,1,1,1,1,1,1,1,1,1,1,1,1,1,1,1,1,1,1,1,1,1,1,1,1,1,1,1,1,1,1,1,1,1,1,1,1,1,1,1],"number_of_sets":1,"coherent_direction":[201,295,201,201,201,201,201,201,201,201,201,295,201,295,201,295,201,295,201,201,201,295,295,295,201,295,295,201,295,295,201,295,201,295,201,295,201,295,201,295,201,295,201,295,295,201,201,295,295,201,201,295,201,201,201,201,295,295,201,295,295,201,295,201,295,295,201,295,201,201,201,295,201,201,295,201,201,201,295,201,295,201,201,201,201,201,295,201,201,201,201,295,295,295,295,295,201,295,201,295,201,201,201,295,295,295,295,295,295,295,201,295,201,295,201,201,295,201,295,295,295,295,295,201,201,295,201,295,201,295,201,295,295,201,295,201,295,295,201,201,295,295,295,295,201,295,295,201,295,201,295,295,201,295,295,295,201,295,201,201,295,201,295,201,201,201,201,201,201,295,295,295,201,201,295,201,201,295,295,201,295,295,295,295,295,295,201,295,201,295,295,201,201,201,201,295,295,295,295,201],"coherence":1,"opposite_coherence":0,"dot_radius":2,"dot_side_length":1,"dot_life":-1,"move_distance":1,"aperture_width":300,"aperture_height":300,"dot_color":["black","white","black","black","black","black","black","black","black","black","black","white","black","white","black","white","black","white","black","black","black","white","white","white","black","white","white","black","white","white","black","white","black","white","black","white","black","white","black","white","black","white","black","white","white","black","black","white","white","black","black","white","black","black","black","black","white","white","black","white","white","black","white","black","white","white","black","white","black","black","black","white","black","black","white","black","black","black","white","black","white","black","black","black","black","black","white","black","black","black","black","white","white","white","white","white","black","white","black","white","black","black","black","white","white","white","white","white","white","white","black","white","black","white","black","black","white","black","white","white","white","white","white","black","black","white","black","white","black","white","black","white","white","black","white","black","white","white","black","black","white","white","white","white","black","white","white","black","white","black","white","white","black","white","white","white","black","white","black","black","white","black","white","black","black","black","black","black","black","white","white","white","black","black","white","black","black","white","white","black","white","white","white","white","white","white","black","white","black","white","white","black","black","black","black","white","white","white","white","black"],"dot_shape":"circle","background_color":"#AAA","RDK_type":3,"aperture_type":2,"reinsert_type":2,"frame_rate":16.834710743801654,"frame_rate_array":[6,17,17,17,17,17,17,16,17,16,17,17,17,17,17,17,17,17,17,17,17,17,16,17,17,17,17,17,18,15,17,17,17,17,17,17,17,17,16,17,18,17,16,17,17,17,17,16,17,17,17,17,17,17,16,17,17,17,17,17,17,17,17,17,17,17,17,17,17,17,17,17,17,17,17,17,17,17,17,16,17,17,17,17,17,17,17,17,17,16,17,17,17,17,17,17,17,17,17,17,17,17,17,17,17,17,17,17,17,17,17,17,17,17,17,17,17,17,17,17,17],"number_of_frames":121,"aperture_center_x":683,"aperture_center_y":384,"fixation_cross":true,"fixation_cross_width":15,"fixation_cross_height":15,"fixation_cross_color":"#111","fixation_cross_thickness":1,"border":true,"border_thickness":2,"border_color":"transparent","canvas_width":1366,"canvas_height":768,"trial_type":"rdk","trial_index":52,"plugin_version":"2.0.0","time_elapsed":195542},{"rt":4283,"stimulus":"\n        <div class=\"response-container\">\n          <div class=\"response-instruction\">\n            <p>rotate the bar by using the left and right arrow keys.</p>\n            <p>when you are determined, press the Enter key.</p>\n          </div>\n          <div class=\"response-circle\">\n            <div class=\"response-fixation\"></div>\n            <div id=\"bar\" class=\"rotating-bar\"></div>\n          </div>\n        </div>\n      ","response":"Enter","trial_type":"html-keyboard-response","trial_index":53,"plugin_version":"2.1.0","time_elapsed":199826,"response_angle_css":247,"response_angle_rdk":203,"angular_error_target":2,"angular_error_distractor":-92,"target_direction":201,"target_group":"black","reward_points":9},{"rt":null,"stimulus":"\n          <p style=\"color: #00FF00;\">Your reward: 9 points</p>\n        ","response":null,"trial_type":"html-keyboard-response","trial_index":54,"plugin_version":"2.1.0","time_elapsed":201839},{"rt":null,"stimulus":"<div class=\"fixation\" style=\"font-size: 60px;\">+</div>","response":null,"trial_type":"html-keyboard-response","trial_index":55,"plugin_version":"2.1.0","time_elapsed":202853},{"target_group":"white","condition_label":"W_H_vs_B_L_rep7","target_direction":136,"distractor_direction":39,"session_rotation":109,"rt":-1,"response":"","correct":false,"choices":"ALL_KEYS","correct_choice":["a"],"trial_duration":2000,"flip_timestamps":[],"response_ends_trial":false,"number_of_apertures":200,"number_of_dots":[1,1,1,1,1,1,1,1,1,1,1,1,1,1,1,1,1,1,1,1,1,1,1,1,1,1,1,1,1,1,1,1,1,1,1,1,1,1,1,1,1,1,1,1,1,1,1,1,1,1,1,1,1,1,1,1,1,1,1,1,1,1,1,1,1,1,1,1,1,1,1,1,1,1,1,1,1,1,1,1,1,1,1,1,1,1,1,1,1,1,1,1,1,1,1,1,1,1,1,1,1,1,1,1,1,1,1,1,1,1,1,1,1,1,1,1,1,1,1,1,1,1,1,1,1,1,1,1,1,1,1,1,1,1,1,1,1,1,1,1,1,1,1,1,1,1,1,1,1,1,1,1,1,1,1,1,1,1,1,1,1,1,1,1,1,1,1,1,1,1,1,1,1,1,1,1,1,1,1,1,1,1,1,1,1,1,1,1,1,1,1,1,1,1,1,1,1,1,1,1],"number_of_sets":1,"coherent_direction":[39,39,136,136,39,39,39,39,136,39,39,39,136,39,39,39,39,136,136,39,39,136,136,39,136,136,39,39,39,136,136,39,136,136,136,39,39,39,39,39,39,136,136,39,136,136,136,136,136,39,39,39,136,39,136,136,136,136,39,39,136,39,39,39,39,39,39,136,39,39,136,136,136,39,39,136,136,39,136,39,39,136,136,136,39,136,39,136,136,39,136,39,39,136,136,39,136,136,136,39,39,136,136,136,39,39,136,39,39,39,136,136,39,136,136,39,136,39,136,39,136,39,39,136,136,136,136,39,136,39,39,136,39,136,136,39,39,136,136,136,136,136,136,39,39,136,39,39,136,39,136,136,136,39,136,136,136,39,39,136,136,39,39,136,136,136,136,39,136,136,39,39,39,136,39,39,39,39,39,39,136,39,136,136,39,39,136,136,136,39,136,39,136,39,136,136,136,39,39,39],"coherence":1,"opposite_coherence":0,"dot_radius":2,"dot_side_length":1,"dot_life":-1,"move_distance":1,"aperture_width":300,"aperture_height":300,"dot_color":["black","black","white","white","black","black","black","black","white","black","black","black","white","black","black","black","black","white","white","black","black","white","white","black","white","white","black","black","black","white","white","black","white","white","white","black","black","black","black","black","black","white","white","black","white","white","white","white","white","black","black","black","white","black","white","white","white","white","black","black","white","black","black","black","black","black","black","white","black","black","white","white","white","black","black","white","white","black","white","black","black","white","white","white","black","white","black","white","white","black","white","black","black","white","white","black","white","white","white","black","black","white","white","white","black","black","white","black","black","black","white","white","black","white","white","black","white","black","white","black","white","black","black","white","white","white","white","black","white","black","black","white","black","white","white","black","black","white","white","white","white","white","white","black","black","white","black","black","white","black","white","white","white","black","white","white","white","black","black","white","white","black","black","white","white","white","white","black","white","white","black","black","black","white","black","black","black","black","black","black","white","black","white","white","black","black","white","white","white","black","white","black","white","black","white","white","white","black","black","black"],"dot_shape":"circle","background_color":"#AAA","RDK_type":3,"aperture_type":2,"reinsert_type":2,"frame_rate":16.816666666666666,"frame_rate_array":[7,12,18,15,17,17,17,17,18,16,18,16,17,17,18,15,17,17,17,16,17,17,17,17,16,17,17,17,17,17,17,18,16,17,17,18,16,17,17,17,17,17,18,16,17,17,17,18,16,17,17,18,16,17,17,17,18,16,17,17,17,17,17,17,17,17,17,17,18,16,17,17,17,18,17,17,16,17,17,17,17,16,17,17,16,17,17,17,17,17,17,18,16,18,16,17,17,17,17,17,17,17,17,17,17,18,16,17,16,18,16,17,17,17,17,17,17,17,17,17],"number_of_frames":120,"aperture_center_x":683,"aperture_center_y":384,"fixation_cross":true,"fixation_cross_width":15,"fixation_cross_height":15,"fixation_cross_color":"#111","fixation_cross_thickness":1,"border":true,"border_thickness":2,"border_color":"transparent","canvas_width":1366,"canvas_height":768,"trial_type":"rdk","trial_index":56,"plugin_version":"2.0.0","time_elapsed":204863},{"rt":4577,"stimulus":"\n        <div class=\"response-container\">\n          <div class=\"response-instruction\">\n            <p>rotate the bar by using the left and right arrow keys.</p>\n            <p>when you are determined, press the Enter key.</p>\n          </div>\n          <div class=\"response-circle\">\n            <div class=\"response-fixation\"></div>\n            <div id=\"bar\" class=\"rotating-bar\"></div>\n          </div>\n        </div>\n      ","response":"Enter","trial_type":"html-keyboard-response","trial_index":57,"plugin_version":"2.1.0","time_elapsed":209442,"response_angle_css":-55,"response_angle_rdk":145,"angular_error_target":9,"angular_error_distractor":106,"target_direction":136,"target_group":"white","reward_points":8},{"rt":null,"stimulus":"\n          <p style=\"color: #00FF00;\">Your reward: 8 points</p>\n        ","response":null,"trial_type":"html-keyboard-response","trial_index":58,"plugin_version":"2.1.0","time_elapsed":211447},{"rt":null,"stimulus":"<div class=\"fixation\" style=\"font-size: 60px;\">+</div>","response":null,"trial_type":"html-keyboard-response","trial_index":59,"plugin_version":"2.1.0","time_elapsed":212455},{"target_group":"black","condition_label":"B_H_vs_W_L_rep8","target_direction":230,"distractor_direction":327,"session_rotation":109,"rt":-1,"response":"","correct":false,"choices":"ALL_KEYS","correct_choice":["a"],"trial_duration":2000,"flip_timestamps":[],"response_ends_trial":false,"number_of_apertures":200,"number_of_dots":[1,1,1,1,1,1,1,1,1,1,1,1,1,1,1,1,1,1,1,1,1,1,1,1,1,1,1,1,1,1,1,1,1,1,1,1,1,1,1,1,1,1,1,1,1,1,1,1,1,1,1,1,1,1,1,1,1,1,1,1,1,1,1,1,1,1,1,1,1,1,1,1,1,1,1,1,1,1,1,1,1,1,1,1,1,1,1,1,1,1,1,1,1,1,1,1,1,1,1,1,1,1,1,1,1,1,1,1,1,1,1,1,1,1,1,1,1,1,1,1,1,1,1,1,1,1,1,1,1,1,1,1,1,1,1,1,1,1,1,1,1,1,1,1,1,1,1,1,1,1,1,1,1,1,1,1,1,1,1,1,1,1,1,1,1,1,1,1,1,1,1,1,1,1,1,1,1,1,1,1,1,1,1,1,1,1,1,1,1,1,1,1,1,1,1,1,1,1,1,1],"number_of_sets":1,"coherent_direction":[327,230,230,327,327,230,327,230,230,327,327,230,327,230,230,327,230,327,327,327,327,230,230,327,230,230,230,230,327,230,230,230,230,327,327,230,327,327,327,230,230,230,230,230,327,327,327,327,327,327,327,327,327,327,230,327,230,327,327,230,230,327,327,230,327,327,327,230,230,327,327,230,230,327,327,230,230,327,327,230,230,327,327,230,327,230,327,230,230,327,327,327,327,327,327,327,230,230,327,327,327,230,327,327,327,327,230,230,327,327,327,327,230,230,327,230,327,230,230,230,230,230,327,327,230,230,327,327,230,230,230,327,230,230,230,327,327,327,327,230,230,230,327,230,327,230,230,230,230,230,230,327,327,327,230,327,230,230,230,230,327,230,327,327,327,230,230,327,327,327,327,327,327,327,230,230,327,230,230,327,327,230,230,230,230,230,230,230,230,230,230,327,230,327,327,230,230,230,230,327],"coherence":1,"opposite_coherence":0,"dot_radius":2,"dot_side_length":1,"dot_life":-1,"move_distance":1,"aperture_width":300,"aperture_height":300,"dot_color":["white","black","black","white","white","black","white","black","black","white","white","black","white","black","black","white","black","white","white","white","white","black","black","white","black","black","black","black","white","black","black","black","black","white","white","black","white","white","white","black","black","black","black","black","white","white","white","white","white","white","white","white","white","white","black","white","black","white","white","black","black","white","white","black","white","white","white","black","black","white","white","black","black","white","white","black","black","white","white","black","black","white","white","black","white","black","white","black","black","white","white","white","white","white","white","white","black","black","white","white","white","black","white","white","white","white","black","black","white","white","white","white","black","black","white","black","white","black","black","black","black","black","white","white","black","black","white","white","black","black","black","white","black","black","black","white","white","white","white","black","black","black","white","black","white","black","black","black","black","black","black","white","white","white","black","white","black","black","black","black","white","black","white","white","white","black","black","white","white","white","white","white","white","white","black","black","white","black","black","white","white","black","black","black","black","black","black","black","black","black","black","white","black","white","white","black","black","black","black","white"],"dot_shape":"circle","background_color":"#AAA","RDK_type":3,"aperture_type":2,"reinsert_type":2,"frame_rate":16.816666666666666,"frame_rate_array":[9,17,18,15,17,17,18,17,17,17,16,17,17,17,17,17,16,17,17,17,15,17,18,17,16,16,18,17,16,17,18,17,17,17,17,16,17,16,17,17,17,16,17,16,18,16,16,18,17,17,16,17,18,17,17,16,18,15,17,17,17,16,17,17,17,17,17,17,17,17,17,17,17,17,17,17,17,17,17,17,17,17,17,17,17,17,17,17,17,17,17,18,16,17,18,16,17,18,16,16,18,16,17,17,17,17,17,16,18,17,17,16,17,18,16,18,17,15,17,17],"number_of_frames":120,"aperture_center_x":683,"aperture_center_y":384,"fixation_cross":true,"fixation_cross_width":15,"fixation_cross_height":15,"fixation_cross_color":"#111","fixation_cross_thickness":1,"border":true,"border_thickness":2,"border_color":"transparent","canvas_width":1366,"canvas_height":768,"trial_type":"rdk","trial_index":60,"plugin_version":"2.0.0","time_elapsed":214457},{"rt":4146,"stimulus":"\n        <div class=\"response-container\">\n          <div class=\"response-instruction\">\n            <p>rotate the bar by using the left and right arrow keys.</p>\n            <p>when you are determined, press the Enter key.</p>\n          </div>\n          <div class=\"response-circle\">\n            <div class=\"response-fixation\"></div>\n            <div id=\"bar\" class=\"rotating-bar\"></div>\n          </div>\n        </div>\n      ","response":"Enter","trial_type":"html-keyboard-response","trial_index":61,"plugin_version":"2.1.0","time_elapsed":218604,"response_angle_css":223,"response_angle_rdk":227,"angular_error_target":-3,"angular_error_distractor":-100,"target_direction":230,"target_group":"black","reward_points":9},{"rt":null,"stimulus":"\n          <p style=\"color: #00FF00;\">Your reward: 9 points</p>\n        ","response":null,"trial_type":"html-keyboard-response","trial_index":62,"plugin_version":"2.1.0","time_elapsed":220607},{"rt":null,"stimulus":"<div class=\"fixation\" style=\"font-size: 60px;\">+</div>","response":null,"trial_type":"html-keyboard-response","trial_index":63,"plugin_version":"2.1.0","time_elapsed":221610},{"target_group":"black","condition_label":"B_H_vs_W_L_rep2","target_direction":224,"distractor_direction":325,"session_rotation":109,"rt":-1,"response":"","correct":false,"choices":"ALL_KEYS","correct_choice":["a"],"trial_duration":2000,"flip_timestamps":[],"response_ends_trial":false,"number_of_apertures":200,"number_of_dots":[1,1,1,1,1,1,1,1,1,1,1,1,1,1,1,1,1,1,1,1,1,1,1,1,1,1,1,1,1,1,1,1,1,1,1,1,1,1,1,1,1,1,1,1,1,1,1,1,1,1,1,1,1,1,1,1,1,1,1,1,1,1,1,1,1,1,1,1,1,1,1,1,1,1,1,1,1,1,1,1,1,1,1,1,1,1,1,1,1,1,1,1,1,1,1,1,1,1,1,1,1,1,1,1,1,1,1,1,1,1,1,1,1,1,1,1,1,1,1,1,1,1,1,1,1,1,1,1,1,1,1,1,1,1,1,1,1,1,1,1,1,1,1,1,1,1,1,1,1,1,1,1,1,1,1,1,1,1,1,1,1,1,1,1,1,1,1,1,1,1,1,1,1,1,1,1,1,1,1,1,1,1,1,1,1,1,1,1,1,1,1,1,1,1,1,1,1,1,1,1],"number_of_sets":1,"coherent_direction":[224,224,224,325,224,325,325,224,325,224,325,325,224,325,224,224,325,325,325,224,224,224,224,325,325,224,325,224,224,224,224,224,224,325,224,224,224,325,224,325,325,325,325,224,224,325,325,325,325,325,325,224,325,325,224,325,325,325,224,325,224,325,325,325,325,325,224,224,325,224,224,325,224,224,325,224,224,224,224,224,224,325,325,325,224,224,325,224,224,325,224,325,325,224,224,224,224,325,325,224,224,325,325,224,224,224,325,325,224,224,325,224,325,325,224,224,325,224,325,325,224,325,224,325,325,325,224,325,325,325,325,224,325,325,224,224,325,224,325,325,224,224,325,325,224,325,325,325,325,224,325,325,325,325,224,325,325,325,325,325,224,224,325,224,224,325,325,224,325,325,224,224,325,224,224,224,224,325,325,224,224,224,325,224,224,224,224,224,224,224,325,224,325,224,325,224,325,224,224,325],"coherence":1,"opposite_coherence":0,"dot_radius":2,"dot_side_length":1,"dot_life":-1,"move_distance":1,"aperture_width":300,"aperture_height":300,"dot_color":["black","black","black","white","black","white","white","black","white","black","white","white","black","white","black","black","white","white","white","black","black","black","black","white","white","black","white","black","black","black","black","black","black","white","black","black","black","white","black","white","white","white","white","black","black","white","white","white","white","white","white","black","white","white","black","white","white","white","black","white","black","white","white","white","white","white","black","black","white","black","black","white","black","black","white","black","black","black","black","black","black","white","white","white","black","black","white","black","black","white","black","white","white","black","black","black","black","white","white","black","black","white","white","black","black","black","white","white","black","black","white","black","white","white","black","black","white","black","white","white","black","white","black","white","white","white","black","white","white","white","white","black","white","white","black","black","white","black","white","white","black","black","white","white","black","white","white","white","white","black","white","white","white","white","black","white","white","white","white","white","black","black","white","black","black","white","white","black","white","white","black","black","white","black","black","black","black","white","white","black","black","black","white","black","black","black","black","black","black","black","white","black","white","black","white","black","white","black","black","white"],"dot_shape":"circle","background_color":"#AAA","RDK_type":3,"aperture_type":2,"reinsert_type":2,"frame_rate":16.816666666666666,"frame_rate_array":[9,17,17,17,17,17,16,16,17,17,17,17,17,17,17,17,17,17,16,17,17,17,17,17,18,15,17,18,17,16,17,17,17,18,17,15,17,17,16,17,17,17,17,20,14,17,17,17,17,17,17,17,17,17,17,17,17,17,17,16,17,17,17,17,17,18,17,15,17,16,17,18,16,17,17,17,17,17,17,17,18,16,17,17,17,16,17,17,16,17,18,16,17,17,17,17,17,17,17,17,17,17,17,16,17,17,17,17,17,17,17,17,17,17,16,17,17,16,17,17],"number_of_frames":120,"aperture_center_x":683,"aperture_center_y":384,"fixation_cross":true,"fixation_cross_width":15,"fixation_cross_height":15,"fixation_cross_color":"#111","fixation_cross_thickness":1,"border":true,"border_thickness":2,"border_color":"transparent","canvas_width":1366,"canvas_height":768,"trial_type":"rdk","trial_index":64,"plugin_version":"2.0.0","time_elapsed":223613},{"rt":5022,"stimulus":"\n        <div class=\"response-container\">\n          <div class=\"response-instruction\">\n            <p>rotate the bar by using the left and right arrow keys.</p>\n            <p>when you are determined, press the Enter key.</p>\n          </div>\n          <div class=\"response-circle\">\n            <div class=\"response-fixation\"></div>\n            <div id=\"bar\" class=\"rotating-bar\"></div>\n          </div>\n        </div>\n      ","response":"Enter","trial_type":"html-keyboard-response","trial_index":65,"plugin_version":"2.1.0","time_elapsed":228636,"response_angle_css":222,"response_angle_rdk":228,"angular_error_target":4,"angular_error_distractor":-97,"target_direction":224,"target_group":"black","reward_points":9},{"rt":null,"stimulus":"\n          <p style=\"color: #00FF00;\">Your reward: 9 points</p>\n        ","response":null,"trial_type":"html-keyboard-response","trial_index":66,"plugin_version":"2.1.0","time_elapsed":230637},{"rt":null,"stimulus":"<div class=\"fixation\" style=\"font-size: 60px;\">+</div>","response":null,"trial_type":"html-keyboard-response","trial_index":67,"plugin_version":"2.1.0","time_elapsed":231650},{"target_group":"white","condition_label":"W_H_vs_B_L_rep22","target_direction":142,"distractor_direction":28,"session_rotation":109,"rt":-1,"response":"","correct":false,"choices":"ALL_KEYS","correct_choice":["a"],"trial_duration":2000,"flip_timestamps":[],"response_ends_trial":false,"number_of_apertures":200,"number_of_dots":[1,1,1,1,1,1,1,1,1,1,1,1,1,1,1,1,1,1,1,1,1,1,1,1,1,1,1,1,1,1,1,1,1,1,1,1,1,1,1,1,1,1,1,1,1,1,1,1,1,1,1,1,1,1,1,1,1,1,1,1,1,1,1,1,1,1,1,1,1,1,1,1,1,1,1,1,1,1,1,1,1,1,1,1,1,1,1,1,1,1,1,1,1,1,1,1,1,1,1,1,1,1,1,1,1,1,1,1,1,1,1,1,1,1,1,1,1,1,1,1,1,1,1,1,1,1,1,1,1,1,1,1,1,1,1,1,1,1,1,1,1,1,1,1,1,1,1,1,1,1,1,1,1,1,1,1,1,1,1,1,1,1,1,1,1,1,1,1,1,1,1,1,1,1,1,1,1,1,1,1,1,1,1,1,1,1,1,1,1,1,1,1,1,1,1,1,1,1,1,1],"number_of_sets":1,"coherent_direction":[142,142,142,142,28,142,142,142,142,28,142,28,28,142,28,142,142,28,142,28,142,28,142,142,28,142,142,28,28,142,28,142,28,28,142,142,28,142,142,142,28,142,28,142,28,142,28,28,142,142,28,142,142,142,142,28,142,28,28,142,28,28,142,28,28,142,142,28,28,142,28,142,142,28,142,28,28,28,142,142,28,28,142,142,28,28,28,142,142,142,142,142,28,142,142,28,142,142,28,28,142,28,28,142,142,142,142,28,142,142,28,28,28,28,28,28,142,28,28,28,28,28,142,28,28,142,142,28,28,28,142,142,142,28,28,142,28,28,28,28,142,28,142,28,142,28,142,28,142,28,142,142,142,28,28,142,28,28,28,142,142,142,142,142,142,28,28,142,142,28,142,28,142,28,142,28,142,142,28,28,28,142,142,28,142,28,28,28,142,28,28,28,142,28,28,28,28,28,142,142],"coherence":1,"opposite_coherence":0,"dot_radius":2,"dot_side_length":1,"dot_life":-1,"move_distance":1,"aperture_width":300,"aperture_height":300,"dot_color":["white","white","white","white","black","white","white","white","white","black","white","black","black","white","black","white","white","black","white","black","white","black","white","white","black","white","white","black","black","white","black","white","black","black","white","white","black","white","white","white","black","white","black","white","black","white","black","black","white","white","black","white","white","white","white","black","white","black","black","white","black","black","white","black","black","white","white","black","black","white","black","white","white","black","white","black","black","black","white","white","black","black","white","white","black","black","black","white","white","white","white","white","black","white","white","black","white","white","black","black","white","black","black","white","white","white","white","black","white","white","black","black","black","black","black","black","white","black","black","black","black","black","white","black","black","white","white","black","black","black","white","white","white","black","black","white","black","black","black","black","white","black","white","black","white","black","white","black","white","black","white","white","white","black","black","white","black","black","black","white","white","white","white","white","white","black","black","white","white","black","white","black","white","black","white","black","white","white","black","black","black","white","white","black","white","black","black","black","white","black","black","black","white","black","black","black","black","black","white","white"],"dot_shape":"circle","background_color":"#AAA","RDK_type":3,"aperture_type":2,"reinsert_type":2,"frame_rate":16.783333333333335,"frame_rate_array":[12,16,17,17,17,17,17,17,18,15,16,17,18,15,17,17,17,17,17,18,17,15,18,16,17,17,16,18,17,16,18,17,17,17,17,17,15,17,17,17,17,17,17,16,17,17,17,17,17,16,18,15,17,17,17,17,16,17,16,17,17,17,18,16,17,17,16,17,18,16,16,17,17,17,17,17,17,17,17,17,17,17,16,17,17,17,18,17,17,15,17,17,16,17,17,17,17,17,17,17,17,16,17,17,17,17,17,17,16,17,17,17,16,17,17,16,17,17,17,17],"number_of_frames":120,"aperture_center_x":683,"aperture_center_y":384,"fixation_cross":true,"fixation_cross_width":15,"fixation_cross_height":15,"fixation_cross_color":"#111","fixation_cross_thickness":1,"border":true,"border_thickness":2,"border_color":"transparent","canvas_width":1366,"canvas_height":768,"trial_type":"rdk","trial_index":68,"plugin_version":"2.0.0","time_elapsed":233655},{"rt":4168,"stimulus":"\n        <div class=\"response-container\">\n          <div class=\"response-instruction\">\n            <p>rotate the bar by using the left and right arrow keys.</p>\n            <p>when you are determined, press the Enter key.</p>\n          </div>\n          <div class=\"response-circle\">\n            <div class=\"response-fixation\"></div>\n            <div id=\"bar\" class=\"rotating-bar\"></div>\n          </div>\n        </div>\n      ","response":"Enter","trial_type":"html-keyboard-response","trial_index":69,"plugin_version":"2.1.0","time_elapsed":237825,"response_angle_css":297,"response_angle_rdk":153,"angular_error_target":11,"angular_error_distractor":125,"target_direction":142,"target_group":"white","reward_points":7},{"rt":null,"stimulus":"\n          <p style=\"color: #00FF00;\">Your reward: 7 points</p>\n        ","response":null,"trial_type":"html-keyboard-response","trial_index":70,"plugin_version":"2.1.0","time_elapsed":239841},{"rt":null,"stimulus":"<div class=\"fixation\" style=\"font-size: 60px;\">+</div>","response":null,"trial_type":"html-keyboard-response","trial_index":71,"plugin_version":"2.1.0","time_elapsed":240855},{"target_group":"black","condition_label":"B_H_vs_W_L_rep7","target_direction":201,"distractor_direction":333,"session_rotation":109,"rt":-1,"response":"","correct":false,"choices":"ALL_KEYS","correct_choice":["a"],"trial_duration":2000,"flip_timestamps":[],"response_ends_trial":false,"number_of_apertures":200,"number_of_dots":[1,1,1,1,1,1,1,1,1,1,1,1,1,1,1,1,1,1,1,1,1,1,1,1,1,1,1,1,1,1,1,1,1,1,1,1,1,1,1,1,1,1,1,1,1,1,1,1,1,1,1,1,1,1,1,1,1,1,1,1,1,1,1,1,1,1,1,1,1,1,1,1,1,1,1,1,1,1,1,1,1,1,1,1,1,1,1,1,1,1,1,1,1,1,1,1,1,1,1,1,1,1,1,1,1,1,1,1,1,1,1,1,1,1,1,1,1,1,1,1,1,1,1,1,1,1,1,1,1,1,1,1,1,1,1,1,1,1,1,1,1,1,1,1,1,1,1,1,1,1,1,1,1,1,1,1,1,1,1,1,1,1,1,1,1,1,1,1,1,1,1,1,1,1,1,1,1,1,1,1,1,1,1,1,1,1,1,1,1,1,1,1,1,1,1,1,1,1,1,1],"number_of_sets":1,"coherent_direction":[333,333,201,333,201,201,201,333,333,333,201,333,333,333,201,333,333,333,333,333,333,201,201,201,333,201,333,333,201,201,333,201,201,333,333,201,201,333,201,333,333,201,201,333,201,333,333,201,333,201,201,333,333,201,333,201,333,333,201,201,333,333,201,201,201,201,333,201,201,201,333,333,201,333,333,333,201,201,333,333,333,333,333,333,201,201,201,201,333,201,201,333,333,201,333,333,333,201,333,201,333,201,201,201,201,333,333,333,201,333,333,201,201,333,201,201,201,201,201,201,333,201,201,333,333,333,201,333,201,333,333,201,333,201,201,333,201,201,201,201,201,201,201,201,201,333,333,333,333,201,333,201,333,201,333,201,333,333,333,333,333,201,201,201,201,201,201,201,201,201,201,333,333,333,333,333,333,201,201,333,201,201,201,333,333,333,201,333,333,201,201,333,201,201,333,201,333,333,333,333],"coherence":1,"opposite_coherence":0,"dot_radius":2,"dot_side_length":1,"dot_life":-1,"move_distance":1,"aperture_width":300,"aperture_height":300,"dot_color":["white","white","black","white","black","black","black","white","white","white","black","white","white","white","black","white","white","white","white","white","white","black","black","black","white","black","white","white","black","black","white","black","black","white","white","black","black","white","black","white","white","black","black","white","black","white","white","black","white","black","black","white","white","black","white","black","white","white","black","black","white","white","black","black","black","black","white","black","black","black","white","white","black","white","white","white","black","black","white","white","white","white","white","white","black","black","black","black","white","black","black","white","white","black","white","white","white","black","white","black","white","black","black","black","black","white","white","white","black","white","white","black","black","white","black","black","black","black","black","black","white","black","black","white","white","white","black","white","black","white","white","black","white","black","black","white","black","black","black","black","black","black","black","black","black","white","white","white","white","black","white","black","white","black","white","black","white","white","white","white","white","black","black","black","black","black","black","black","black","black","black","white","white","white","white","white","white","black","black","white","black","black","black","white","white","white","black","white","white","black","black","white","black","black","white","black","white","white","white","white"],"dot_shape":"circle","background_color":"#AAA","RDK_type":3,"aperture_type":2,"reinsert_type":2,"frame_rate":16.9,"frame_rate_array":[14,16,17,17,16,17,17,17,17,18,16,17,17,16,17,17,17,17,16,17,18,15,17,17,17,17,17,17,18,16,17,17,17,17,16,17,17,17,17,18,16,17,17,18,16,17,17,17,17,17,17,17,17,17,17,17,17,17,18,17,16,18,16,18,16,17,17,16,17,17,17,18,17,16,17,18,16,18,16,17,17,16,17,17,17,17,17,17,17,17,17,17,17,17,17,17,17,17,17,17,17,17,17,17,17,17,17,17,17,16,17,17,17,17,17,17,17,17,18,16],"number_of_frames":120,"aperture_center_x":683,"aperture_center_y":384,"fixation_cross":true,"fixation_cross_width":15,"fixation_cross_height":15,"fixation_cross_color":"#111","fixation_cross_thickness":1,"border":true,"border_thickness":2,"border_color":"transparent","canvas_width":1366,"canvas_height":768,"trial_type":"rdk","trial_index":72,"plugin_version":"2.0.0","time_elapsed":242863},{"rt":2869,"stimulus":"\n        <div class=\"response-container\">\n          <div class=\"response-instruction\">\n            <p>rotate the bar by using the left and right arrow keys.</p>\n            <p>when you are determined, press the Enter key.</p>\n          </div>\n          <div class=\"response-circle\">\n            <div class=\"response-fixation\"></div>\n            <div id=\"bar\" class=\"rotating-bar\"></div>\n          </div>\n        </div>\n      ","response":"Enter","trial_type":"html-keyboard-response","trial_index":73,"plugin_version":"2.1.0","time_elapsed":245733,"response_angle_css":258,"response_angle_rdk":192,"angular_error_target":-9,"angular_error_distractor":-141,"target_direction":201,"target_group":"black","reward_points":8},{"rt":null,"stimulus":"\n          <p style=\"color: #00FF00;\">Your reward: 8 points</p>\n        ","response":null,"trial_type":"html-keyboard-response","trial_index":74,"plugin_version":"2.1.0","time_elapsed":247746},{"rt":null,"stimulus":"<div class=\"fixation\" style=\"font-size: 60px;\">+</div>","response":null,"trial_type":"html-keyboard-response","trial_index":75,"plugin_version":"2.1.0","time_elapsed":248754},{"target_group":"black","condition_label":"B_H_vs_W_L_rep24","target_direction":235,"distractor_direction":326,"session_rotation":109,"rt":-1,"response":"","correct":false,"choices":"ALL_KEYS","correct_choice":["a"],"trial_duration":2000,"flip_timestamps":[],"response_ends_trial":false,"number_of_apertures":200,"number_of_dots":[1,1,1,1,1,1,1,1,1,1,1,1,1,1,1,1,1,1,1,1,1,1,1,1,1,1,1,1,1,1,1,1,1,1,1,1,1,1,1,1,1,1,1,1,1,1,1,1,1,1,1,1,1,1,1,1,1,1,1,1,1,1,1,1,1,1,1,1,1,1,1,1,1,1,1,1,1,1,1,1,1,1,1,1,1,1,1,1,1,1,1,1,1,1,1,1,1,1,1,1,1,1,1,1,1,1,1,1,1,1,1,1,1,1,1,1,1,1,1,1,1,1,1,1,1,1,1,1,1,1,1,1,1,1,1,1,1,1,1,1,1,1,1,1,1,1,1,1,1,1,1,1,1,1,1,1,1,1,1,1,1,1,1,1,1,1,1,1,1,1,1,1,1,1,1,1,1,1,1,1,1,1,1,1,1,1,1,1,1,1,1,1,1,1,1,1,1,1,1,1],"number_of_sets":1,"coherent_direction":[326,235,326,326,235,235,326,235,326,235,326,235,326,235,326,235,326,326,235,326,326,235,235,235,235,326,326,235,326,326,326,235,326,235,326,235,235,326,235,235,235,235,235,326,326,326,235,326,326,326,326,235,326,235,326,235,235,326,235,326,235,235,235,235,326,235,235,235,326,235,326,235,326,235,326,326,235,326,326,235,326,326,235,235,326,326,235,326,235,235,326,326,326,235,235,235,326,235,326,326,326,326,235,326,235,235,235,235,235,235,326,326,235,326,326,326,326,326,235,235,235,235,326,235,326,235,326,326,326,235,235,326,326,235,326,235,326,235,326,326,235,326,326,326,326,326,235,326,235,235,235,235,235,326,326,326,326,326,235,235,326,235,326,235,326,326,326,235,235,326,235,235,326,326,326,235,235,326,326,235,235,235,326,235,235,326,235,235,235,235,326,235,235,235,326,326,235,326,235,326],"coherence":1,"opposite_coherence":0,"dot_radius":2,"dot_side_length":1,"dot_life":-1,"move_distance":1,"aperture_width":300,"aperture_height":300,"dot_color":["white","black","white","white","black","black","white","black","white","black","white","black","white","black","white","black","white","white","black","white","white","black","black","black","black","white","white","black","white","white","white","black","white","black","white","black","black","white","black","black","black","black","black","white","white","white","black","white","white","white","white","black","white","black","white","black","black","white","black","white","black","black","black","black","white","black","black","black","white","black","white","black","white","black","white","white","black","white","white","black","white","white","black","black","white","white","black","white","black","black","white","white","white","black","black","black","white","black","white","white","white","white","black","white","black","black","black","black","black","black","white","white","black","white","white","white","white","white","black","black","black","black","white","black","white","black","white","white","white","black","black","white","white","black","white","black","white","black","white","white","black","white","white","white","white","white","black","white","black","black","black","black","black","white","white","white","white","white","black","black","white","black","white","black","white","white","white","black","black","white","black","black","white","white","white","black","black","white","white","black","black","black","white","black","black","white","black","black","black","black","white","black","black","black","white","white","black","white","black","white"],"dot_shape":"circle","background_color":"#AAA","RDK_type":3,"aperture_type":2,"reinsert_type":2,"frame_rate":16.775,"frame_rate_array":[3,15,17,17,17,17,17,17,17,17,18,17,16,17,17,17,17,18,16,17,17,18,17,17,17,16,16,18,16,16,17,16,17,17,17,18,17,16,17,18,16,17,17,17,16,17,17,17,17,16,17,17,17,17,17,17,17,17,17,17,17,17,17,17,17,17,17,18,15,17,17,17,16,18,16,17,17,18,16,16,17,18,17,17,17,17,17,15,17,17,17,17,17,17,17,17,17,17,17,18,16,17,17,17,16,17,17,17,17,17,17,17,17,17,17,17,17,17,16,17],"number_of_frames":120,"aperture_center_x":683,"aperture_center_y":384,"fixation_cross":true,"fixation_cross_width":15,"fixation_cross_height":15,"fixation_cross_color":"#111","fixation_cross_thickness":1,"border":true,"border_thickness":2,"border_color":"transparent","canvas_width":1366,"canvas_height":768,"trial_type":"rdk","trial_index":76,"plugin_version":"2.0.0","time_elapsed":250762},{"rt":4160,"stimulus":"\n        <div class=\"response-container\">\n          <div class=\"response-instruction\">\n            <p>rotate the bar by using the left and right arrow keys.</p>\n            <p>when you are determined, press the Enter key.</p>\n          </div>\n          <div class=\"response-circle\">\n            <div class=\"response-fixation\"></div>\n            <div id=\"bar\" class=\"rotating-bar\"></div>\n          </div>\n        </div>\n      ","response":"Enter","trial_type":"html-keyboard-response","trial_index":77,"plugin_version":"2.1.0","time_elapsed":254924,"response_angle_css":216,"response_angle_rdk":234,"angular_error_target":-1,"angular_error_distractor":-92,"target_direction":235,"target_group":"black","reward_points":9},{"rt":null,"stimulus":"\n          <p style=\"color: #00FF00;\">Your reward: 9 points</p>\n        ","response":null,"trial_type":"html-keyboard-response","trial_index":78,"plugin_version":"2.1.0","time_elapsed":256933},{"rt":null,"stimulus":"<div class=\"fixation\" style=\"font-size: 60px;\">+</div>","response":null,"trial_type":"html-keyboard-response","trial_index":79,"plugin_version":"2.1.0","time_elapsed":257937},{"target_group":"black","condition_label":"B_H_vs_W_L_rep18","target_direction":206,"distractor_direction":296,"session_rotation":109,"rt":-1,"response":"","correct":false,"choices":"ALL_KEYS","correct_choice":["a"],"trial_duration":2000,"flip_timestamps":[],"response_ends_trial":false,"number_of_apertures":200,"number_of_dots":[1,1,1,1,1,1,1,1,1,1,1,1,1,1,1,1,1,1,1,1,1,1,1,1,1,1,1,1,1,1,1,1,1,1,1,1,1,1,1,1,1,1,1,1,1,1,1,1,1,1,1,1,1,1,1,1,1,1,1,1,1,1,1,1,1,1,1,1,1,1,1,1,1,1,1,1,1,1,1,1,1,1,1,1,1,1,1,1,1,1,1,1,1,1,1,1,1,1,1,1,1,1,1,1,1,1,1,1,1,1,1,1,1,1,1,1,1,1,1,1,1,1,1,1,1,1,1,1,1,1,1,1,1,1,1,1,1,1,1,1,1,1,1,1,1,1,1,1,1,1,1,1,1,1,1,1,1,1,1,1,1,1,1,1,1,1,1,1,1,1,1,1,1,1,1,1,1,1,1,1,1,1,1,1,1,1,1,1,1,1,1,1,1,1,1,1,1,1,1,1],"number_of_sets":1,"coherent_direction":[206,296,296,296,296,206,206,206,296,206,206,206,296,296,206,206,296,206,296,296,296,206,296,206,296,206,296,206,206,296,296,296,296,296,296,206,296,206,296,296,296,296,206,206,296,296,296,206,296,206,206,206,296,296,206,206,206,206,296,206,296,296,206,206,206,206,296,296,206,296,206,296,206,296,296,296,296,206,296,296,206,296,206,296,206,296,296,206,296,206,206,296,206,206,206,206,206,206,296,206,206,296,206,296,206,206,296,296,296,206,206,206,206,296,206,296,296,296,296,206,206,206,296,296,206,296,296,206,206,206,206,296,206,206,296,296,206,206,296,206,296,206,296,296,296,206,296,206,206,296,206,206,296,206,296,206,296,296,206,296,296,206,296,206,296,296,206,296,206,206,296,206,296,206,206,296,206,296,206,206,206,206,296,296,206,206,206,206,206,206,296,296,206,296,296,296,296,296,296,296],"coherence":1,"opposite_coherence":0,"dot_radius":2,"dot_side_length":1,"dot_life":-1,"move_distance":1,"aperture_width":300,"aperture_height":300,"dot_color":["black","white","white","white","white","black","black","black","white","black","black","black","white","white","black","black","white","black","white","white","white","black","white","black","white","black","white","black","black","white","white","white","white","white","white","black","white","black","white","white","white","white","black","black","white","white","white","black","white","black","black","black","white","white","black","black","black","black","white","black","white","white","black","black","black","black","white","white","black","white","black","white","black","white","white","white","white","black","white","white","black","white","black","white","black","white","white","black","white","black","black","white","black","black","black","black","black","black","white","black","black","white","black","white","black","black","white","white","white","black","black","black","black","white","black","white","white","white","white","black","black","black","white","white","black","white","white","black","black","black","black","white","black","black","white","white","black","black","white","black","white","black","white","white","white","black","white","black","black","white","black","black","white","black","white","black","white","white","black","white","white","black","white","black","white","white","