[{"rt":1405,"stimulus":"Welcome to the experiment. Press any key to begin.","response":" ","trial_type":"html-keyboard-response","trial_index":0,"plugin_version":"2.1.0","time_elapsed":1407},{"rt":16473,"stimulus":"\n        <div class=\"instructions-container\">\n          <h2>Instructions</h2>\n\n          <p>\n          In this experiment, you will see <strong>two Random Dot Kinematograms (RDKs)</strong> displayed simultaneously.\n          </p>\n\n          <p>\n          An RDK is a visual stimulus consisting of many small dots that move coherently in a single direction. \n          In this experiment, the dots will be either <strong>white</strong> or <strong>black</strong> \n          (see the short demo below for an example of an RDK stimulus).\n          </p>\n\n          <p>\n          On each trial, the two RDKs will move in different directions. \n          Your task is to decide <strong>which RDK appears to contain more dots</strong>.\n          </p>\n\n          <p>\n          The RDK that you judge to have more dots is called the <strong>target RDK</strong>. \n          For example, if the white RDK appears to have more dots than the black RDK, \n          you should report the motion direction of the white RDK.\n          </p>\n\n          <p>\n          After viewing the RDKs, you will rotate a bar to indicate the perceived direction of the target RDK \n          using the <strong>left</strong> and <strong>right arrow keys</strong>. \n          Press <strong>Enter</strong> when you are satisfied with your response.\n          When the bar is held down, the rotation speed increases.\n          </p>\n\n          <p>\n          You will receive points based on the <strong>accuracy of your response</strong>, \n          and your final <strong>bonus reward</strong> may depend on your overall performance. \n          Please try to respond as accurately as possible.\n          </p>\n\n          <p>\n          You will first complete <strong>16 practice trials</strong>. \n          Press the <strong>Enter</strong> key to start the practice phase.\n          </p>\n\n          <canvas id=\"instruction-demo-rdk\" width=\"200\" height=\"200\"style=\"display:block;margin:12px auto; border-radius: 50%;\"></canvas>\n        </div>\n      ","response":"Enter","trial_type":"html-keyboard-response","trial_index":1,"plugin_version":"2.1.0","time_elapsed":17880},{"rt":null,"stimulus":"<div class=\"fixation\" style=\"font-size: 60px;\">+</div>","response":null,"trial_type":"html-keyboard-response","trial_index":2,"plugin_version":"2.1.0","time_elapsed":18888},{"target_group":"white","target_index":0,"condition_label":"practice","rt":-1,"response":"","correct":false,"choices":"ALL_KEYS","correct_choice":["a"],"trial_duration":2000,"flip_timestamps":[],"response_ends_trial":false,"number_of_apertures":2,"number_of_dots":[100,61],"number_of_sets":1,"coherent_direction":[162,11],"coherence":1,"opposite_coherence":0,"dot_radius":2,"dot_side_length":1,"dot_life":-1,"move_distance":1,"aperture_width":300,"aperture_height":300,"dot_color":["white","black"],"dot_shape":"circle","background_color":"#AAA","RDK_type":3,"aperture_type":2,"reinsert_type":2,"frame_rate":8.257261410788383,"frame_rate_array":[4,7,10,8,8,8,8,8,8,8,8,8,11,6,8,9,9,8,8,8,8,8,8,8,9,8,8,8,8,9,8,8,8,9,8,8,8,8,9,8,9,9,8,9,8,8,8,8,8,8,8,9,8,8,8,8,8,9,8,8,8,9,8,8,8,8,9,9,9,8,8,8,8,8,8,8,8,8,8,9,8,8,9,8,9,8,8,9,9,8,9,8,8,9,8,8,8,8,8,8,8,8,9,8,8,8,8,8,8,8,8,9,8,8,8,8,8,8,9,8,8,8,8,8,9,9,8,8,8,8,9,8,8,9,8,8,8,8,8,9,9,8,8,8,8,9,9,8,8,9,8,8,9,8,8,8,8,9,8,8,9,9,8,8,9,8,8,8,8,9,9,8,8,8,8,8,9,9,9,8,8,8,8,8,9,8,8,8,9,9,9,7,8,8,8,8,9,8,9,8,8,8,9,8,9,8,8,8,8,9,8,8,8,9,9,8,9,8,9,8,8,9,8,9,8,9,9,9,8,8,8,9,9,8,8,9,8,8,8,8,8],"number_of_frames":241,"aperture_center_x":768,"aperture_center_y":432,"fixation_cross":true,"fixation_cross_width":15,"fixation_cross_height":15,"fixation_cross_color":"#111","fixation_cross_thickness":1,"border":true,"border_thickness":2,"border_color":"transparent","canvas_width":1536,"canvas_height":864,"trial_type":"rdk","trial_index":3,"plugin_version":"2.0.0","time_elapsed":20900,"phase":"practice","target_direction":162,"distractor_direction":11},{"rt":5883,"stimulus":"\n        <div class=\"response-container\">\n          <div class=\"response-instruction\">\n            <p>rotate the bar by using the left and right arrow keys.</p>\n            <p>when you are determined, press the Enter key.</p>\n          </div>\n          <div class=\"response-circle\">\n            <div class=\"response-fixation\"></div>\n            <div id=\"bar\" class=\"rotating-bar\"></div>\n          </div>\n        </div>\n      ","response":"Enter","trial_type":"html-keyboard-response","trial_index":4,"plugin_version":"2.1.0","time_elapsed":26784,"random_initial_angle":171,"response_angle_css":302,"response_angle_rdk":148,"angular_error_target":-14,"angular_error_distractor":137,"target_direction":162,"target_group":"white","reward_points":7},{"rt":null,"stimulus":"\n          <p style=\"color: #00FF00;\">Your reward: 7 points</p>\n        ","response":null,"trial_type":"html-keyboard-response","trial_index":5,"plugin_version":"2.1.0","time_elapsed":28791},{"rt":null,"stimulus":"<div class=\"fixation\" style=\"font-size: 60px;\">+</div>","response":null,"trial_type":"html-keyboard-response","trial_index":6,"plugin_version":"2.1.0","time_elapsed":29798},{"target_group":"black","target_index":1,"condition_label":"practice","rt":-1,"response":"","correct":false,"choices":"ALL_KEYS","correct_choice":["a"],"trial_duration":2000,"flip_timestamps":[],"response_ends_trial":false,"number_of_apertures":2,"number_of_dots":[57,100],"number_of_sets":1,"coherent_direction":[345,92],"coherence":1,"opposite_coherence":0,"dot_radius":2,"dot_side_length":1,"dot_life":-1,"move_distance":1,"aperture_width":300,"aperture_height":300,"dot_color":["white","black"],"dot_shape":"circle","background_color":"#AAA","RDK_type":3,"aperture_type":2,"reinsert_type":2,"frame_rate":8.224066390041493,"frame_rate_array":[1,8,9,8,9,9,7,8,9,8,8,8,8,8,8,8,8,8,8,9,8,8,8,8,8,8,9,8,8,9,9,8,8,8,8,8,8,8,8,8,9,8,8,9,8,9,8,8,8,8,9,8,9,8,8,8,9,8,9,9,8,7,8,8,9,8,8,8,9,8,8,8,8,8,8,9,8,9,9,9,8,8,9,8,8,8,8,9,8,8,8,9,8,8,8,9,8,8,8,8,8,8,8,9,8,8,8,8,8,8,8,9,8,8,9,8,9,8,9,8,8,8,8,8,9,9,8,9,8,8,8,8,9,8,8,8,8,8,9,8,8,8,9,8,9,8,8,14,3,9,9,8,8,8,8,9,8,9,8,8,8,9,8,8,8,8,8,8,8,8,8,9,9,9,8,8,9,8,8,8,8,9,8,8,8,9,9,8,9,8,8,8,8,9,9,8,8,8,9,9,8,8,8,9,8,8,8,8,8,9,8,8,8,8,8,8,8,9,7,9,9,8,8,8,8,8,8,8,8,8,8,9,8,9,9,8,8,8,8,8,8],"number_of_frames":241,"aperture_center_x":768,"aperture_center_y":432,"fixation_cross":true,"fixation_cross_width":15,"fixation_cross_height":15,"fixation_cross_color":"#111","fixation_cross_thickness":1,"border":true,"border_thickness":2,"border_color":"transparent","canvas_width":1536,"canvas_height":864,"trial_type":"rdk","trial_index":7,"plugin_version":"2.0.0","time_elapsed":31805,"phase":"practice","target_direction":92,"distractor_direction":345},{"rt":1968,"stimulus":"\n        <div class=\"response-container\">\n          <div class=\"response-instruction\">\n            <p>rotate the bar by using the left and right arrow keys.</p>\n            <p>when you are determined, press the Enter key.</p>\n          </div>\n          <div class=\"response-circle\">\n            <div class=\"response-fixation\"></div>\n            <div id=\"bar\" class=\"rotating-bar\"></div>\n          </div>\n        </div>\n      ","response":"Enter","trial_type":"html-keyboard-response","trial_index":8,"plugin_version":"2.1.0","time_elapsed":33774,"random_initial_angle":13,"response_angle_css":-20,"response_angle_rdk":110,"angular_error_target":18,"angular_error_distractor":125,"target_direction":92,"target_group":"black","reward_points":6},{"rt":null,"stimulus":"\n          <p style=\"color: #00FF00;\">Your reward: 6 points</p>\n        ","response":null,"trial_type":"html-keyboard-response","trial_index":9,"plugin_version":"2.1.0","time_elapsed":35785},{"rt":null,"stimulus":"<div class=\"fixation\" style=\"font-size: 60px;\">+</div>","response":null,"trial_type":"html-keyboard-response","trial_index":10,"plugin_version":"2.1.0","time_elapsed":36798},{"target_group":"black","target_index":1,"condition_label":"practice","rt":-1,"response":"","correct":false,"choices":"ALL_KEYS","correct_choice":["a"],"trial_duration":2000,"flip_timestamps":[],"response_ends_trial":false,"number_of_apertures":2,"number_of_dots":[95,100],"number_of_sets":1,"coherent_direction":[209,46],"coherence":1,"opposite_coherence":0,"dot_radius":2,"dot_side_length":1,"dot_life":-1,"move_distance":1,"aperture_width":300,"aperture_height":300,"dot_color":["white","black"],"dot_shape":"circle","background_color":"#AAA","RDK_type":3,"aperture_type":2,"reinsert_type":2,"frame_rate":8.244813278008298,"frame_rate_array":[3,8,8,10,7,9,8,9,8,8,8,8,9,8,8,8,8,9,8,8,9,9,8,9,8,8,8,8,8,8,8,8,8,9,8,8,8,8,8,8,9,8,9,8,8,8,8,8,8,9,8,8,9,8,8,8,9,9,8,8,8,8,9,8,9,9,8,9,8,8,8,8,9,8,8,8,8,8,8,8,9,8,8,9,8,8,9,8,9,8,9,8,8,8,8,9,8,8,8,9,8,8,9,8,8,8,8,9,8,8,9,8,9,8,8,8,8,8,8,8,8,8,9,8,8,8,9,9,9,8,8,9,8,9,8,8,9,8,8,8,8,8,8,9,9,8,9,7,9,9,8,8,9,8,8,9,8,8,8,9,8,8,9,8,8,8,8,8,8,9,8,8,8,9,8,8,8,9,8,8,9,8,8,9,8,8,9,8,8,9,8,8,8,8,8,8,8,9,8,8,8,9,8,8,8,9,8,8,8,8,8,9,9,8,8,8,9,8,8,8,8,8,9,8,8,8,8,9,8,8,8,8,9,8,8,9,8,9,8,8,8],"number_of_frames":241,"aperture_center_x":768,"aperture_center_y":432,"fixation_cross":true,"fixation_cross_width":15,"fixation_cross_height":15,"fixation_cross_color":"#111","fixation_cross_thickness":1,"border":true,"border_thickness":2,"border_color":"transparent","canvas_width":1536,"canvas_height":864,"trial_type":"rdk","trial_index":11,"plugin_version":"2.0.0","time_elapsed":38808,"phase":"practice","target_direction":46,"distractor_direction":209},{"rt":3070,"stimulus":"\n        <div class=\"response-container\">\n          <div class=\"response-instruction\">\n            <p>rotate the bar by using the left and right arrow keys.</p>\n            <p>when you are determined, press the Enter key.</p>\n          </div>\n          <div class=\"response-circle\">\n            <div class=\"response-fixation\"></div>\n            <div id=\"bar\" class=\"rotating-bar\"></div>\n          </div>\n        </div>\n      ","response":"Enter","trial_type":"html-keyboard-response","trial_index":12,"plugin_version":"2.1.0","time_elapsed":41879,"random_initial_angle":242,"response_angle_css":399,"response_angle_rdk":51,"angular_error_target":5,"angular_error_distractor":-158,"target_direction":46,"target_group":"black","reward_points":9},{"rt":null,"stimulus":"\n          <p style=\"color: #00FF00;\">Your reward: 9 points</p>\n        ","response":null,"trial_type":"html-keyboard-response","trial_index":13,"plugin_version":"2.1.0","time_elapsed":43896},{"rt":null,"stimulus":"<div class=\"fixation\" style=\"font-size: 60px;\">+</div>","response":null,"trial_type":"html-keyboard-response","trial_index":14,"plugin_version":"2.1.0","time_elapsed":44905},{"target_group":"white","target_index":0,"condition_label":"practice","rt":-1,"response":"","correct":false,"choices":"ALL_KEYS","correct_choice":["a"],"trial_duration":2000,"flip_timestamps":[],"response_ends_trial":false,"number_of_apertures":2,"number_of_dots":[100,57],"number_of_sets":1,"coherent_direction":[37,295],"coherence":1,"opposite_coherence":0,"dot_radius":2,"dot_side_length":1,"dot_life":-1,"move_distance":1,"aperture_width":300,"aperture_height":300,"dot_color":["white","black"],"dot_shape":"circle","background_color":"#AAA","RDK_type":3,"aperture_type":2,"reinsert_type":2,"frame_rate":8.219917012448132,"frame_rate_array":[4,8,9,9,8,8,9,8,8,8,8,9,8,8,8,8,8,8,8,8,8,8,8,8,8,8,8,8,8,8,8,9,8,8,8,8,8,8,8,8,8,8,8,9,8,8,8,8,9,8,8,8,8,8,9,8,9,8,8,8,9,8,9,8,8,8,9,8,8,8,8,8,8,9,9,8,8,9,8,9,8,9,8,8,9,8,8,8,8,8,9,8,9,8,9,8,8,8,9,8,8,8,9,8,8,9,8,8,8,8,8,8,8,9,8,8,8,8,8,8,9,8,8,9,9,8,9,8,8,8,8,8,9,9,9,9,8,7,9,8,9,8,8,9,8,8,8,8,8,9,8,8,9,8,8,8,8,9,9,8,8,9,8,8,8,8,8,8,8,8,9,8,8,8,9,8,8,8,8,8,8,9,8,9,8,8,8,8,8,9,8,8,8,8,9,9,8,8,8,8,8,9,8,8,8,8,8,8,9,8,8,8,8,8,8,8,9,8,9,8,8,8,9,7,9,8,9,9,8,9,8,8,8,9,8,8,9,8,8,8,8],"number_of_frames":241,"aperture_center_x":768,"aperture_center_y":432,"fixation_cross":true,"fixation_cross_width":15,"fixation_cross_height":15,"fixation_cross_color":"#111","fixation_cross_thickness":1,"border":true,"border_thickness":2,"border_color":"transparent","canvas_width":1536,"canvas_height":864,"trial_type":"rdk","trial_index":15,"plugin_version":"2.0.0","time_elapsed":46912,"phase":"practice","target_direction":37,"distractor_direction":295},{"rt":2558,"stimulus":"\n        <div class=\"response-container\">\n          <div class=\"response-instruction\">\n            <p>rotate the bar by using the left and right arrow keys.</p>\n            <p>when you are determined, press the Enter key.</p>\n          </div>\n          <div class=\"response-circle\">\n            <div class=\"response-fixation\"></div>\n            <div id=\"bar\" class=\"rotating-bar\"></div>\n          </div>\n        </div>\n      ","response":"Enter","trial_type":"html-keyboard-response","trial_index":16,"plugin_version":"2.1.0","time_elapsed":49471,"random_initial_angle":96,"response_angle_css":48,"response_angle_rdk":42,"angular_error_target":5,"angular_error_distractor":107,"target_direction":37,"target_group":"white","reward_points":9},{"rt":null,"stimulus":"\n          <p style=\"color: #00FF00;\">Your reward: 9 points</p>\n        ","response":null,"trial_type":"html-keyboard-response","trial_index":17,"plugin_version":"2.1.0","time_elapsed":51487},{"rt":null,"stimulus":"<div class=\"fixation\" style=\"font-size: 60px;\">+</div>","response":null,"trial_type":"html-keyboard-response","trial_index":18,"plugin_version":"2.1.0","time_elapsed":52496},{"target_group":"white","target_index":0,"condition_label":"practice","rt":-1,"response":"","correct":false,"choices":"ALL_KEYS","correct_choice":["a"],"trial_duration":2000,"flip_timestamps":[],"response_ends_trial":false,"number_of_apertures":2,"number_of_dots":[100,64],"number_of_sets":1,"coherent_direction":[254,121],"coherence":1,"opposite_coherence":0,"dot_radius":2,"dot_side_length":1,"dot_life":-1,"move_distance":1,"aperture_width":300,"aperture_height":300,"dot_color":["white","black"],"dot_shape":"circle","background_color":"#AAA","RDK_type":3,"aperture_type":2,"reinsert_type":2,"frame_rate":8.248962655601659,"frame_rate_array":[2,8,9,8,9,8,8,8,8,8,8,8,9,8,9,8,8,9,8,8,8,8,9,8,9,8,8,9,8,8,9,8,8,8,9,9,8,8,8,8,9,8,8,8,10,7,8,8,8,8,8,8,8,8,8,8,9,9,8,8,9,8,8,8,8,9,8,8,9,8,8,8,8,8,9,8,9,8,8,9,8,8,8,8,9,8,9,8,9,8,8,9,8,9,9,8,8,8,9,8,8,9,8,8,8,8,8,9,9,8,8,9,8,9,8,9,8,8,8,9,8,9,9,8,8,9,8,8,8,9,8,8,8,9,8,8,8,8,9,8,8,8,8,8,8,8,8,8,8,9,8,8,8,8,9,8,9,9,8,8,8,8,9,8,9,8,8,8,8,8,8,8,8,9,8,8,9,8,8,8,8,8,9,8,8,8,8,9,8,9,8,8,9,9,8,8,8,8,8,8,8,8,8,8,8,9,8,8,9,8,7,9,8,9,8,8,9,8,9,8,8,9,8,8,8,9,9,8,9,9,8,8,8,8,9,9,8,8,8,8,8],"number_of_frames":241,"aperture_center_x":768,"aperture_center_y":432,"fixation_cross":true,"fixation_cross_width":15,"fixation_cross_height":15,"fixation_cross_color":"#111","fixation_cross_thickness":1,"border":true,"border_thickness":2,"border_color":"transparent","canvas_width":1536,"canvas_height":864,"trial_type":"rdk","trial_index":19,"plugin_version":"2.0.0","time_elapsed":54504,"phase":"practice","target_direction":254,"distractor_direction":121},{"rt":3374,"stimulus":"\n        <div class=\"response-container\">\n          <div class=\"response-instruction\">\n            <p>rotate the bar by using the left and right arrow keys.</p>\n            <p>when you are determined, press the Enter key.</p>\n          </div>\n          <div class=\"response-circle\">\n            <div class=\"response-fixation\"></div>\n            <div id=\"bar\" class=\"rotating-bar\"></div>\n          </div>\n        </div>\n      ","response":"Enter","trial_type":"html-keyboard-response","trial_index":20,"plugin_version":"2.1.0","time_elapsed":57879,"random_initial_angle":32,"response_angle_css":194,"response_angle_rdk":256,"angular_error_target":2,"angular_error_distractor":135,"target_direction":254,"target_group":"white","reward_points":9},{"rt":null,"stimulus":"\n          <p style=\"color: #00FF00;\">Your reward: 9 points</p>\n        ","response":null,"trial_type":"html-keyboard-response","trial_index":21,"plugin_version":"2.1.0","time_elapsed":59888},{"rt":null,"stimulus":"<div class=\"fixation\" style=\"font-size: 60px;\">+</div>","response":null,"trial_type":"html-keyboard-response","trial_index":22,"plugin_version":"2.1.0","time_elapsed":60898},{"target_group":"black","target_index":1,"condition_label":"practice","rt":-1,"response":"","correct":false,"choices":"ALL_KEYS","correct_choice":["a"],"trial_duration":2000,"flip_timestamps":[],"response_ends_trial":false,"number_of_apertures":2,"number_of_dots":[88,100],"number_of_sets":1,"coherent_direction":[33,185],"coherence":1,"opposite_coherence":0,"dot_radius":2,"dot_side_length":1,"dot_life":-1,"move_distance":1,"aperture_width":300,"aperture_height":300,"dot_color":["white","black"],"dot_shape":"circle","background_color":"#AAA","RDK_type":3,"aperture_type":2,"reinsert_type":2,"frame_rate":8.265560165975105,"frame_rate_array":[9,5,8,9,8,8,8,8,9,8,8,8,9,8,8,8,8,8,9,9,8,9,8,8,9,9,8,8,8,8,8,8,8,8,8,9,9,8,9,8,8,8,9,8,8,8,8,8,9,8,9,8,9,8,9,8,8,8,8,8,9,9,8,8,9,8,8,8,8,8,9,8,8,8,8,8,9,8,8,8,8,8,8,8,8,9,9,8,9,8,9,8,8,7,9,9,8,8,8,8,8,9,8,8,8,9,8,9,8,9,8,8,8,8,8,8,9,9,8,8,8,8,8,9,8,8,8,8,8,8,8,8,9,9,8,8,8,8,9,8,9,8,9,8,8,9,8,8,8,9,8,8,8,9,8,8,9,8,8,8,8,9,8,8,8,8,9,8,8,9,8,8,8,9,9,8,8,9,8,8,8,8,9,9,8,8,9,8,8,9,8,9,9,8,8,8,8,8,8,8,9,9,8,8,8,9,8,8,8,8,8,9,8,8,8,9,8,8,8,8,9,9,8,8,8,8,9,8,8,8,8,9,8,9,8,9,8,9,8,8,8],"number_of_frames":241,"aperture_center_x":768,"aperture_center_y":432,"fixation_cross":true,"fixation_cross_width":15,"fixation_cross_height":15,"fixation_cross_color":"#111","fixation_cross_thickness":1,"border":true,"border_thickness":2,"border_color":"transparent","canvas_width":1536,"canvas_height":864,"trial_type":"rdk","trial_index":23,"plugin_version":"2.0.0","time_elapsed":62909,"phase":"practice","target_direction":185,"distractor_direction":33},{"rt":2217,"stimulus":"\n        <div class=\"response-container\">\n          <div class=\"response-instruction\">\n            <p>rotate the bar by using the left and right arrow keys.</p>\n            <p>when you are determined, press the Enter key.</p>\n          </div>\n          <div class=\"response-circle\">\n            <div class=\"response-fixation\"></div>\n            <div id=\"bar\" class=\"rotating-bar\"></div>\n          </div>\n        </div>\n      ","response":"Enter","trial_type":"html-keyboard-response","trial_index":24,"plugin_version":"2.1.0","time_elapsed":65127,"random_initial_angle":125,"response_angle_css":246,"response_angle_rdk":204,"angular_error_target":19,"angular_error_distractor":171,"target_direction":185,"target_group":"black","reward_points":6},{"rt":null,"stimulus":"\n          <p style=\"color: #00FF00;\">Your reward: 6 points</p>\n        ","response":null,"trial_type":"html-keyboard-response","trial_index":25,"plugin_version":"2.1.0","time_elapsed":67139},{"rt":null,"stimulus":"<div class=\"fixation\" style=\"font-size: 60px;\">+</div>","response":null,"trial_type":"html-keyboard-response","trial_index":26,"plugin_version":"2.1.0","time_elapsed":68152},{"target_group":"white","target_index":0,"condition_label":"practice","rt":-1,"response":"","correct":false,"choices":"ALL_KEYS","correct_choice":["a"],"trial_duration":2000,"flip_timestamps":[],"response_ends_trial":false,"number_of_apertures":2,"number_of_dots":[100,67],"number_of_sets":1,"coherent_direction":[6,120],"coherence":1,"opposite_coherence":0,"dot_radius":2,"dot_side_length":1,"dot_life":-1,"move_distance":1,"aperture_width":300,"aperture_height":300,"dot_color":["white","black"],"dot_shape":"circle","background_color":"#AAA","RDK_type":3,"aperture_type":2,"reinsert_type":2,"frame_rate":8.254166666666666,"frame_rate_array":[4,9,8,8,9,8,8,8,8,8,8,9,8,9,8,9,8,9,8,8,8,8,8,9,8,8,8,9,8,9,8,8,9,8,8,8,9,8,8,8,9,8,8,8,8,9,8,8,8,8,8,9,8,8,9,9,8,8,9,8,8,8,8,8,8,8,8,8,9,8,8,8,8,9,8,9,8,8,8,8,8,9,8,8,8,8,8,9,8,8,9,8,8,8,8,8,8,9,8,8,8,8,8,8,9,9,8,9,9,8,8,8,8,8,9,8,9,9,8,8,9,8,8,8,8,9,8,8,9,8,8,8,9,8,8,8,8,8,9,8,9,8,8,8,9,8,8,8,9,9,8,8,8,8,9,9,8,9,8,8,9,8,8,8,8,9,8,9,9,8,8,8,8,9,8,8,9,8,8,9,8,8,8,8,8,9,8,9,8,8,8,8,8,8,8,9,8,8,9,8,9,8,8,8,8,8,8,8,8,8,8,9,8,9,8,9,8,8,8,9,8,9,8,9,8,8,8,8,8,9,8,8,8,8,9,8,9,8,8,9],"number_of_frames":240,"aperture_center_x":768,"aperture_center_y":432,"fixation_cross":true,"fixation_cross_width":15,"fixation_cross_height":15,"fixation_cross_color":"#111","fixation_cross_thickness":1,"border":true,"border_thickness":2,"border_color":"transparent","canvas_width":1536,"canvas_height":864,"trial_type":"rdk","trial_index":27,"plugin_version":"2.0.0","time_elapsed":70158,"phase":"practice","target_direction":6,"distractor_direction":120},{"rt":1264,"stimulus":"\n        <div class=\"response-container\">\n          <div class=\"response-instruction\">\n            <p>rotate the bar by using the left and right arrow keys.</p>\n            <p>when you are determined, press the Enter key.</p>\n          </div>\n          <div class=\"response-circle\">\n            <div class=\"response-fixation\"></div>\n            <div id=\"bar\" class=\"rotating-bar\"></div>\n          </div>\n        </div>\n      ","response":"Enter","trial_type":"html-keyboard-response","trial_index":28,"plugin_version":"2.1.0","time_elapsed":71423,"random_initial_angle":72,"response_angle_css":66,"response_angle_rdk":24,"angular_error_target":18,"angular_error_distractor":-96,"target_direction":6,"target_group":"white","reward_points":6},{"rt":null,"stimulus":"\n          <p style=\"color: #00FF00;\">Your reward: 6 points</p>\n        ","response":null,"trial_type":"html-keyboard-response","trial_index":29,"plugin_version":"2.1.0","time_elapsed":73435},{"rt":null,"stimulus":"<div class=\"fixation\" style=\"font-size: 60px;\">+</div>","response":null,"trial_type":"html-keyboard-response","trial_index":30,"plugin_version":"2.1.0","time_elapsed":74449},{"target_group":"black","target_index":1,"condition_label":"practice","rt":-1,"response":"","correct":false,"choices":"ALL_KEYS","correct_choice":["a"],"trial_duration":2000,"flip_timestamps":[],"response_ends_trial":false,"number_of_apertures":2,"number_of_dots":[87,100],"number_of_sets":1,"coherent_direction":[4,105],"coherence":1,"opposite_coherence":0,"dot_radius":2,"dot_side_length":1,"dot_life":-1,"move_distance":1,"aperture_width":300,"aperture_height":300,"dot_color":["white","black"],"dot_shape":"circle","background_color":"#AAA","RDK_type":3,"aperture_type":2,"reinsert_type":2,"frame_rate":8.240663900414937,"frame_rate_array":[5,5,8,8,8,8,8,8,8,9,8,9,8,8,9,8,8,9,8,8,8,9,8,8,8,8,9,8,8,8,9,8,9,8,8,8,8,9,8,8,8,8,8,8,8,9,8,9,8,8,8,8,8,9,8,8,8,9,9,8,9,8,8,8,8,8,8,9,9,7,9,8,8,8,8,9,8,8,8,9,9,9,16,1,8,8,8,9,9,9,8,9,8,8,8,9,8,8,8,8,8,9,8,8,8,8,9,8,8,9,8,8,9,8,8,8,9,8,8,8,9,9,8,9,8,8,9,8,8,8,9,8,8,9,8,9,9,8,8,8,8,9,7,9,8,9,8,8,8,9,8,8,8,8,8,9,8,9,8,8,8,9,8,9,8,9,8,8,8,8,9,8,8,8,9,8,8,8,9,8,9,8,8,9,8,8,9,8,10,7,8,8,8,8,8,8,7,9,8,8,8,9,8,8,8,9,8,8,8,8,8,8,8,8,8,8,8,9,8,8,9,8,8,8,8,9,9,8,8,8,9,8,8,9,9,8,8,8,8,8,8],"number_of_frames":241,"aperture_center_x":768,"aperture_center_y":432,"fixation_cross":true,"fixation_cross_width":15,"fixation_cross_height":15,"fixation_cross_color":"#111","fixation_cross_thickness":1,"border":true,"border_thickness":2,"border_color":"transparent","canvas_width":1536,"canvas_height":864,"trial_type":"rdk","trial_index":31,"plugin_version":"2.0.0","time_elapsed":76455,"phase":"practice","target_direction":105,"distractor_direction":4},{"rt":1999,"stimulus":"\n        <div class=\"response-container\">\n          <div class=\"response-instruction\">\n            <p>rotate the bar by using the left and right arrow keys.</p>\n            <p>when you are determined, press the Enter key.</p>\n          </div>\n          <div class=\"response-circle\">\n            <div class=\"response-fixation\"></div>\n            <div id=\"bar\" class=\"rotating-bar\"></div>\n          </div>\n        </div>\n      ","response":"Enter","trial_type":"html-keyboard-response","trial_index":32,"plugin_version":"2.1.0","time_elapsed":78454,"random_initial_angle":28,"response_angle_css":-13,"response_angle_rdk":103,"angular_error_target":-2,"angular_error_distractor":99,"target_direction":105,"target_group":"black","reward_points":9},{"rt":null,"stimulus":"\n          <p style=\"color: #00FF00;\">Your reward: 9 points</p>\n        ","response":null,"trial_type":"html-keyboard-response","trial_index":33,"plugin_version":"2.1.0","time_elapsed":80470},{"rt":null,"stimulus":"<div class=\"fixation\" style=\"font-size: 60px;\">+</div>","response":null,"trial_type":"html-keyboard-response","trial_index":34,"plugin_version":"2.1.0","time_elapsed":81471},{"target_group":"black","target_index":1,"condition_label":"practice","rt":-1,"response":"","correct":false,"choices":"ALL_KEYS","correct_choice":["a"],"trial_duration":2000,"flip_timestamps":[],"response_ends_trial":false,"number_of_apertures":2,"number_of_dots":[74,100],"number_of_sets":1,"coherent_direction":[342,79],"coherence":1,"opposite_coherence":0,"dot_radius":2,"dot_side_length":1,"dot_life":-1,"move_distance":1,"aperture_width":300,"aperture_height":300,"dot_color":["white","black"],"dot_shape":"circle","background_color":"#AAA","RDK_type":3,"aperture_type":2,"reinsert_type":2,"frame_rate":8.240663900414937,"frame_rate_array":[3,8,9,8,9,8,8,8,8,8,8,8,9,9,8,8,8,8,8,9,9,7,8,9,8,8,8,8,9,8,9,9,8,8,8,8,9,8,8,9,8,8,9,8,8,8,9,9,9,8,8,8,8,9,7,9,9,8,8,8,8,8,8,8,8,8,8,8,8,8,8,8,9,8,8,8,8,9,8,8,9,8,9,8,8,8,8,9,8,8,8,8,9,8,9,8,8,9,8,8,8,8,9,8,8,8,9,8,9,8,9,8,9,8,9,8,8,8,9,8,8,9,8,8,8,8,8,9,8,8,9,8,12,5,9,9,8,8,8,8,8,9,8,8,8,8,8,8,8,8,9,8,8,8,8,8,8,8,8,8,8,9,9,8,9,8,8,8,8,8,9,8,9,8,8,8,9,9,8,9,9,7,8,9,8,9,8,8,8,8,8,8,8,8,8,8,9,8,8,8,8,9,12,4,8,8,10,7,8,8,8,8,8,8,8,9,9,9,8,8,9,8,9,8,9,8,9,8,8,8,8,9,8,8,9,8,8,8,8,9,8],"number_of_frames":241,"aperture_center_x":768,"aperture_center_y":432,"fixation_cross":true,"fixation_cross_width":15,"fixation_cross_height":15,"fixation_cross_color":"#111","fixation_cross_thickness":1,"border":true,"border_thickness":2,"border_color":"transparent","canvas_width":1536,"canvas_height":864,"trial_type":"rdk","trial_index":35,"plugin_version":"2.0.0","time_elapsed":83478,"phase":"practice","target_direction":79,"distractor_direction":342},{"rt":3080,"stimulus":"\n        <div class=\"response-container\">\n          <div class=\"response-instruction\">\n            <p>rotate the bar by using the left and right arrow keys.</p>\n            <p>when you are determined, press the Enter key.</p>\n          </div>\n          <div class=\"response-circle\">\n            <div class=\"response-fixation\"></div>\n            <div id=\"bar\" class=\"rotating-bar\"></div>\n          </div>\n        </div>\n      ","response":"Enter","trial_type":"html-keyboard-response","trial_index":36,"plugin_version":"2.1.0","time_elapsed":86559,"random_initial_angle":208,"response_angle_css":388,"response_angle_rdk":62,"angular_error_target":-17,"angular_error_distractor":80,"target_direction":79,"target_group":"black","reward_points":6},{"rt":null,"stimulus":"\n          <p style=\"color: #00FF00;\">Your reward: 6 points</p>\n        ","response":null,"trial_type":"html-keyboard-response","trial_index":37,"plugin_version":"2.1.0","time_elapsed":88561},{"rt":null,"stimulus":"<div class=\"fixation\" style=\"font-size: 60px;\">+</div>","response":null,"trial_type":"html-keyboard-response","trial_index":38,"plugin_version":"2.1.0","time_elapsed":89570},{"target_group":"white","target_index":0,"condition_label":"practice","rt":-1,"response":"","correct":false,"choices":"ALL_KEYS","correct_choice":["a"],"trial_duration":2000,"flip_timestamps":[],"response_ends_trial":false,"number_of_apertures":2,"number_of_dots":[100,97],"number_of_sets":1,"coherent_direction":[179,340],"coherence":1,"opposite_coherence":0,"dot_radius":2,"dot_side_length":1,"dot_life":-1,"move_distance":1,"aperture_width":300,"aperture_height":300,"dot_color":["white","black"],"dot_shape":"circle","background_color":"#AAA","RDK_type":3,"aperture_type":2,"reinsert_type":2,"frame_rate":8.203319502074688,"frame_rate_array":[2,6,9,8,8,9,9,8,8,8,8,9,9,8,9,9,8,8,8,9,8,8,8,8,8,8,9,8,8,8,8,8,8,8,9,8,8,8,8,9,9,9,8,8,8,8,8,8,9,8,8,9,8,9,8,8,8,8,8,8,9,8,8,8,9,8,8,8,9,8,8,8,9,8,8,9,9,8,8,8,9,8,8,9,8,8,8,8,9,8,8,8,8,8,8,9,8,9,8,8,8,8,8,9,9,8,8,8,9,8,8,9,8,9,8,8,8,8,9,8,8,8,8,8,9,8,8,8,9,8,8,8,8,8,8,9,8,8,9,8,8,8,8,9,8,9,8,8,9,8,8,9,8,9,8,8,9,8,8,9,8,8,8,9,8,8,9,8,8,8,9,8,8,8,8,8,9,8,8,8,9,8,8,8,8,9,8,8,8,8,8,8,8,11,6,8,9,8,9,8,8,8,8,8,8,8,8,8,8,8,8,8,8,8,8,8,8,8,8,8,8,8,8,8,8,9,8,8,9,8,8,8,9,8,8,8,8,8,8,9,8],"number_of_frames":241,"aperture_center_x":768,"aperture_center_y":432,"fixation_cross":true,"fixation_cross_width":15,"fixation_cross_height":15,"fixation_cross_color":"#111","fixation_cross_thickness":1,"border":true,"border_thickness":2,"border_color":"transparent","canvas_width":1536,"canvas_height":864,"trial_type":"rdk","trial_index":39,"plugin_version":"2.0.0","time_elapsed":91576,"phase":"practice","target_direction":179,"distractor_direction":340},{"rt":2677,"stimulus":"\n        <div class=\"response-container\">\n          <div class=\"response-instruction\">\n            <p>rotate the bar by using the left and right arrow keys.</p>\n            <p>when you are determined, press the Enter key.</p>\n          </div>\n          <div class=\"response-circle\">\n            <div class=\"response-fixation\"></div>\n            <div id=\"bar\" class=\"rotating-bar\"></div>\n          </div>\n        </div>\n      ","response":"Enter","trial_type":"html-keyboard-response","trial_index":40,"plugin_version":"2.1.0","time_elapsed":94255,"random_initial_angle":289,"response_angle_css":464,"response_angle_rdk":346,"angular_error_target":167,"angular_error_distractor":6,"target_direction":179,"target_group":"white","reward_points":0},{"rt":null,"stimulus":"\n          <p style=\"color: #FF3333;\">Your reward: 0 points</p>\n        ","response":null,"trial_type":"html-keyboard-response","trial_index":41,"plugin_version":"2.1.0","time_elapsed":96257},{"rt":null,"stimulus":"<div class=\"fixation\" style=\"font-size: 60px;\">+</div>","response":null,"trial_type":"html-keyboard-response","trial_index":42,"plugin_version":"2.1.0","time_elapsed":97266},{"target_group":"black","target_index":1,"condition_label":"practice","rt":-1,"response":"","correct":false,"choices":"ALL_KEYS","correct_choice":["a"],"trial_duration":2000,"flip_timestamps":[],"response_ends_trial":false,"number_of_apertures":2,"number_of_dots":[85,100],"number_of_sets":1,"coherent_direction":[299,149],"coherence":1,"opposite_coherence":0,"dot_radius":2,"dot_side_length":1,"dot_life":-1,"move_distance":1,"aperture_width":300,"aperture_height":300,"dot_color":["white","black"],"dot_shape":"circle","background_color":"#AAA","RDK_type":3,"aperture_type":2,"reinsert_type":2,"frame_rate":8.232365145228215,"frame_rate_array":[1,8,9,8,8,9,8,8,8,8,8,9,9,9,7,8,8,9,8,8,9,8,8,8,9,8,8,9,8,9,8,8,9,8,8,9,9,9,8,8,8,8,8,8,8,8,8,9,8,8,8,8,9,9,8,8,8,8,9,8,8,8,8,8,9,8,8,8,8,8,9,8,9,8,9,8,9,8,8,8,8,9,8,8,8,8,8,8,8,9,9,8,8,8,8,9,8,9,8,8,9,8,8,8,9,8,8,8,9,8,8,9,8,8,8,8,8,8,8,9,8,8,9,8,8,8,8,8,9,8,8,8,8,8,8,8,8,9,8,8,9,8,8,9,8,9,8,9,8,9,8,8,8,9,8,8,8,8,9,8,9,8,8,8,8,8,8,9,8,8,8,9,8,9,9,8,9,8,8,8,8,8,8,8,8,8,8,9,8,8,8,8,9,9,9,8,8,9,8,9,8,8,8,8,8,8,9,8,8,8,9,8,8,8,9,9,8,8,8,8,9,8,8,8,8,8,9,8,8,9,8,8,8,8,9,8,9,8,8,8,8],"number_of_frames":241,"aperture_center_x":768,"aperture_center_y":432,"fixation_cross":true,"fixation_cross_width":15,"fixation_cross_height":15,"fixation_cross_color":"#111","fixation_cross_thickness":1,"border":true,"border_thickness":2,"border_color":"transparent","canvas_width":1536,"canvas_height":864,"trial_type":"rdk","trial_index":43,"plugin_version":"2.0.0","time_elapsed":99268,"phase":"practice","target_direction":149,"distractor_direction":299},{"rt":2123,"stimulus":"\n        <div class=\"response-container\">\n          <div class=\"response-instruction\">\n            <p>rotate the bar by using the left and right arrow keys.</p>\n            <p>when you are determined, press the Enter key.</p>\n          </div>\n          <div class=\"response-circle\">\n            <div class=\"response-fixation\"></div>\n            <div id=\"bar\" class=\"rotating-bar\"></div>\n          </div>\n        </div>\n      ","response":"Enter","trial_type":"html-keyboard-response","trial_index":44,"plugin_version":"2.1.0","time_elapsed":101391,"random_initial_angle":20,"response_angle_css":-36,"response_angle_rdk":126,"angular_error_target":-23,"angular_error_distractor":-173,"target_direction":149,"target_group":"black","reward_points":5},{"rt":null,"stimulus":"\n          <p style=\"color: #00FF00;\">Your reward: 5 points</p>\n        ","response":null,"trial_type":"html-keyboard-response","trial_index":45,"plugin_version":"2.1.0","time_elapsed":103394},{"rt":null,"stimulus":"<div class=\"fixation\" style=\"font-size: 60px;\">+</div>","response":null,"trial_type":"html-keyboard-response","trial_index":46,"plugin_version":"2.1.0","time_elapsed":104404},{"target_group":"white","target_index":0,"condition_label":"practice","rt":-1,"response":"","correct":false,"choices":"ALL_KEYS","correct_choice":["a"],"trial_duration":2000,"flip_timestamps":[],"response_ends_trial":false,"number_of_apertures":2,"number_of_dots":[100,89],"number_of_sets":1,"coherent_direction":[345,234],"coherence":1,"opposite_coherence":0,"dot_radius":2,"dot_side_length":1,"dot_life":-1,"move_distance":1,"aperture_width":300,"aperture_height":300,"dot_color":["white","black"],"dot_shape":"circle","background_color":"#AAA","RDK_type":3,"aperture_type":2,"reinsert_type":2,"frame_rate":8.233333333333333,"frame_rate_array":[1,11,9,8,9,8,8,8,8,8,8,8,9,8,8,9,8,8,8,8,8,9,8,8,9,9,8,8,8,8,8,8,8,8,8,8,8,8,8,8,8,8,8,8,9,8,8,8,8,8,8,8,9,9,8,8,8,8,8,8,9,9,8,8,9,8,8,8,8,8,8,8,8,9,8,8,8,8,8,8,9,8,8,9,8,8,9,9,9,8,9,8,9,8,9,8,8,8,8,8,8,9,8,8,8,9,9,8,9,8,8,8,8,8,8,9,8,7,9,9,8,8,8,8,8,8,9,8,9,8,9,8,8,9,8,8,8,9,8,8,8,8,8,8,8,8,9,8,8,8,8,8,8,8,8,8,9,8,8,9,8,8,8,8,8,9,9,8,8,9,8,8,8,9,8,8,8,9,9,8,9,8,9,8,9,8,8,8,8,8,8,9,9,8,9,8,8,8,9,8,8,8,8,8,9,8,9,9,9,8,8,8,8,9,8,8,8,8,8,8,8,9,8,9,9,8,8,8,9,8,8,8,9,8,8,8,9,8,8,8],"number_of_frames":240,"aperture_center_x":768,"aperture_center_y":432,"fixation_cross":true,"fixation_cross_width":15,"fixation_cross_height":15,"fixation_cross_color":"#111","fixation_cross_thickness":1,"border":true,"border_thickness":2,"border_color":"transparent","canvas_width":1536,"canvas_height":864,"trial_type":"rdk","trial_index":47,"plugin_version":"2.0.0","time_elapsed":106410,"phase":"practice","target_direction":345,"distractor_direction":234},{"rt":1507,"stimulus":"\n        <div class=\"response-container\">\n          <div class=\"response-instruction\">\n            <p>rotate the bar by using the left and right arrow keys.</p>\n            <p>when you are determined, press the Enter key.</p>\n          </div>\n          <div class=\"response-circle\">\n            <div class=\"response-fixation\"></div>\n            <div id=\"bar\" class=\"rotating-bar\"></div>\n          </div>\n        </div>\n      ","response":"Enter","trial_type":"html-keyboard-response","trial_index":48,"plugin_version":"2.1.0","time_elapsed":107918,"random_initial_angle":21,"response_angle_css":74,"response_angle_rdk":16,"angular_error_target":31,"angular_error_distractor":142,"target_direction":345,"target_group":"white","reward_points":3},{"rt":null,"stimulus":"\n          <p style=\"color: #00FF00;\">Your reward: 3 points</p>\n        ","response":null,"trial_type":"html-keyboard-response","trial_index":49,"plugin_version":"2.1.0","time_elapsed":109933},{"rt":null,"stimulus":"<div class=\"fixation\" style=\"font-size: 60px;\">+</div>","response":null,"trial_type":"html-keyboard-response","trial_index":50,"plugin_version":"2.1.0","time_elapsed":110946},{"target_group":"white","target_index":0,"condition_label":"practice","rt":-1,"response":"","correct":false,"choices":"ALL_KEYS","correct_choice":["a"],"trial_duration":2000,"flip_timestamps":[],"response_ends_trial":false,"number_of_apertures":2,"number_of_dots":[100,82],"number_of_sets":1,"coherent_direction":[352,221],"coherence":1,"opposite_coherence":0,"dot_radius":2,"dot_side_length":1,"dot_life":-1,"move_distance":1,"aperture_width":300,"aperture_height":300,"dot_color":["white","black"],"dot_shape":"circle","background_color":"#AAA","RDK_type":3,"aperture_type":2,"reinsert_type":2,"frame_rate":8.2625,"frame_rate_array":[5,9,9,8,9,8,8,8,8,8,9,8,8,8,8,8,9,9,9,8,8,8,8,8,8,8,8,8,9,9,8,8,8,8,9,8,9,8,9,8,8,9,9,8,8,8,8,9,8,8,8,9,8,8,8,8,8,8,8,8,9,8,8,8,9,9,8,9,8,8,8,8,8,8,8,9,8,9,8,9,8,8,8,8,9,8,8,9,8,8,8,8,8,8,8,8,8,8,8,8,8,8,8,8,8,8,8,8,9,8,8,8,9,8,8,9,8,9,8,8,9,8,8,8,8,9,8,8,9,8,9,8,9,8,9,8,8,8,8,8,9,8,8,8,8,8,9,8,8,8,9,8,8,8,8,8,8,9,9,9,8,8,8,8,8,9,8,9,8,8,9,8,9,8,8,9,8,8,8,8,9,8,8,9,8,9,8,8,8,9,8,8,8,8,8,9,9,8,9,8,8,8,9,9,8,8,9,8,8,9,8,8,8,9,8,8,8,8,8,8,8,9,8,8,8,9,9,8,9,8,9,8,9,9,8,8,8,8,8,9],"number_of_frames":240,"aperture_center_x":768,"aperture_center_y":432,"fixation_cross":true,"fixation_cross_width":15,"fixation_cross_height":15,"fixation_cross_color":"#111","fixation_cross_thickness":1,"border":true,"border_thickness":2,"border_color":"transparent","canvas_width":1536,"canvas_height":864,"trial_type":"rdk","trial_index":51,"plugin_version":"2.0.0","time_elapsed":112952,"phase":"practice","target_direction":352,"distractor_direction":221},{"rt":2598,"stimulus":"\n        <div class=\"response-container\">\n          <div class=\"response-instruction\">\n            <p>rotate the bar by using the left and right arrow keys.</p>\n            <p>when you are determined, press the Enter key.</p>\n          </div>\n          <div class=\"response-circle\">\n            <div class=\"response-fixation\"></div>\n            <div id=\"bar\" class=\"rotating-bar\"></div>\n          </div>\n        </div>\n      ","response":"Enter","trial_type":"html-keyboard-response","trial_index":52,"plugin_version":"2.1.0","time_elapsed":115550,"random_initial_angle":76,"response_angle_css":219,"response_angle_rdk":231,"angular_error_target":-121,"angular_error_distractor":10,"target_direction":352,"target_group":"white","reward_points":0},{"rt":null,"stimulus":"\n          <p style=\"color: #FF3333;\">Your reward: 0 points</p>\n        ","response":null,"trial_type":"html-keyboard-response","trial_index":53,"plugin_version":"2.1.0","time_elapsed":117554},{"rt":null,"stimulus":"<div class=\"fixation\" style=\"font-size: 60px;\">+</div>","response":null,"trial_type":"html-keyboard-response","trial_index":54,"plugin_version":"2.1.0","time_elapsed":118566},{"target_group":"white","target_index":0,"condition_label":"practice","rt":-1,"response":"","correct":false,"choices":"ALL_KEYS","correct_choice":["a"],"trial_duration":2000,"flip_timestamps":[],"response_ends_trial":false,"number_of_apertures":2,"number_of_dots":[100,95],"number_of_sets":1,"coherent_direction":[51,244],"coherence":1,"opposite_coherence":0,"dot_radius":2,"dot_side_length":1,"dot_life":-1,"move_distance":1,"aperture_width":300,"aperture_height":300,"dot_color":["white","black"],"dot_shape":"circle","background_color":"#AAA","RDK_type":3,"aperture_type":2,"reinsert_type":2,"frame_rate":8.210743801652892,"frame_rate_array":[0,6,8,9,8,8,8,8,9,9,8,9,9,8,8,8,8,9,8,8,9,8,8,8,8,9,8,9,8,8,8,8,8,8,8,8,8,10,7,8,9,8,8,8,8,8,8,8,9,8,9,9,8,8,8,8,8,8,8,8,9,8,8,8,9,9,8,9,8,8,8,8,8,9,9,8,8,8,9,9,10,6,8,9,8,8,8,9,9,8,8,9,8,8,9,9,9,8,9,8,8,8,8,8,8,8,8,9,8,8,8,9,8,8,8,9,7,9,9,8,9,8,9,8,9,8,8,8,8,8,8,9,8,8,8,8,8,8,8,8,8,9,8,8,8,8,8,8,8,8,9,8,8,8,9,8,8,8,8,9,8,9,8,8,9,8,8,8,8,8,8,9,8,8,8,8,8,8,8,8,8,9,8,8,8,9,8,8,8,8,8,8,8,8,8,8,8,9,9,8,9,8,8,9,9,8,9,8,8,9,8,9,8,8,9,8,8,9,9,8,8,8,8,8,9,8,8,8,8,9,8,8,8,8,9,8,8,8,8,8,8,8],"number_of_frames":242,"aperture_center_x":768,"aperture_center_y":432,"fixation_cross":true,"fixation_cross_width":15,"fixation_cross_height":15,"fixation_cross_color":"#111","fixation_cross_thickness":1,"border":true,"border_thickness":2,"border_color":"transparent","canvas_width":1536,"canvas_height":864,"trial_type":"rdk","trial_index":55,"plugin_version":"2.0.0","time_elapsed":120577,"phase":"practice","target_direction":51,"distractor_direction":244},{"rt":2197,"stimulus":"\n        <div class=\"response-container\">\n          <div class=\"response-instruction\">\n            <p>rotate the bar by using the left and right arrow keys.</p>\n            <p>when you are determined, press the Enter key.</p>\n          </div>\n          <div class=\"response-circle\">\n            <div class=\"response-fixation\"></div>\n            <div id=\"bar\" class=\"rotating-bar\"></div>\n          </div>\n        </div>\n      ","response":"Enter","trial_type":"html-keyboard-response","trial_index":56,"plugin_version":"2.1.0","time_elapsed":122776,"random_initial_angle":152,"response_angle_css":199,"response_angle_rdk":251,"angular_error_target":-160,"angular_error_distractor":7,"target_direction":51,"target_group":"white","reward_points":0},{"rt":null,"stimulus":"\n          <p style=\"color: #FF3333;\">Your reward: 0 points</p>\n        ","response":null,"trial_type":"html-keyboard-response","trial_index":57,"plugin_version":"2.1.0","time_elapsed":124778},{"rt":null,"stimulus":"<div class=\"fixation\" style=\"font-size: 60px;\">+</div>","response":null,"trial_type":"html-keyboard-response","trial_index":58,"plugin_version":"2.1.0","time_elapsed":125790},{"target_group":"black","target_index":1,"condition_label":"practice","rt":-1,"response":"","correct":false,"choices":"ALL_KEYS","correct_choice":["a"],"trial_duration":2000,"flip_timestamps":[],"response_ends_trial":false,"number_of_apertures":2,"number_of_dots":[72,100],"number_of_sets":1,"coherent_direction":[192,335],"coherence":1,"opposite_coherence":0,"dot_radius":2,"dot_side_length":1,"dot_life":-1,"move_distance":1,"aperture_width":300,"aperture_height":300,"dot_color":["white","black"],"dot_shape":"circle","background_color":"#AAA","RDK_type":3,"aperture_type":2,"reinsert_type":2,"frame_rate":8.258333333333333,"frame_rate_array":[1,14,8,8,8,8,8,8,8,8,9,8,8,8,8,8,8,8,8,8,8,8,8,8,8,8,9,9,9,8,8,9,8,9,8,8,9,9,8,8,8,8,8,9,8,8,8,9,9,8,8,9,8,8,9,8,8,8,8,8,8,9,8,8,9,8,9,8,8,8,9,8,8,8,8,8,9,9,8,8,8,9,9,8,9,8,8,8,8,8,8,8,9,8,9,8,8,8,8,9,8,8,9,8,8,8,9,8,8,8,8,8,9,8,9,8,8,8,9,8,8,8,9,8,9,8,9,9,8,9,8,8,8,8,9,8,8,9,8,9,8,8,8,8,8,8,8,8,8,8,8,8,8,8,8,9,8,9,9,9,8,8,8,8,8,10,7,8,9,9,8,9,8,8,9,10,6,8,8,9,8,9,8,8,8,8,8,9,9,8,8,8,8,8,9,8,8,8,9,8,8,8,8,8,9,8,9,8,9,8,8,9,8,8,8,8,9,9,8,8,9,8,8,9,8,8,8,9,8,8,8,8,8,8,8,8,8,8,8,9],"number_of_frames":240,"aperture_center_x":768,"aperture_center_y":432,"fixation_cross":true,"fixation_cross_width":15,"fixation_cross_height":15,"fixation_cross_color":"#111","fixation_cross_thickness":1,"border":true,"border_thickness":2,"border_color":"transparent","canvas_width":1536,"canvas_height":864,"trial_type":"rdk","trial_index":59,"plugin_version":"2.0.0","time_elapsed":127795,"phase":"practice","target_direction":335,"distractor_direction":192},{"rt":2731,"stimulus":"\n        <div class=\"response-container\">\n          <div class=\"response-instruction\">\n            <p>rotate the bar by using the left and right arrow keys.</p>\n            <p>when you are determined, press the Enter key.</p>\n          </div>\n          <div class=\"response-circle\">\n            <div class=\"response-fixation\"></div>\n            <div id=\"bar\" class=\"rotating-bar\"></div>\n          </div>\n        </div>\n      ","response":"Enter","trial_type":"html-keyboard-response","trial_index":60,"plugin_version":"2.1.0","time_elapsed":130527,"random_initial_angle":296,"response_angle_css":129,"response_angle_rdk":321,"angular_error_target":-14,"angular_error_distractor":129,"target_direction":335,"target_group":"black","reward_points":7},{"rt":null,"stimulus":"\n          <p style=\"color: #00FF00;\">Your reward: 7 points</p>\n        ","response":null,"trial_type":"html-keyboard-response","trial_index":61,"plugin_version":"2.1.0","time_elapsed":132537},{"rt":null,"stimulus":"<div class=\"fixation\" style=\"font-size: 60px;\">+</div>","response":null,"trial_type":"html-keyboard-response","trial_index":62,"plugin_version":"2.1.0","time_elapsed":133550},{"target_group":"black","target_index":1,"condition_label":"practice","rt":-1,"response":"","correct":false,"choices":"ALL_KEYS","correct_choice":["a"],"trial_duration":2000,"flip_timestamps":[],"response_ends_trial":false,"number_of_apertures":2,"number_of_dots":[84,100],"number_of_sets":1,"coherent_direction":[51,157],"coherence":1,"opposite_coherence":0,"dot_radius":2,"dot_side_length":1,"dot_life":-1,"move_distance":1,"aperture_width":300,"aperture_height":300,"dot_color":["white","black"],"dot_shape":"circle","background_color":"#AAA","RDK_type":3,"aperture_type":2,"reinsert_type":2,"frame_rate":8.240663900414937,"frame_rate_array":[5,8,8,9,8,8,8,8,9,8,8,8,9,8,9,8,8,9,9,8,8,9,8,8,8,9,8,9,8,8,9,8,9,8,8,8,9,8,8,9,9,9,8,8,8,8,9,8,8,8,8,8,8,8,8,9,8,8,8,8,8,8,9,8,8,9,8,8,8,8,9,8,9,8,8,9,8,8,8,9,7,8,8,9,9,8,9,8,9,8,8,8,8,8,8,9,8,8,8,8,8,8,8,8,8,8,8,9,8,8,8,8,8,9,8,8,8,8,8,8,8,8,8,9,8,8,9,8,9,8,8,8,8,8,8,8,8,8,9,8,8,8,8,8,8,8,8,8,8,9,8,8,9,9,8,9,8,8,8,8,9,8,8,8,9,8,9,8,9,8,8,8,8,8,8,8,8,8,8,8,9,8,8,9,9,8,8,9,8,8,8,8,8,8,9,9,8,8,9,8,8,9,8,8,8,12,5,9,8,8,8,8,9,9,8,8,8,8,9,8,8,8,9,8,8,8,8,9,9,8,8,9,8,8,9,8,8,9,8,9,8],"number_of_frames":241,"aperture_center_x":768,"aperture_center_y":432,"fixation_cross":true,"fixation_cross_width":15,"fixation_cross_height":15,"fixation_cross_color":"#111","fixation_cross_thickness":1,"border":true,"border_thickness":2,"border_color":"transparent","canvas_width":1536,"canvas_height":864,"trial_type":"rdk","trial_index":63,"plugin_version":"2.0.0","time_elapsed":135560,"phase":"practice","target_direction":157,"distractor_direction":51},{"rt":1837,"stimulus":"\n        <div class=\"response-container\">\n          <div class=\"response-instruction\">\n            <p>rotate the bar by using the left and right arrow keys.</p>\n            <p>when you are determined, press the Enter key.</p>\n          </div>\n          <div class=\"response-circle\">\n            <div class=\"response-fixation\"></div>\n            <div id=\"bar\" class=\"rotating-bar\"></div>\n          </div>\n        </div>\n      ","response":"Enter","trial_type":"html-keyboard-response","trial_index":64,"plugin_version":"2.1.0","time_elapsed":137399,"random_initial_angle":51,"response_angle_css":-35,"response_angle_rdk":125,"angular_error_target":-32,"angular_error_distractor":74,"target_direction":157,"target_group":"black","reward_points":3},{"rt":null,"stimulus":"\n          <p style=\"color: #00FF00;\">Your reward: 3 points</p>\n        ","response":null,"trial_type":"html-keyboard-response","trial_index":65,"plugin_version":"2.1.0","time_elapsed":139405},{"rt":1122,"stimulus":"\n        <div class=\"instructions-container\">\n          <h2>End of Practice</h2>\n          <p>You have completed the practice trials.</p>\n          <p>Press <strong>Enter</strong> key to begin the main experiment.</p>\n        </div>\n      ","response":"Enter","trial_type":"html-keyboard-response","trial_index":66,"plugin_version":"2.1.0","time_elapsed":140528},{"rt":null,"stimulus":"<div class=\"fixation\" style=\"font-size: 60px;\">+</div>","response":null,"trial_type":"html-keyboard-response","trial_index":67,"plugin_version":"2.1.0","time_elapsed":141533},{"phase":"learning-awareness","target_group":"white","condition_label":"W_H_vs_B_L_rep14","target_direction":174,"distractor_direction":70,"session_rotation":152,"rt":-1,"response":"","correct":false,"choices":"ALL_KEYS","correct_choice":["a"],"trial_duration":2000,"flip_timestamps":[],"response_ends_trial":false,"number_of_apertures":200,"number_of_dots":[1,1,1,1,1,1,1,1,1,1,1,1,1,1,1,1,1,1,1,1,1,1,1,1,1,1,1,1,1,1,1,1,1,1,1,1,1,1,1,1,1,1,1,1,1,1,1,1,1,1,1,1,1,1,1,1,1,1,1,1,1,1,1,1,1,1,1,1,1,1,1,1,1,1,1,1,1,1,1,1,1,1,1,1,1,1,1,1,1,1,1,1,1,1,1,1,1,1,1,1,1,1,1,1,1,1,1,1,1,1,1,1,1,1,1,1,1,1,1,1,1,1,1,1,1,1,1,1,1,1,1,1,1,1,1,1,1,1,1,1,1,1,1,1,1,1,1,1,1,1,1,1,1,1,1,1,1,1,1,1,1,1,1,1,1,1,1,1,1,1,1,1,1,1,1,1,1,1,1,1,1,1,1,1,1,1,1,1,1,1,1,1,1,1,1,1,1,1,1,1],"number_of_sets":1,"coherent_direction":[70,70,70,70,70,70,174,70,174,174,174,70,70,174,174,174,70,174,70,70,174,70,70,174,70,174,70,70,174,174,174,174,70,70,70,70,174,174,174,174,174,70,174,174,70,174,70,70,70,70,70,70,174,70,174,70,174,174,174,174,174,174,174,70,174,70,174,70,70,70,70,174,174,174,70,70,70,174,70,70,174,70,70,174,174,174,70,70,70,174,70,70,174,174,174,70,70,174,70,174,174,174,174,174,70,174,70,174,174,70,70,70,174,174,70,174,70,70,174,174,174,174,174,70,70,174,174,174,174,174,70,174,70,70,174,70,70,70,174,174,174,70,70,70,70,174,70,174,174,70,70,174,174,70,70,70,174,70,70,174,174,70,174,70,174,174,70,174,70,70,174,174,174,174,70,70,174,70,174,174,70,70,70,174,70,70,174,70,70,70,70,70,174,174,70,174,174,70,174,174],"coherence":1,"opposite_coherence":0,"dot_radius":2,"dot_side_length":1,"dot_life":-1,"move_distance":1,"aperture_width":300,"aperture_height":300,"dot_color":["black","black","black","black","black","black","white","black","white","white","white","black","black","white","white","white","black","white","black","black","white","black","black","white","black","white","black","black","white","white","white","white","black","black","black","black","white","white","white","white","white","black","white","white","black","white","black","black","black","black","black","black","white","black","white","black","white","white","white","white","white","white","white","black","white","black","white","black","black","black","black","white","white","white","black","black","black","white","black","black","white","black","black","white","white","white","black","black","black","white","black","black","white","white","white","black","black","white","black","white","white","white","white","white","black","white","black","white","white","black","black","black","white","white","black","white","black","black","white","white","white","white","white","black","black","white","white","white","white","white","black","white","black","black","white","black","black","black","white","white","white","black","black","black","black","white","black","white","white","black","black","white","white","black","black","black","white","black","black","white","white","black","white","black","white","white","black","white","black","black","white","white","white","white","black","black","white","black","white","white","black","black","black","white","black","black","white","black","black","black","black","black","white","white","black","white","white","black","white","white"],"dot_shape":"circle","background_color":"#AAA","RDK_type":3,"aperture_type":2,"reinsert_type":2,"frame_rate":8.294605809128631,"frame_rate_array":[3,8,9,8,8,8,9,8,10,7,8,9,8,8,9,8,8,8,10,8,8,8,8,8,8,9,8,8,8,8,9,8,9,8,9,8,8,9,8,8,9,8,8,8,9,8,8,9,8,9,8,9,8,8,8,9,9,8,9,8,9,8,8,10,9,8,7,8,8,9,8,8,9,8,9,8,8,9,8,9,8,9,9,8,8,9,8,8,8,8,8,10,8,8,8,8,8,8,8,8,8,8,8,8,8,9,8,8,8,8,8,8,9,8,9,8,9,8,8,8,8,8,9,9,9,9,7,8,8,9,8,9,8,8,8,8,11,7,8,8,8,9,8,8,8,8,8,8,8,8,8,8,9,8,9,7,10,9,9,8,8,9,8,10,9,8,7,10,7,8,8,8,8,9,8,8,8,9,8,9,8,8,9,8,8,8,8,8,8,9,8,8,8,10,8,9,8,8,9,8,8,8,8,9,8,8,8,10,8,11,5,8,8,9,8,8,9,8,9,8,8,8,8,9,8,8,8,10,8,8,9,8,9,7,10,8,7,8,9,8,9],"number_of_frames":241,"aperture_center_x":768,"aperture_center_y":432,"fixation_cross":true,"fixation_cross_width":15,"fixation_cross_height":15,"fixation_cross_color":"#111","fixation_cross_thickness":1,"border":true,"border_thickness":2,"border_color":"transparent","canvas_width":1536,"canvas_height":864,"trial_type":"rdk","trial_index":68,"plugin_version":"2.0.0","time_elapsed":143542},{"rt":1209,"stimulus":"\n        <div class=\"response-container\">\n          <div class=\"response-instruction\">\n            <p>rotate the bar by using the left and right arrow keys.</p>\n            <p>when you are determined, press the Enter key.</p>\n          </div>\n          <div class=\"response-circle\">\n            <div class=\"response-fixation\"></div>\n            <div id=\"bar\" class=\"rotating-bar\"></div>\n          </div>\n        </div>\n      ","response":"Enter","trial_type":"html-keyboard-response","trial_index":69,"plugin_version":"2.1.0","time_elapsed":144751,"random_initial_angle":2,"response_angle_css":40,"response_angle_rdk":50,"angular_error_target":-124,"angular_error_distractor":-20,"target_direction":174,"target_group":"white","reward_points":0},{"rt":null,"stimulus":"\n          <p style=\"color: #FF3333;\">Your reward: 0 points</p>\n        ","response":null,"trial_type":"html-keyboard-response","trial_index":70,"plugin_version":"2.1.0","time_elapsed":146765},{"rt":null,"stimulus":"<div class=\"fixation\" style=\"font-size: 60px;\">+</div>","response":null,"trial_type":"html-keyboard-response","trial_index":71,"plugin_version":"2.1.0","time_elapsed":147777},{"phase":"learning-awareness","target_group":"white","condition_label":"W_H_vs_B_L_rep4","target_direction":171,"distractor_direction":72,"session_rotation":152,"rt":-1,"response":"","correct":false,"choices":"ALL_KEYS","correct_choice":["a"],"trial_duration":2000,"flip_timestamps":[],"response_ends_trial":false,"number_of_apertures":200,"number_of_dots":[1,1,1,1,1,1,1,1,1,1,1,1,1,1,1,1,1,1,1,1,1,1,1,1,1,1,1,1,1,1,1,1,1,1,1,1,1,1,1,1,1,1,1,1,1,1,1,1,1,1,1,1,1,1,1,1,1,1,1,1,1,1,1,1,1,1,1,1,1,1,1,1,1,1,1,1,1,1,1,1,1,1,1,1,1,1,1,1,1,1,1,1,1,1,1,1,1,1,1,1,1,1,1,1,1,1,1,1,1,1,1,1,1,1,1,1,1,1,1,1,1,1,1,1,1,1,1,1,1,1,1,1,1,1,1,1,1,1,1,1,1,1,1,1,1,1,1,1,1,1,1,1,1,1,1,1,1,1,1,1,1,1,1,1,1,1,1,1,1,1,1,1,1,1,1,1,1,1,1,1,1,1,1,1,1,1,1,1,1,1,1,1,1,1,1,1,1,1,1,1],"number_of_sets":1,"coherent_direction":[72,171,72,171,171,171,72,72,72,72,171,171,72,72,171,72,72,72,72,72,72,72,72,72,72,171,171,171,72,72,171,72,171,171,171,72,171,72,72,72,72,171,72,171,171,171,171,171,171,72,72,72,72,72,72,72,72,72,171,72,171,72,171,72,72,72,171,171,171,171,72,72,72,171,171,72,171,171,72,72,72,171,72,72,72,171,72,72,72,171,171,171,72,72,171,171,171,171,171,72,72,171,171,171,171,171,171,72,72,72,171,171,72,171,72,171,72,171,171,171,171,171,72,72,171,171,171,171,72,72,72,171,72,171,72,72,171,72,171,72,72,72,171,171,72,171,171,72,171,72,171,171,72,72,72,171,171,72,171,171,72,72,171,171,171,171,171,72,171,72,72,171,72,171,171,171,171,72,171,72,72,72,72,171,72,171,171,171,171,171,72,171,171,72,72,171,72,72,171,171],"coherence":1,"opposite_coherence":0,"dot_radius":2,"dot_side_length":1,"dot_life":-1,"move_distance":1,"aperture_width":300,"aperture_height":300,"dot_color":["black","white","black","white","white","white","black","black","black","black","white","white","black","black","white","black","black","black","black","black","black","black","black","black","black","white","white","white","black","black","white","black","white","white","white","black","white","black","black","black","black","white","black","white","white","white","white","white","white","black","black","black","black","black","black","black","black","black","white","black","white","black","white","black","black","black","white","white","white","white","black","black","black","white","white","black","white","white","black","black","black","white","black","black","black","white","black","black","black","white","white","white","black","black","white","white","white","white","white","black","black","white","white","white","white","white","white","black","black","black","white","white","black","white","black","white","black","white","white","white","white","white","black","black","white","white","white","white","black","black","black","white","black","white","black","black","white","black","white","black","black","black","white","white","black","white","white","black","white","black","white","white","black","black","black","white","white","black","white","white","black","black","white","white","white","white","white","black","white","black","black","white","black","white","white","white","white","black","white","black","black","black","black","white","black","white","white","white","white","white","black","white","white","black","black","white","black","black","white","white"],"dot_shape":"circle","background_color":"#AAA","RDK_type":3,"aperture_type":2,"reinsert_type":2,"frame_rate":8.231404958677686,"frame_rate_array":[3,4,6,10,9,8,8,8,9,10,8,8,8,8,8,8,8,8,8,9,8,8,9,8,9,9,8,8,8,8,8,8,9,8,8,8,9,9,8,8,8,8,9,8,8,8,9,8,8,9,8,9,8,8,8,8,8,8,9,8,8,8,8,8,9,8,8,9,8,8,8,8,8,8,8,8,9,7,9,8,8,8,10,9,8,8,8,9,8,8,8,9,8,8,8,8,8,8,8,8,8,8,9,8,8,8,9,8,8,8,8,9,8,9,8,10,7,9,8,9,8,8,9,8,9,8,8,8,8,8,10,8,9,7,8,8,8,10,8,7,8,8,9,8,8,9,9,8,8,8,8,9,8,8,8,8,8,9,8,8,8,8,9,8,8,8,9,9,8,7,9,8,8,9,8,8,8,10,6,8,9,8,8,9,8,8,8,8,8,9,8,10,9,9,8,8,8,8,8,8,9,8,9,8,8,8,8,8,9,8,8,8,9,8,8,9,8,8,8,8,10,9,8,8,8,8,8,8,10,8,8,9,10,6,9,9,7,8,8,9,8,8],"number_of_frames":242,"aperture_center_x":768,"aperture_center_y":432,"fixation_cross":true,"fixation_cross_width":15,"fixation_cross_height":15,"fixation_cross_color":"#111","fixation_cross_thickness":1,"border":true,"border_thickness":2,"border_color":"transparent","canvas_width":1536,"canvas_height":864,"trial_type":"rdk","trial_index":72,"plugin_version":"2.0.0","time_elapsed":149790},{"rt":2479,"stimulus":"\n        <div class=\"response-container\">\n          <div class=\"response-instruction\">\n            <p>rotate the bar by using the left and right arrow keys.</p>\n            <p>when you are determined, press the Enter key.</p>\n          </div>\n          <div class=\"response-circle\">\n            <div class=\"response-fixation\"></div>\n            <div id=\"bar\" class=\"rotating-bar\"></div>\n          </div>\n        </div>\n      ","response":"Enter","trial_type":"html-keyboard-response","trial_index":73,"plugin_version":"2.1.0","time_elapsed":152270,"random_initial_angle":251,"response_angle_css":390,"response_angle_rdk":60,"angular_error_target":-111,"angular_error_distractor":-12,"target_direction":171,"target_group":"white","reward_points":0},{"rt":null,"stimulus":"\n          <p style=\"color: #FF3333;\">Your reward: 0 points</p>\n        ","response":null,"trial_type":"html-keyboard-response","trial_index":74,"plugin_version":"2.1.0","time_elapsed":154273},{"rt":null,"stimulus":"<div class=\"fixation\" style=\"font-size: 60px;\">+</div>","response":null,"trial_type":"html-keyboard-response","trial_index":75,"plugin_version":"2.1.0","time_elapsed":155282},{"phase":"learning-awareness","target_group":"black","condition_label":"B_H_vs_W_L_rep6","target_direction":251,"distractor_direction":354,"session_rotation":152,"rt":-1,"response":"","correct":false,"choices":"ALL_KEYS","correct_choice":["a"],"trial_duration":2000,"flip_timestamps":[],"response_ends_trial":false,"number_of_apertures":200,"number_of_dots":[1,1,1,1,1,1,1,1,1,1,1,1,1,1,1,1,1,1,1,1,1,1,1,1,1,1,1,1,1,1,1,1,1,1,1,1,1,1,1,1,1,1,1,1,1,1,1,1,1,1,1,1,1,1,1,1,1,1,1,1,1,1,1,1,1,1,1,1,1,1,1,1,1,1,1,1,1,1,1,1,1,1,1,1,1,1,1,1,1,1,1,1,1,1,1,1,1,1,1,1,1,1,1,1,1,1,1,1,1,1,1,1,1,1,1,1,1,1,1,1,1,1,1,1,1,1,1,1,1,1,1,1,1,1,1,1,1,1,1,1,1,1,1,1,1,1,1,1,1,1,1,1,1,1,1,1,1,1,1,1,1,1,1,1,1,1,1,1,1,1,1,1,1,1,1,1,1,1,1,1,1,1,1,1,1,1,1,1,1,1,1,1,1,1,1,1,1,1,1,1],"number_of_sets":1,"coherent_direction":[354,251,354,251,354,251,251,354,251,354,354,251,354,354,251,354,354,354,354,354,251,251,251,354,251,354,354,251,251,251,354,251,354,354,251,354,251,354,354,354,251,251,251,354,251,354,251,354,251,354,251,354,354,251,251,251,354,251,354,251,251,251,251,354,251,354,251,251,251,354,354,251,354,354,354,251,354,251,354,354,354,354,354,354,354,251,251,251,354,354,251,354,251,354,251,251,251,251,251,251,251,251,251,354,251,354,354,251,251,354,354,354,354,251,354,354,251,354,251,251,251,354,251,251,354,354,251,251,354,251,354,354,251,354,354,354,354,251,251,251,354,354,354,354,251,251,354,251,354,251,354,354,354,251,251,251,251,251,251,354,251,251,251,251,354,354,354,251,251,251,354,354,251,251,354,251,354,354,251,251,251,251,354,354,354,354,251,251,251,354,354,251,251,354,354,354,354,251,354,354],"coherence":1,"opposite_coherence":0,"dot_radius":2,"dot_side_length":1,"dot_life":-1,"move_distance":1,"aperture_width":300,"aperture_height":300,"dot_color":["white","black","white","black","white","black","black","white","black","white","white","black","white","white","black","white","white","white","white","white","black","black","black","white","black","white","white","black","black","black","white","black","white","white","black","white","black","white","white","white","black","black","black","white","black","white","black","white","black","white","black","white","white","black","black","black","white","black","white","black","black","black","black","white","black","white","black","black","black","white","white","black","white","white","white","black","white","black","white","white","white","white","white","white","white","black","black","black","white","white","black","white","black","white","black","black","black","black","black","black","black","black","black","white","black","white","white","black","black","white","white","white","white","black","white","white","black","white","black","black","black","white","black","black","white","white","black","black","white","black","white","white","black","white","white","white","white","black","black","black","white","white","white","white","black","black","white","black","white","black","white","white","white","black","black","black","black","black","black","white","black","black","black","black","white","white","white","black","black","black","white","white","black","black","white","black","white","white","black","black","black","black","white","white","white","white","black","black","black","white","white","black","black","white","white","white","white","black","white","white"],"dot_shape":"circle","background_color":"#AAA","RDK_type":3,"aperture_type":2,"reinsert_type":2,"frame_rate":8.178423236514522,"frame_rate_array":[1,5,12,5,9,8,8,9,8,8,8,8,8,8,8,9,8,8,8,8,8,8,9,8,8,9,8,8,8,10,8,8,8,8,8,8,8,8,8,8,9,8,8,8,8,8,8,9,8,9,8,8,8,8,8,8,8,8,8,9,8,8,8,8,8,8,10,10,6,9,8,8,8,8,8,8,9,8,8,8,8,8,8,8,8,8,8,9,9,8,8,10,6,10,8,8,8,8,8,8,10,8,8,8,8,8,8,9,8,7,8,9,8,8,8,9,8,8,8,9,8,8,8,8,8,9,8,8,8,8,9,8,8,8,8,9,8,8,8,8,8,8,8,9,9,9,8,8,8,8,8,9,8,8,8,8,8,8,8,8,9,8,8,10,8,7,8,8,9,8,8,8,8,9,9,8,8,8,8,8,8,8,9,8,8,8,8,9,8,8,8,10,8,8,8,8,8,8,8,9,8,7,8,9,8,8,8,8,8,8,8,9,9,8,9,8,9,8,9,8,8,8,9,8,8,8,10,9,8,8,8,8,10,8,8,8,8,8,8,8,8],"number_of_frames":241,"aperture_center_x":768,"aperture_center_y":432,"fixation_cross":true,"fixation_cross_width":15,"fixation_cross_height":15,"fixation_cross_color":"#111","fixation_cross_thickness":1,"border":true,"border_thickness":2,"border_color":"transparent","canvas_width":1536,"canvas_height":864,"trial_type":"rdk","trial_index":76,"plugin_version":"2.0.0","time_elapsed":157286},{"rt":2672,"stimulus":"\n        <div class=\"response-container\">\n          <div class=\"response-instruction\">\n            <p>rotate the bar by using the left and right arrow keys.</p>\n            <p>when you are determined, press the Enter key.</p>\n          </div>\n          <div class=\"response-circle\">\n            <div class=\"response-fixation\"></div>\n            <div id=\"bar\" class=\"rotating-bar\"></div>\n          </div>\n        </div>\n      ","response":"Enter","trial_type":"html-keyboard-response","trial_index":77,"plugin_version":"2.1.0","time_elapsed":159958,"random_initial_angle":38,"response_angle_css":201,"response_angle_rdk":249,"angular_error_target":-2,"angular_error_distractor":-105,"target_direction":251,"target_group":"black","reward_points":9},{"rt":null,"stimulus":"\n          <p style=\"color: #00FF00;\">Your reward: 9 points</p>\n        ","response":null,"trial_type":"html-keyboard-response","trial_index":78,"plugin_version":"2.1.0","time_elapsed":161960},{"rt":null,"stimulus":"<div class=\"fixation\" style=\"font-size: 60px;\">+</div>","response":null,"trial_type":"html-keyboard-response","trial_index":79,"plugin_version":"2.1.0","time_elapsed":162968},{"phase":"learning-awareness","target_group":"black","condition_label":"B_H_vs_W_L_rep18","target_direction":265,"distractor_direction":355,"session_rotation":152,"rt":-1,"response":"","correct":false,"choices":"ALL_KEYS","correct_choice":["a"],"trial_duration":2000,"flip_timestamps":[],"response_ends_trial":false,"number_of_apertures":200,"number_of_dots":[1,1,1,1,1,1,1,1,1,1,1,1,1,1,1,1,1,1,1,1,1,1,1,1,1,1,1,1,1,1,1,1,1,1,1,1,1,1,1,1,1,1,1,1,1,1,1,1,1,1,1,1,1,1,1,1,1,1,1,1,1,1,1,1,1,1,1,1,1,1,1,1,1,1,1,1,1,1,1,1,1,1,1,1,1,1,1,1,1,1,1,1,1,1,1,1,1,1,1,1,1,1,1,1,1,1,1,1,1,1,1,1,1,1,1,1,1,1,1,1,1,1,1,1,1,1,1,1,1,1,1,1,1,1,1,1,1,1,1,1,1,1,1,1,1,1,1,1,1,1,1,1,1,1,1,1,1,1,1,1,1,1,1,1,1,1,1,1,1,1,1,1,1,1,1,1,1,1,1,1,1,1,1,1,1,1,1,1,1,1,1,1,1,1,1,1,1,1,1,1],"number_of_sets":1,"coherent_direction":[355,265,355,355,355,355,265,265,355,265,265,355,265,265,355,265,265,355,265,265,265,355,265,355,355,265,265,265,265,265,265,265,265,355,355,265,265,355,355,265,355,355,265,355,355,355,355,355,265,355,355,355,355,265,265,355,265,265,355,355,355,265,355,355,265,355,265,265,265,355,265,265,265,355,355,265,355,265,355,265,265,355,355,265,355,355,265,265,355,355,265,355,355,265,265,355,265,355,355,355,265,355,355,265,265,355,355,355,265,265,265,265,265,265,265,355,355,265,265,265,265,265,265,355,265,355,265,265,265,355,355,355,355,265,355,355,355,265,265,355,265,355,265,355,265,355,355,355,355,265,265,355,355,355,355,265,265,265,265,355,265,355,265,355,265,355,355,355,265,265,265,265,355,265,265,355,265,355,355,265,355,265,265,265,265,355,355,355,355,355,355,265,355,265,355,265,265,355,355,355],"coherence":1,"opposite_coherence":0,"dot_radius":2,"dot_side_length":1,"dot_life":-1,"move_distance":1,"aperture_width":300,"aperture_height":300,"dot_color":["white","black","white","white","white","white","black","black","white","black","black","white","black","black","white","black","black","white","black","black","black","white","black","white","white","black","black","black","black","black","black","black","black","white","white","black","black","white","white","black","white","white","black","white","white","white","white","white","black","white","white","white","white","black","black","white","black","black","white","white","white","black","white","white","black","white","black","black","black","white","black","black","black","white","white","black","white","black","white","black","black","white","white","black","white","white","black","black","white","white","black","white","white","black","black","white","black","white","white","white","black","white","white","black","black","white","white","white","black","black","black","black","black","black","black","white","white","black","black","black","black","black","black","white","black","white","black","black","black","white","white","white","white","black","white","white","white","black","black","white","black","white","black","white","black","white","white","white","white","black","black","white","white","white","white","black","black","black","black","white","black","white","black","white","black","white","white","white","black","black","black","black","white","black","black","white","black","white","white","black","white","black","black","black","black","white","white","white","white","white","white","black","white","black","white","black","black","white","white","white"],"dot_shape":"circle","background_color":"#AAA","RDK_type":3,"aperture_type":2,"reinsert_type":2,"frame_rate":8.295833333333333,"frame_rate_array":[6,9,8,9,8,9,9,8,9,7,8,9,8,9,8,8,9,8,8,8,8,9,8,8,8,8,8,8,10,7,8,9,8,8,8,8,9,8,8,9,8,8,8,8,8,8,8,8,9,8,9,9,8,8,8,8,8,9,8,8,8,8,9,8,8,9,8,9,8,8,8,9,8,9,8,10,7,10,9,9,8,8,8,9,8,9,8,8,9,8,9,8,8,10,9,8,8,8,8,8,9,8,9,8,8,9,10,8,9,8,7,8,8,8,8,8,10,9,8,8,8,8,8,8,9,8,8,8,8,10,9,9,8,9,7,8,9,8,8,8,8,8,10,9,8,8,8,8,8,8,9,8,8,8,8,9,8,8,9,7,9,8,8,9,8,9,8,8,8,8,8,8,8,8,8,8,8,8,8,8,9,8,8,10,7,10,8,8,7,10,9,8,8,8,8,9,8,8,8,9,8,8,9,8,8,9,8,9,8,8,8,8,8,8,8,8,10,9,8,9,7,9,8,8,8,8,8,8,8,8,8,8,8,9,9,8,8,8,9,8],"number_of_frames":240,"aperture_center_x":768,"aperture_center_y":432,"fixation_cross":true,"fixation_cross_width":15,"fixation_cross_height":15,"fixation_cross_color":"#111","fixation_cross_thickness":1,"border":true,"border_thickness":2,"border_color":"transparent","canvas_width":1536,"canvas_height":864,"trial_type":"rdk","trial_index":80,"plugin_version":"2.0.0","time_elapsed":164971},{"rt":2603,"stimulus":"\n        <div class=\"response-container\">\n          <div class=\"response-instruction\">\n            <p>rotate the bar by using the left and right arrow keys.</p>\n            <p>when you are determined, press the Enter key.</p>\n          </div>\n          <div class=\"response-circle\">\n            <div class=\"response-fixation\"></div>\n            <div id=\"bar\" class=\"rotating-bar\"></div>\n          </div>\n        </div>\n      ","response":"Enter","trial_type":"html-keyboard-response","trial_index":81,"plugin_version":"2.1.0","time_elapsed":167575,"random_initial_angle":221,"response_angle_css":56,"response_angle_rdk":34,"angular_error_target":129,"angular_error_distractor":39,"target_direction":265,"target_group":"black","reward_points":0},{"rt":null,"stimulus":"\n          <p style=\"color: #FF3333;\">Your reward: 0 points</p>\n        ","response":null,"trial_type":"html-keyboard-response","trial_index":82,"plugin_version":"2.1.0","time_elapsed":169578},{"rt":null,"stimulus":"<div class=\"fixation\" style=\"font-size: 60px;\">+</div>","response":null,"trial_type":"html-keyboard-response","trial_index":83,"plugin_version":"2.1.0","time_elapsed":170587},{"phase":"learning-awareness","target_group":"white","condition_label":"W_H_vs_B_L_rep19","target_direction":186,"distractor_direction":95,"session_rotation":152,"rt":-1,"response":"","correct":false,"choices":"ALL_KEYS","correct_choice":["a"],"trial_duration":2000,"flip_timestamps":[],"response_ends_trial":false,"number_of_apertures":200,"number_of_dots":[1,1,1,1,1,1,1,1,1,1,1,1,1,1,1,1,1,1,1,1,1,1,1,1,1,1,1,1,1,1,1,1,1,1,1,1,1,1,1,1,1,1,1,1,1,1,1,1,1,1,1,1,1,1,1,1,1,1,1,1,1,1,1,1,1,1,1,1,1,1,1,1,1,1,1,1,1,1,1,1,1,1,1,1,1,1,1,1,1,1,1,1,1,1,1,1,1,1,1,1,1,1,1,1,1,1,1,1,1,1,1,1,1,1,1,1,1,1,1,1,1,1,1,1,1,1,1,1,1,1,1,1,1,1,1,1,1,1,1,1,1,1,1,1,1,1,1,1,1,1,1,1,1,1,1,1,1,1,1,1,1,1,1,1,1,1,1,1,1,1,1,1,1,1,1,1,1,1,1,1,1,1,1,1,1,1,1,1,1,1,1,1,1,1,1,1,1,1,1,1],"number_of_sets":1,"coherent_direction":[186,186,186,95,186,186,186,95,186,186,95,95,95,186,186,186,95,186,186,95,95,186,186,186,186,186,186,186,95,186,186,95,186,95,186,95,186,95,95,186,186,95,186,95,95,95,95,186,95,95,95,186,186,95,186,95,95,95,186,186,95,95,95,186,95,186,95,186,186,95,186,186,95,186,95,95,95,95,95,186,95,186,186,186,95,186,95,186,95,95,95,186,186,186,186,95,95,95,95,95,186,95,95,95,95,186,95,186,95,95,186,186,95,95,95,95,95,95,95,95,186,186,95,95,186,95,95,186,95,186,186,95,186,95,186,186,186,186,186,186,186,186,95,95,95,186,186,95,186,95,95,186,186,95,95,95,186,95,186,186,95,186,95,186,186,186,186,95,186,95,95,186,186,95,186,95,95,95,186,95,95,186,186,95,95,95,186,186,186,95,95,186,186,95,186,186,186,95,186,95],"coherence":1,"opposite_coherence":0,"dot_radius":2,"dot_side_length":1,"dot_life":-1,"move_distance":1,"aperture_width":300,"aperture_height":300,"dot_color":["white","white","white","black","white","white","white","black","white","white","black","black","black","white","white","white","black","white","white","black","black","white","white","white","white","white","white","white","black","white","white","black","white","black","white","black","white","black","black","white","white","black","white","black","black","black","black","white","black","black","black","white","white","black","white","black","black","black","white","white","black","black","black","white","black","white","black","white","white","black","white","white","black","white","black","black","black","black","black","white","black","white","white","white","black","white","black","white","black","black","black","white","white","white","white","black","black","black","black","black","white","black","black","black","black","white","black","white","black","black","white","white","black","black","black","black","black","black","black","black","white","white","black","black","white","black","black","white","black","white","white","black","white","black","white","white","white","white","white","white","white","white","black","black","black","white","white","black","white","black","black","white","white","black","black","black","white","black","white","white","black","white","black","white","white","white","white","black","white","black","black","white","white","black","white","black","black","black","white","black","black","white","white","black","black","black","white","white","white","black","black","white","white","black","white","white","white","black","white","black"],"dot_shape":"circle","background_color":"#AAA","RDK_type":3,"aperture_type":2,"reinsert_type":2,"frame_rate":8.24793388429752,"frame_rate_array":[1,4,9,8,8,8,9,8,8,9,9,7,9,8,8,8,8,9,8,8,8,8,8,9,8,8,9,8,8,8,8,8,9,8,9,7,9,8,10,8,7,9,8,8,9,8,9,8,8,9,8,8,8,8,8,8,9,8,8,8,8,8,8,8,8,8,8,8,10,9,8,7,9,8,8,8,9,8,8,8,8,8,9,8,8,8,9,8,8,11,6,8,9,8,9,9,8,8,9,8,8,9,8,8,8,9,9,8,8,8,9,8,8,8,8,9,9,8,9,8,9,8,9,8,8,8,8,9,8,8,9,8,8,8,9,8,8,8,9,8,9,8,9,9,8,8,9,8,8,8,9,8,8,9,10,8,9,8,8,8,9,8,8,8,8,10,7,8,8,8,9,8,9,9,7,8,8,9,8,9,8,8,9,8,8,8,8,9,8,8,8,8,10,8,7,9,8,8,8,8,9,8,9,8,8,8,9,8,9,8,8,8,8,10,9,8,8,8,9,8,8,8,8,8,8,8,8,9,8,8,10,8,7,9,8,8,8,8,8,9,8,9],"number_of_frames":242,"aperture_center_x":768,"aperture_center_y":432,"fixation_cross":true,"fixation_cross_width":15,"fixation_cross_height":15,"fixation_cross_color":"#111","fixation_cross_thickness":1,"border":true,"border_thickness":2,"border_color":"transparent","canvas_width":1536,"canvas_height":864,"trial_type":"rdk","trial_index":84,"plugin_version":"2.0.0","time_elapsed":172598},{"rt":1937,"stimulus":"\n        <div class=\"response-container\">\n          <div class=\"response-instruction\">\n            <p>rotate the bar by using the left and right arrow keys.</p>\n            <p>when you are determined, press the Enter key.</p>\n          </div>\n          <div class=\"response-circle\">\n            <div class=\"response-fixation\"></div>\n            <div id=\"bar\" class=\"rotating-bar\"></div>\n          </div>\n        </div>\n      ","response":"Enter","trial_type":"html-keyboard-response","trial_index":85,"plugin_version":"2.1.0","time_elapsed":174536,"random_initial_angle":247,"response_angle_css":344,"response_angle_rdk":106,"angular_error_target":-80,"angular_error_distractor":11,"target_direction":186,"target_group":"white","reward_points":0},{"rt":null,"stimulus":"\n          <p style=\"color: #FF3333;\">Your reward: 0 points</p>\n        ","response":null,"trial_type":"html-keyboard-response","trial_index":86,"plugin_version":"2.1.0","time_elapsed":176543},{"rt":null,"stimulus":"<div class=\"fixation\" style=\"font-size: 60px;\">+</div>","response":null,"trial_type":"html-keyboard-response","trial_index":87,"plugin_version":"2.1.0","time_elapsed":177555},{"phase":"learning-awareness","target_group":"white","condition_label":"W_H_vs_B_L_rep20","target_direction":177,"distractor_direction":80,"session_rotation":152,"rt":-1,"response":"","correct":false,"choices":"ALL_KEYS","correct_choice":["a"],"trial_duration":2000,"flip_timestamps":[],"response_ends_trial":false,"number_of_apertures":200,"number_of_dots":[1,1,1,1,1,1,1,1,1,1,1,1,1,1,1,1,1,1,1,1,1,1,1,1,1,1,1,1,1,1,1,1,1,1,1,1,1,1,1,1,1,1,1,1,1,1,1,1,1,1,1,1,1,1,1,1,1,1,1,1,1,1,1,1,1,1,1,1,1,1,1,1,1,1,1,1,1,1,1,1,1,1,1,1,1,1,1,1,1,1,1,1,1,1,1,1,1,1,1,1,1,1,1,1,1,1,1,1,1,1,1,1,1,1,1,1,1,1,1,1,1,1,1,1,1,1,1,1,1,1,1,1,1,1,1,1,1,1,1,1,1,1,1,1,1,1,1,1,1,1,1,1,1,1,1,1,1,1,1,1,1,1,1,1,1,1,1,1,1,1,1,1,1,1,1,1,1,1,1,1,1,1,1,1,1,1,1,1,1,1,1,1,1,1,1,1,1,1,1,1],"number_of_sets":1,"coherent_direction":[80,177,80,177,177,80,177,177,80,80,177,177,80,177,80,80,177,80,177,177,80,80,80,177,80,177,80,80,80,80,80,177,80,80,80,80,80,80,177,177,177,177,177,177,177,177,80,80,177,80,80,177,80,177,80,177,80,80,80,177,177,177,80,80,80,80,80,80,177,80,80,80,177,177,177,80,177,80,177,177,80,177,80,177,177,80,177,177,177,177,80,177,177,80,80,177,80,80,177,80,80,177,177,177,80,177,80,80,80,80,177,177,177,80,80,177,80,177,177,80,177,177,80,80,177,80,177,177,80,177,177,177,80,177,80,177,80,80,177,80,177,80,80,177,177,177,177,177,177,177,177,177,177,80,177,177,80,80,177,80,80,80,80,80,80,80,177,177,177,80,177,80,177,177,177,80,177,80,80,177,80,80,80,80,80,80,177,177,80,80,177,177,177,80,177,80,177,177,80,177],"coherence":1,"opposite_coherence":0,"dot_radius":2,"dot_side_length":1,"dot_life":-1,"move_distance":1,"aperture_width":300,"aperture_height":300,"dot_color":["black","white","black","white","white","black","white","white","black","black","white","white","black","white","black","black","white","black","white","white","black","black","black","white","black","white","black","black","black","black","black","white","black","black","black","black","black","black","white","white","white","white","white","white","white","white","black","black","white","black","black","white","black","white","black","white","black","black","black","white","white","white","black","black","black","black","black","black","white","black","black","black","white","white","white","black","white","black","white","white","black","white","black","white","white","black","white","white","white","white","black","white","white","black","black","white","black","black","white","black","black","white","white","white","black","white","black","black","black","black","white","white","white","black","black","white","black","white","white","black","white","white","black","black","white","black","white","white","black","white","white","white","black","white","black","white","black","black","white","black","white","black","black","white","white","white","white","white","white","white","white","white","white","black","white","white","black","black","white","black","black","black","black","black","black","black","white","white","white","black","white","black","white","white","white","black","white","black","black","white","black","black","black","black","black","black","white","white","black","black","white","white","white","black","white","black","white","white","black","white"],"dot_shape":"circle","background_color":"#AAA","RDK_type":3,"aperture_type":2,"reinsert_type":2,"frame_rate":8.161825726141078,"frame_rate_array":[5,9,8,8,9,8,8,8,9,8,8,8,8,8,8,8,8,10,8,8,8,8,8,8,8,8,8,8,10,7,8,8,8,8,8,8,9,8,10,8,8,8,8,8,8,10,7,8,9,8,8,8,8,9,8,8,8,10,8,8,8,8,8,8,10,7,9,8,9,8,8,9,8,9,8,8,8,8,8,8,8,8,9,9,7,8,8,8,8,9,8,8,8,8,8,8,8,8,8,8,8,8,8,8,8,9,8,8,8,8,8,8,8,8,8,8,8,8,8,8,8,8,8,8,9,8,8,8,9,8,8,9,8,8,8,8,8,8,8,8,8,8,8,9,9,8,8,8,8,8,8,8,8,8,8,8,9,8,8,9,8,8,8,8,8,8,8,8,8,8,9,8,8,8,8,8,8,8,8,9,8,8,8,8,8,8,8,8,8,8,9,8,8,8,8,8,8,8,9,8,8,9,8,10,8,8,7,8,8,8,8,9,8,8,8,9,8,8,9,8,8,8,8,8,8,8,9,10,9,7,8,9,8,8,8,8,8,8,8,8,8],"number_of_frames":241,"aperture_center_x":768,"aperture_center_y":432,"fixation_cross":true,"fixation_cross_width":15,"fixation_cross_height":15,"fixation_cross_color":"#111","fixation_cross_thickness":1,"border":true,"border_thickness":2,"border_color":"transparent","canvas_width":1536,"canvas_height":864,"trial_type":"rdk","trial_index":88,"plugin_version":"2.0.0","time_elapsed":179562},{"rt":1980,"stimulus":"\n        <div class=\"response-container\">\n          <div class=\"response-instruction\">\n            <p>rotate the bar by using the left and right arrow keys.</p>\n            <p>when you are determined, press the Enter key.</p>\n          </div>\n          <div class=\"response-circle\">\n            <div class=\"response-fixation\"></div>\n            <div id=\"bar\" class=\"rotating-bar\"></div>\n          </div>\n        </div>\n      ","response":"Enter","trial_type":"html-keyboard-response","trial_index":89,"plugin_version":"2.1.0","time_elapsed":181543,"random_initial_angle":180,"response_angle_css":293,"response_angle_rdk":157,"angular_error_target":-20,"angular_error_distractor":77,"target_direction":177,"target_group":"white","reward_points":6},{"rt":null,"stimulus":"\n          <p style=\"color: #00FF00;\">Your reward: 6 points</p>\n        ","response":null,"trial_type":"html-keyboard-response","trial_index":90,"plugin_version":"2.1.0","time_elapsed":183560},{"rt":null,"stimulus":"<div class=\"fixation\" style=\"font-size: 60px;\">+</div>","response":null,"trial_type":"html-keyboard-response","trial_index":91,"plugin_version":"2.1.0","time_elapsed":184567},{"phase":"learning-awareness","target_group":"black","condition_label":"B_H_vs_W_L_rep19","target_direction":256,"distractor_direction":348,"session_rotation":152,"rt":-1,"response":"","correct":false,"choices":"ALL_KEYS","correct_choice":["a"],"trial_duration":2000,"flip_timestamps":[],"response_ends_trial":false,"number_of_apertures":200,"number_of_dots":[1,1,1,1,1,1,1,1,1,1,1,1,1,1,1,1,1,1,1,1,1,1,1,1,1,1,1,1,1,1,1,1,1,1,1,1,1,1,1,1,1,1,1,1,1,1,1,1,1,1,1,1,1,1,1,1,1,1,1,1,1,1,1,1,1,1,1,1,1,1,1,1,1,1,1,1,1,1,1,1,1,1,1,1,1,1,1,1,1,1,1,1,1,1,1,1,1,1,1,1,1,1,1,1,1,1,1,1,1,1,1,1,1,1,1,1,1,1,1,1,1,1,1,1,1,1,1,1,1,1,1,1,1,1,1,1,1,1,1,1,1,1,1,1,1,1,1,1,1,1,1,1,1,1,1,1,1,1,1,1,1,1,1,1,1,1,1,1,1,1,1,1,1,1,1,1,1,1,1,1,1,1,1,1,1,1,1,1,1,1,1,1,1,1,1,1,1,1,1,1],"number_of_sets":1,"coherent_direction":[256,256,348,348,348,348,256,256,348,256,256,256,348,256,256,348,348,256,256,256,348,348,256,348,256,348,348,256,348,256,256,348,348,256,348,256,348,256,256,256,256,256,256,348,348,348,348,256,348,348,348,256,256,256,256,256,348,256,256,256,348,256,256,256,256,256,256,348,256,348,348,348,256,348,348,256,348,256,348,256,348,256,256,348,256,256,348,348,256,256,348,348,348,348,348,348,256,256,348,256,256,256,256,256,348,348,348,256,348,256,256,348,256,256,348,256,348,348,256,348,348,256,256,348,256,348,348,348,256,348,256,256,348,256,348,348,348,256,348,348,256,256,348,256,348,348,348,256,256,256,348,256,256,256,256,348,256,348,348,256,348,256,348,256,348,348,256,348,348,256,348,256,348,256,348,348,348,256,348,348,256,348,256,348,348,348,256,256,348,348,256,256,348,348,348,348,256,256,348,348],"coherence":1,"opposite_coherence":0,"dot_radius":2,"dot_side_length":1,"dot_life":-1,"move_distance":1,"aperture_width":300,"aperture_height":300,"dot_color":["black","black","white","white","white","white","black","black","white","black","black","black","white","black","black","white","white","black","black","black","white","white","black","white","black","white","white","black","white","black","black","white","white","black","white","black","white","black","black","black","black","black","black","white","white","white","white","black","white","white","white","black","black","black","black","black","white","black","black","black","white","black","black","black","black","black","black","white","black","white","white","white","black","white","white","black","white","black","white","black","white","black","black","white","black","black","white","white","black","black","white","white","white","white","white","white","black","black","white","black","black","black","black","black","white","white","white","black","white","black","black","white","black","black","white","black","white","white","black","white","white","black","black","white","black","white","white","white","black","white","black","black","white","black","white","white","white","black","white","white","black","black","white","black","white","white","white","black","black","black","white","black","black","black","black","white","black","white","white","black","white","black","white","black","white","white","black","white","white","black","white","black","white","black","white","white","white","black","white","white","black","white","black","white","white","white","black","black","white","white","black","black","white","white","white","white","black","black","white","white"],"dot_shape":"circle","background_color":"#AAA","RDK_type":3,"aperture_type":2,"reinsert_type":2,"frame_rate":8.233333333333333,"frame_rate_array":[9,8,8,8,8,9,8,8,8,9,8,8,9,8,8,8,8,8,9,9,8,8,8,8,8,8,8,9,8,8,8,8,8,8,8,8,8,9,8,8,9,8,8,8,8,8,8,9,8,8,8,8,8,8,8,8,8,9,9,8,8,8,9,8,9,8,9,8,8,8,8,8,8,8,8,8,8,8,8,8,8,8,8,9,8,8,9,8,8,8,8,8,8,10,7,8,8,8,10,8,8,8,9,8,9,8,8,8,9,8,8,8,8,9,8,8,8,9,9,8,8,8,9,8,8,9,8,9,8,9,8,8,9,8,8,8,8,8,8,8,8,8,8,10,8,8,8,8,8,8,8,8,9,8,8,8,8,8,8,9,8,8,9,8,8,9,10,8,8,8,8,8,8,8,10,8,8,8,8,8,8,8,8,8,8,9,8,9,8,9,7,8,9,8,10,9,7,8,10,8,7,9,8,8,8,8,8,8,8,9,8,8,8,8,8,8,8,8,10,8,8,8,7,9,8,8,8,10,9,7,10,8,8,8,8,8,8,8,8,9],"number_of_frames":240,"aperture_center_x":768,"aperture_center_y":432,"fixation_cross":true,"fixation_cross_width":15,"fixation_cross_height":15,"fixation_cross_color":"#111","fixation_cross_thickness":1,"border":true,"border_thickness":2,"border_color":"transparent","canvas_width":1536,"canvas_height":864,"trial_type":"rdk","trial_index":92,"plugin_version":"2.0.0","time_elapsed":186570},{"rt":1821,"stimulus":"\n        <div class=\"response-container\">\n          <div class=\"response-instruction\">\n            <p>rotate the bar by using the left and right arrow keys.</p>\n            <p>when you are determined, press the Enter key.</p>\n          </div>\n          <div class=\"response-circle\">\n            <div class=\"response-fixation\"></div>\n            <div id=\"bar\" class=\"rotating-bar\"></div>\n          </div>\n        </div>\n      ","response":"Enter","trial_type":"html-keyboard-response","trial_index":93,"plugin_version":"2.1.0","time_elapsed":188391,"random_initial_angle":342,"response_angle_css":437,"response_angle_rdk":13,"angular_error_target":117,"angular_error_distractor":25,"target_direction":256,"target_group":"black","reward_points":0},{"rt":null,"stimulus":"\n          <p style=\"color: #FF3333;\">Your reward: 0 points</p>\n        ","response":null,"trial_type":"html-keyboard-response","trial_index":94,"plugin_version":"2.1.0","time_elapsed":190396},{"rt":null,"stimulus":"<div class=\"fixation\" style=\"font-size: 60px;\">+</div>","response":null,"trial_type":"html-keyboard-response","trial_index":95,"plugin_version":"2.1.0","time_elapsed":191405},{"phase":"learning-awareness","target_group":"black","condition_label":"B_H_vs_W_L_rep8","target_direction":248,"distractor_direction":349,"session_rotation":152,"rt":-1,"response":"","correct":false,"choices":"ALL_KEYS","correct_choice":["a"],"trial_duration":2000,"flip_timestamps":[],"response_ends_trial":false,"number_of_apertures":200,"number_of_dots":[1,1,1,1,1,1,1,1,1,1,1,1,1,1,1,1,1,1,1,1,1,1,1,1,1,1,1,1,1,1,1,1,1,1,1,1,1,1,1,1,1,1,1,1,1,1,1,1,1,1,1,1,1,1,1,1,1,1,1,1,1,1,1,1,1,1,1,1,1,1,1,1,1,1,1,1,1,1,1,1,1,1,1,1,1,1,1,1,1,1,1,1,1,1,1,1,1,1,1,1,1,1,1,1,1,1,1,1,1,1,1,1,1,1,1,1,1,1,1,1,1,1,1,1,1,1,1,1,1,1,1,1,1,1,1,1,1,1,1,1,1,1,1,1,1,1,1,1,1,1,1,1,1,1,1,1,1,1,1,1,1,1,1,1,1,1,1,1,1,1,1,1,1,1,1,1,1,1,1,1,1,1,1,1,1,1,1,1,1,1,1,1,1,1,1,1,1,1,1,1],"number_of_sets":1,"coherent_direction":[349,349,248,349,248,248,248,248,248,248,248,349,349,349,349,248,248,248,349,248,248,349,349,349,248,248,248,349,248,248,349,248,349,349,349,248,349,349,248,248,349,248,248,248,248,248,349,248,248,349,349,349,349,349,248,349,248,349,349,349,349,349,349,248,349,248,349,349,248,349,349,349,349,248,248,349,248,248,349,248,248,248,349,248,248,248,248,248,248,248,349,248,248,248,248,248,349,349,248,349,349,349,248,248,248,349,349,349,349,248,248,349,248,349,349,349,248,248,248,349,349,248,248,349,248,349,349,248,248,349,349,349,248,248,349,349,248,349,248,248,248,248,349,349,248,349,349,248,248,349,349,248,248,248,349,349,248,349,248,248,248,349,248,349,248,349,349,349,349,349,248,248,349,349,248,248,248,248,248,248,349,349,349,248,349,349,349,349,248,349,349,349,349,248,349,248,349,349,349,248],"coherence":1,"opposite_coherence":0,"dot_radius":2,"dot_side_length":1,"dot_life":-1,"move_distance":1,"aperture_width":300,"aperture_height":300,"dot_color":["white","white","black","white","black","black","black","black","black","black","black","white","white","white","white","black","black","black","white","black","black","white","white","white","black","black","black","white","black","black","white","black","white","white","white","black","white","white","black","black","white","black","black","black","black","black","white","black","black","white","white","white","white","white","black","white","black","white","white","white","white","white","white","black","white","black","white","white","black","white","white","white","white","black","black","white","black","black","white","black","black","black","white","black","black","black","black","black","black","black","white","black","black","black","black","black","white","white","black","white","white","white","black","black","black","white","white","white","white","black","black","white","black","white","white","white","black","black","black","white","white","black","black","white","black","white","white","black","black","white","white","white","black","black","white","white","black","white","black","black","black","black","white","white","black","white","white","black","black","white","white","black","black","black","white","white","black","white","black","black","black","white","black","white","black","white","white","white","white","white","black","black","white","white","black","black","black","black","black","black","white","white","white","black","white","white","white","white","black","white","white","white","white","black","white","black","white","white","white","black"],"dot_shape":"circle","background_color":"#AAA","RDK_type":3,"aperture_type":2,"reinsert_type":2,"frame_rate":8.240663900414937,"frame_rate_array":[4,9,9,9,7,8,8,8,8,9,8,8,8,8,8,8,8,9,8,9,8,8,8,9,9,8,8,9,9,8,8,8,8,9,8,8,9,8,10,8,9,8,8,8,9,8,8,8,8,9,8,8,9,8,8,8,8,9,8,8,8,8,8,8,8,8,9,8,10,8,7,8,8,10,9,8,8,8,8,8,8,8,8,9,8,8,8,10,7,8,8,8,8,8,8,9,8,8,8,10,8,8,8,9,8,8,10,8,8,7,9,10,7,8,9,8,10,8,8,8,9,8,8,8,9,8,8,9,8,8,8,8,8,10,8,8,8,8,8,8,8,8,9,8,8,8,10,7,8,9,8,8,8,8,9,8,9,8,8,8,9,8,8,8,8,9,8,8,9,9,7,8,8,8,8,8,9,8,8,8,8,8,9,8,8,8,8,9,8,9,8,8,8,8,8,8,8,9,9,8,8,8,8,8,8,8,10,8,8,8,8,7,8,9,8,8,8,10,8,7,8,8,9,8,8,8,9,8,8,9,8,8,8,9,8,8,8,8,8,8,9],"number_of_frames":241,"aperture_center_x":768,"aperture_center_y":432,"fixation_cross":true,"fixation_cross_width":15,"fixation_cross_height":15,"fixation_cross_color":"#111","fixation_cross_thickness":1,"border":true,"border_thickness":2,"border_color":"transparent","canvas_width":1536,"canvas_height":864,"trial_type":"rdk","trial_index":96,"plugin_version":"2.0.0","time_elapsed":193412},{"rt":913,"stimulus":"\n        <div class=\"response-container\">\n          <div class=\"response-instruction\">\n            <p>rotate the bar by using the left and right arrow keys.</p>\n            <p>when you are determined, press the Enter key.</p>\n          </div>\n          <div class=\"response-circle\">\n            <div class=\"response-fixation\"></div>\n            <div id=\"bar\" class=\"rotating-bar\"></div>\n          </div>\n        </div>\n      ","response":"Enter","trial_type":"html-keyboard-response","trial_index":97,"plugin_version":"2.1.0","time_elapsed":194327,"random_initial_angle":192,"response_angle_css":210,"response_angle_rdk":240,"angular_error_target":-8,"angular_error_distractor":-109,"target_direction":248,"target_group":"black","reward_points":8},{"rt":null,"stimulus":"\n          <p style=\"color: #00FF00;\">Your reward: 8 points</p>\n        ","response":null,"trial_type":"html-keyboard-response","trial_index":98,"plugin_version":"2.1.0","time_elapsed":196338},{"rt":null,"stimulus":"<div class=\"fixation\" style=\"font-size: 60px;\">+</div>","response":null,"trial_type":"html-keyboard-response","trial_index":99,"plugin_version":"2.1.0","time_elapsed":197341},{"phase":"learning-awareness","target_group":"white","condition_label":"W_H_vs_B_L_rep6","target_direction":183,"distractor_direction":82,"session_rotation":152,"rt":-1,"response":"","correct":false,"choices":"ALL_KEYS","correct_choice":["a"],"trial_duration":2000,"flip_timestamps":[],"response_ends_trial":false,"number_of_apertures":200,"number_of_dots":[1,1,1,1,1,1,1,1,1,1,1,1,1,1,1,1,1,1,1,1,1,1,1,1,1,1,1,1,1,1,1,1,1,1,1,1,1,1,1,1,1,1,1,1,1,1,1,1,1,1,1,1,1,1,1,1,1,1,1,1,1,1,1,1,1,1,1,1,1,1,1,1,1,1,1,1,1,1,1,1,1,1,1,1,1,1,1,1,1,1,1,1,1,1,1,1,1,1,1,1,1,1,1,1,1,1,1,1,1,1,1,1,1,1,1,1,1,1,1,1,1,1,1,1,1,1,1,1,1,1,1,1,1,1,1,1,1,1,1,1,1,1,1,1,1,1,1,1,1,1,1,1,1,1,1,1,1,1,1,1,1,1,1,1,1,1,1,1,1,1,1,1,1,1,1,1,1,1,1,1,1,1,1,1,1,1,1,1,1,1,1,1,1,1,1,1,1,1,1,1],"number_of_sets":1,"coherent_direction":[183,183,82,82,183,82,82,183,183,82,82,82,183,183,183,183,82,183,82,183,183,183,183,183,82,82,183,82,82,183,183,82,82,82,183,183,82,183,82,183,82,82,183,82,183,82,183,183,82,82,82,183,183,183,82,183,82,82,183,82,183,82,183,82,183,82,183,183,82,183,82,183,82,183,82,82,82,183,82,183,82,82,82,183,183,183,183,183,183,82,183,82,82,82,82,82,82,183,183,183,183,183,183,82,183,82,82,82,183,183,82,183,82,82,183,183,183,183,82,82,82,82,82,183,183,82,183,183,82,183,82,183,183,183,183,183,82,183,183,183,183,183,82,82,82,183,183,82,82,82,82,183,82,82,82,183,183,183,82,82,82,183,183,82,82,183,183,82,183,183,82,82,82,82,183,82,183,183,183,82,82,183,82,82,183,183,183,82,82,82,183,82,82,82,82,183,82,183,82,82],"coherence":1,"opposite_coherence":0,"dot_radius":2,"dot_side_length":1,"dot_life":-1,"move_distance":1,"aperture_width":300,"aperture_height":300,"dot_color":["white","white","black","black","white","black","black","white","white","black","black","black","white","white","white","white","black","white","black","white","white","white","white","white","black","black","white","black","black","white","white","black","black","black","white","white","black","white","black","white","black","black","white","black","white","black","white","white","black","black","black","white","white","white","black","white","black","black","white","black","white","black","white","black","white","black","white","white","black","white","black","white","black","white","black","black","black","white","black","white","black","black","black","white","white","white","white","white","white","black","white","black","black","black","black","black","black","white","white","white","white","white","white","black","white","black","black","black","white","white","black","white","black","black","white","white","white","white","black","black","black","black","black","white","white","black","white","white","black","white","black","white","white","white","white","white","black","white","white","white","white","white","black","black","black","white","white","black","black","black","black","white","black","black","black","white","white","white","black","black","black","white","white","black","black","white","white","black","white","white","black","black","black","black","white","black","white","white","white","black","black","white","black","black","white","white","white","black","black","black","white","black","black","black","black","white","black","white","black","black"],"dot_shape":"circle","background_color":"#AAA","RDK_type":3,"aperture_type":2,"reinsert_type":2,"frame_rate":8.28630705394191,"frame_rate_array":[1,8,9,8,8,8,9,8,9,8,8,8,8,9,7,8,8,8,8,8,10,7,9,8,9,8,8,9,8,8,8,8,8,10,9,8,8,9,8,8,8,8,9,8,8,8,8,8,8,8,9,8,9,8,8,9,8,8,9,8,8,8,9,8,8,8,9,9,7,8,10,8,8,8,8,9,8,8,8,10,8,8,8,8,8,9,8,9,8,9,8,8,8,8,9,9,8,8,8,8,8,8,9,8,9,8,8,8,8,8,9,8,8,8,9,8,8,9,8,8,8,9,9,9,7,8,8,9,9,8,8,9,8,8,8,9,8,9,8,8,10,9,9,7,9,8,8,8,8,8,8,8,10,7,9,8,8,8,8,8,10,8,7,10,8,8,8,9,7,8,9,8,8,8,8,8,9,8,8,8,9,8,8,8,8,10,8,9,7,8,8,10,7,8,9,9,8,7,10,9,8,7,8,10,9,7,8,8,8,10,9,7,9,10,9,8,7,9,9,8,8,9,8,9,9,8,8,8,8,9,10,8,9,7,8,8,10,9,8,8,8],"number_of_frames":241,"aperture_center_x":768,"aperture_center_y":432,"fixation_cross":true,"fixation_cross_width":15,"fixation_cross_height":15,"fixation_cross_color":"#111","fixation_cross_thickness":1,"border":true,"border_thickness":2,"border_color":"transparent","canvas_width":1536,"canvas_height":864,"trial_type":"rdk","trial_index":100,"plugin_version":"2.0.0","time_elapsed":199345},{"rt":1942,"stimulus":"\n        <div class=\"response-container\">\n          <div class=\"response-instruction\">\n            <p>rotate the bar by using the left and right arrow keys.</p>\n            <p>when you are determined, press the Enter key.</p>\n          </div>\n          <div class=\"response-circle\">\n            <div class=\"response-fixation\"></div>\n            <div id=\"bar\" class=\"rotating-bar\"></div>\n          </div>\n        </div>\n      ","response":"Enter","trial_type":"html-keyboard-response","trial_index":101,"plugin_version":"2.1.0","time_elapsed":201287,"random_initial_angle":280,"response_angle_css":393,"response_angle_rdk":57,"angular_error_target":-126,"angular_error_distractor":-25,"target_direction":183,"target_group":"white","reward_points":0},{"rt":null,"stimulus":"\n          <p style=\"color: #FF3333;\">Your reward: 0 points</p>\n        ","response":null,"trial_type":"html-keyboard-response","trial_index":102,"plugin_version":"2.1.0","time_elapsed":203297},{"rt":null,"stimulus":"<div class=\"fixation\" style=\"font-size: 60px;\">+</div>","response":null,"trial_type":"html-keyboard-response","trial_index":103,"plugin_version":"2.1.0","time_elapsed":204306},{"phase":"learning-awareness","target_group":"white","condition_label":"W_H_vs_B_L_rep8","target_direction":165,"distractor_direction":72,"session_rotation":152,"rt":-1,"response":"","correct":false,"choices":"ALL_KEYS","correct_choice":["a"],"trial_duration":2000,"flip_timestamps":[],"response_ends_trial":false,"number_of_apertures":200,"number_of_dots":[1,1,1,1,1,1,1,1,1,1,1,1,1,1,1,1,1,1,1,1,1,1,1,1,1,1,1,1,1,1,1,1,1,1,1,1,1,1,1,1,1,1,1,1,1,1,1,1,1,1,1,1,1,1,1,1,1,1,1,1,1,1,1,1,1,1,1,1,1,1,1,1,1,1,1,1,1,1,1,1,1,1,1,1,1,1,1,1,1,1,1,1,1,1,1,1,1,1,1,1,1,1,1,1,1,1,1,1,1,1,1,1,1,1,1,1,1,1,1,1,1,1,1,1,1,1,1,1,1,1,1,1,1,1,1,1,1,1,1,1,1,1,1,1,1,1,1,1,1,1,1,1,1,1,1,1,1,1,1,1,1,1,1,1,1,1,1,1,1,1,1,1,1,1,1,1,1,1,1,1,1,1,1,1,1,1,1,1,1,1,1,1,1,1,1,1,1,1,1,1],"number_of_sets":1,"coherent_direction":[165,165,72,165,72,72,165,72,165,165,72,165,165,72,72,165,72,165,165,72,72,72,165,72,72,165,165,72,72,72,165,165,72,165,165,72,165,72,72,72,165,72,165,165,72,165,165,72,165,165,72,165,165,72,72,72,165,72,72,165,165,165,165,165,165,165,72,165,165,165,72,72,72,165,165,72,165,165,72,165,72,165,165,165,165,72,72,72,72,165,72,72,72,72,165,72,72,72,72,165,165,72,165,72,165,72,72,72,165,165,72,165,165,165,165,165,165,165,72,72,72,72,72,72,72,165,72,165,72,72,165,165,165,72,165,72,72,72,72,72,72,72,165,72,165,165,72,165,165,72,72,72,72,72,72,72,165,165,165,72,72,165,165,165,72,165,165,165,72,72,72,165,72,165,165,165,72,72,72,165,165,165,165,72,165,72,165,165,165,165,165,72,72,72,165,165,165,72,72,72],"coherence":1,"opposite_coherence":0,"dot_radius":2,"dot_side_length":1,"dot_life":-1,"move_distance":1,"aperture_width":300,"aperture_height":300,"dot_color":["white","white","black","white","black","black","white","black","white","white","black","white","white","black","black","white","black","white","white","black","black","black","white","black","black","white","white","black","black","black","white","white","black","white","white","black","white","black","black","black","white","black","white","white","black","white","white","black","white","white","black","white","white","black","black","black","white","black","black","white","white","white","white","white","whit