[{"rt":3111,"stimulus":"Welcome to the experiment. Press any key to begin.","response":" ","trial_type":"html-keyboard-response","trial_index":0,"plugin_version":"2.1.0","time_elapsed":3113},{"rt":37150,"stimulus":"\n        <div class=\"instructions-container\">\n          <h2>Instructions</h2>\n\n          <p>\n          In this experiment, you will see <strong>two Random Dot Kinematograms (RDKs)</strong> displayed simultaneously.\n          </p>\n\n          <p>\n          An RDK is a visual stimulus consisting of many small dots that move coherently in a single direction. \n          In this experiment, the dots will be either <strong>white</strong> or <strong>black</strong> \n          (see the short demo below for an example of an RDK stimulus).\n          </p>\n\n          <p>\n          On each trial, the two RDKs will move in different directions. \n          Your task is to decide <strong>which RDK appears to contain more dots</strong>.\n          </p>\n\n          <p>\n          The RDK that you judge to have more dots is called the <strong>target RDK</strong>. \n          For example, if the white RDK appears to have more dots than the black RDK, \n          you should report the motion direction of the white RDK.\n          </p>\n\n          <p>\n          After viewing the RDKs, you will rotate a bar to indicate the perceived direction of the target RDK \n          using the <strong>left</strong> and <strong>right arrow keys</strong>. \n          Press <strong>Enter</strong> when you are satisfied with your response.\n          </p>\n\n          <p>\n          You will receive points based on the <strong>accuracy of your response</strong>, \n          and your final <strong>bonus reward</strong> may depend on your overall performance. \n          Please try to respond as accurately as possible.\n          </p>\n\n          <p>\n          You will first complete <strong>16 practice trials</strong>. \n          Press the <strong>Enter</strong> key to start the practice phase.\n          </p>\n\n          <canvas id=\"instruction-demo-rdk\" width=\"200\" height=\"200\"style=\"display:block;margin:12px auto; border-radius: 50%;\"></canvas>\n        </div>\n      ","response":"Enter","trial_type":"html-keyboard-response","trial_index":1,"plugin_version":"2.1.0","time_elapsed":40265},{"rt":null,"stimulus":"<div class=\"fixation\" style=\"font-size: 60px;\">+</div>","response":null,"trial_type":"html-keyboard-response","trial_index":2,"plugin_version":"2.1.0","time_elapsed":41268},{"target_group":"black","target_index":1,"condition_label":"practice","rt":-1,"response":"","correct":false,"choices":"ALL_KEYS","correct_choice":["a"],"trial_duration":2000,"flip_timestamps":[],"response_ends_trial":false,"number_of_apertures":2,"number_of_dots":[60,100],"number_of_sets":1,"coherent_direction":[151,306],"coherence":1,"opposite_coherence":0,"dot_radius":2,"dot_side_length":1,"dot_life":-1,"move_distance":1,"aperture_width":300,"aperture_height":300,"dot_color":["white","black"],"dot_shape":"circle","background_color":"#AAA","RDK_type":3,"aperture_type":2,"reinsert_type":2,"frame_rate":16.833333333333332,"frame_rate_array":[4,16,23,10,17,17,17,17,17,17,17,17,17,17,17,17,17,17,16,17,17,17,17,17,17,17,17,17,17,17,17,17,17,17,17,17,17,17,17,17,17,17,17,17,17,17,17,16,17,17,17,17,17,17,17,17,17,17,16,18,17,17,17,16,17,16,17,17,17,17,17,17,17,17,17,17,17,17,17,17,17,17,17,17,17,17,17,17,17,17,17,17,17,17,16,17,17,17,17,17,17,17,17,17,17,17,17,17,17,17,17,17,17,17,17,17,17,17,17,17],"number_of_frames":120,"aperture_center_x":720,"aperture_center_y":450,"fixation_cross":true,"fixation_cross_width":15,"fixation_cross_height":15,"fixation_cross_color":"#111","fixation_cross_thickness":1,"border":true,"border_thickness":2,"border_color":"transparent","canvas_width":1440,"canvas_height":900,"trial_type":"rdk","trial_index":3,"plugin_version":"2.0.0","time_elapsed":43276,"target_direction":306,"distractor_direction":151},{"rt":3805,"stimulus":"\n        <div class=\"response-container\">\n          <div class=\"response-instruction\">\n            <p>rotate the bar by using the left and right arrow keys.</p>\n            <p>when you are determined, press the Enter key.</p>\n          </div>\n          <div class=\"response-circle\">\n            <div class=\"response-fixation\"></div>\n            <div id=\"bar\" class=\"rotating-bar\"></div>\n          </div>\n        </div>\n      ","response":"Enter","trial_type":"html-keyboard-response","trial_index":4,"plugin_version":"2.1.0","time_elapsed":47083,"random_initial_angle":112,"response_angle_css":119,"response_angle_rdk":331,"angular_error_target":25,"angular_error_distractor":180,"target_direction":306,"target_group":"black","reward_points":5},{"rt":null,"stimulus":"\n          <p style=\"color: #00FF00;\">Your reward: 5 points</p>\n        ","response":null,"trial_type":"html-keyboard-response","trial_index":5,"plugin_version":"2.1.0","time_elapsed":49086},{"rt":null,"stimulus":"<div class=\"fixation\" style=\"font-size: 60px;\">+</div>","response":null,"trial_type":"html-keyboard-response","trial_index":6,"plugin_version":"2.1.0","time_elapsed":50089},{"target_group":"white","target_index":0,"condition_label":"practice","rt":-1,"response":"","correct":false,"choices":"ALL_KEYS","correct_choice":["a"],"trial_duration":2000,"flip_timestamps":[],"response_ends_trial":false,"number_of_apertures":2,"number_of_dots":[100,53],"number_of_sets":1,"coherent_direction":[56,292],"coherence":1,"opposite_coherence":0,"dot_radius":2,"dot_side_length":1,"dot_life":-1,"move_distance":1,"aperture_width":300,"aperture_height":300,"dot_color":["white","black"],"dot_shape":"circle","background_color":"#AAA","RDK_type":3,"aperture_type":2,"reinsert_type":2,"frame_rate":16.941176470588236,"frame_rate_array":[19,17,17,17,17,17,17,17,17,17,17,17,17,17,17,17,17,17,17,16,17,16,18,17,17,17,17,17,17,17,17,17,17,17,17,17,17,17,17,17,17,17,17,17,17,17,17,17,17,16,17,17,17,16,17,16,17,17,17,17,17,17,16,17,17,17,17,17,17,17,17,16,17,17,16,17,17,17,17,17,17,17,17,17,17,17,17,17,17,17,17,17,17,17,17,17,17,16,17,17,17,16,18,17,16,17,17,17,17,17,17,17,17,17,17,17,17,17,17],"number_of_frames":119,"aperture_center_x":720,"aperture_center_y":450,"fixation_cross":true,"fixation_cross_width":15,"fixation_cross_height":15,"fixation_cross_color":"#111","fixation_cross_thickness":1,"border":true,"border_thickness":2,"border_color":"transparent","canvas_width":1440,"canvas_height":900,"trial_type":"rdk","trial_index":7,"plugin_version":"2.0.0","time_elapsed":52094,"target_direction":56,"distractor_direction":292},{"rt":4422,"stimulus":"\n        <div class=\"response-container\">\n          <div class=\"response-instruction\">\n            <p>rotate the bar by using the left and right arrow keys.</p>\n            <p>when you are determined, press the Enter key.</p>\n          </div>\n          <div class=\"response-circle\">\n            <div class=\"response-fixation\"></div>\n            <div id=\"bar\" class=\"rotating-bar\"></div>\n          </div>\n        </div>\n      ","response":"Enter","trial_type":"html-keyboard-response","trial_index":8,"plugin_version":"2.1.0","time_elapsed":56518,"random_initial_angle":272,"response_angle_css":375,"response_angle_rdk":75,"angular_error_target":19,"angular_error_distractor":143,"target_direction":56,"target_group":"white","reward_points":6},{"rt":null,"stimulus":"\n          <p style=\"color: #00FF00;\">Your reward: 6 points</p>\n        ","response":null,"trial_type":"html-keyboard-response","trial_index":9,"plugin_version":"2.1.0","time_elapsed":58522},{"rt":null,"stimulus":"<div class=\"fixation\" style=\"font-size: 60px;\">+</div>","response":null,"trial_type":"html-keyboard-response","trial_index":10,"plugin_version":"2.1.0","time_elapsed":59524},{"target_group":"white","target_index":0,"condition_label":"practice","rt":-1,"response":"","correct":false,"choices":"ALL_KEYS","correct_choice":["a"],"trial_duration":2000,"flip_timestamps":[],"response_ends_trial":false,"number_of_apertures":2,"number_of_dots":[100,81],"number_of_sets":1,"coherent_direction":[178,47],"coherence":1,"opposite_coherence":0,"dot_radius":2,"dot_side_length":1,"dot_life":-1,"move_distance":1,"aperture_width":300,"aperture_height":300,"dot_color":["white","black"],"dot_shape":"circle","background_color":"#AAA","RDK_type":3,"aperture_type":2,"reinsert_type":2,"frame_rate":16.925,"frame_rate_array":[17,17,16,17,17,17,17,16,18,17,16,18,17,17,17,16,18,17,16,18,17,16,18,16,18,17,17,16,17,17,16,16,18,17,16,18,16,18,16,18,17,17,16,17,18,16,17,17,18,17,17,17,17,17,17,17,17,17,17,17,17,17,17,17,16,17,17,17,16,18,16,17,17,17,16,18,17,17,16,18,16,18,17,17,17,17,17,17,17,17,17,17,17,17,17,17,17,16,17,16,18,17,17,17,16,17,17,16,17,17,17,16,16,18,17,17,17,17,17,17],"number_of_frames":120,"aperture_center_x":720,"aperture_center_y":450,"fixation_cross":true,"fixation_cross_width":15,"fixation_cross_height":15,"fixation_cross_color":"#111","fixation_cross_thickness":1,"border":true,"border_thickness":2,"border_color":"transparent","canvas_width":1440,"canvas_height":900,"trial_type":"rdk","trial_index":11,"plugin_version":"2.0.0","time_elapsed":61529,"target_direction":178,"distractor_direction":47},{"rt":2456,"stimulus":"\n        <div class=\"response-container\">\n          <div class=\"response-instruction\">\n            <p>rotate the bar by using the left and right arrow keys.</p>\n            <p>when you are determined, press the Enter key.</p>\n          </div>\n          <div class=\"response-circle\">\n            <div class=\"response-fixation\"></div>\n            <div id=\"bar\" class=\"rotating-bar\"></div>\n          </div>\n        </div>\n      ","response":"Enter","trial_type":"html-keyboard-response","trial_index":12,"plugin_version":"2.1.0","time_elapsed":63987,"random_initial_angle":70,"response_angle_css":55,"response_angle_rdk":35,"angular_error_target":-143,"angular_error_distractor":-12,"target_direction":178,"target_group":"white","reward_points":0},{"rt":null,"stimulus":"\n          <p style=\"color: #FF3333;\">Your reward: 0 points</p>\n        ","response":null,"trial_type":"html-keyboard-response","trial_index":13,"plugin_version":"2.1.0","time_elapsed":65989},{"rt":null,"stimulus":"<div class=\"fixation\" style=\"font-size: 60px;\">+</div>","response":null,"trial_type":"html-keyboard-response","trial_index":14,"plugin_version":"2.1.0","time_elapsed":66992},{"target_group":"white","target_index":0,"condition_label":"practice","rt":-1,"response":"","correct":false,"choices":"ALL_KEYS","correct_choice":["a"],"trial_duration":2000,"flip_timestamps":[],"response_ends_trial":false,"number_of_apertures":2,"number_of_dots":[100,97],"number_of_sets":1,"coherent_direction":[80,270],"coherence":1,"opposite_coherence":0,"dot_radius":2,"dot_side_length":1,"dot_life":-1,"move_distance":1,"aperture_width":300,"aperture_height":300,"dot_color":["white","black"],"dot_shape":"circle","background_color":"#AAA","RDK_type":3,"aperture_type":2,"reinsert_type":2,"frame_rate":16.941666666666666,"frame_rate_array":[16,16,17,17,18,17,16,17,17,17,17,17,17,17,16,17,17,17,17,17,17,17,17,17,16,18,16,17,17,17,17,17,17,17,17,17,16,18,17,17,17,17,16,18,16,18,17,17,17,17,17,17,17,17,17,16,18,17,17,17,17,17,17,17,17,17,17,16,17,16,18,17,17,17,17,16,18,17,17,17,17,17,17,17,17,17,17,15,17,17,17,17,17,17,17,17,17,17,17,17,17,17,17,17,17,17,17,17,17,17,17,17,17,17,17,17,17,17,17,17],"number_of_frames":120,"aperture_center_x":720,"aperture_center_y":450,"fixation_cross":true,"fixation_cross_width":15,"fixation_cross_height":15,"fixation_cross_color":"#111","fixation_cross_thickness":1,"border":true,"border_thickness":2,"border_color":"transparent","canvas_width":1440,"canvas_height":900,"trial_type":"rdk","trial_index":15,"plugin_version":"2.0.0","time_elapsed":68997,"target_direction":80,"distractor_direction":270},{"rt":3056,"stimulus":"\n        <div class=\"response-container\">\n          <div class=\"response-instruction\">\n            <p>rotate the bar by using the left and right arrow keys.</p>\n            <p>when you are determined, press the Enter key.</p>\n          </div>\n          <div class=\"response-circle\">\n            <div class=\"response-fixation\"></div>\n            <div id=\"bar\" class=\"rotating-bar\"></div>\n          </div>\n        </div>\n      ","response":"Enter","trial_type":"html-keyboard-response","trial_index":16,"plugin_version":"2.1.0","time_elapsed":72053,"random_initial_angle":299,"response_angle_css":361,"response_angle_rdk":89,"angular_error_target":9,"angular_error_distractor":179,"target_direction":80,"target_group":"white","reward_points":8},{"rt":null,"stimulus":"\n          <p style=\"color: #00FF00;\">Your reward: 8 points</p>\n        ","response":null,"trial_type":"html-keyboard-response","trial_index":17,"plugin_version":"2.1.0","time_elapsed":74056},{"rt":null,"stimulus":"<div class=\"fixation\" style=\"font-size: 60px;\">+</div>","response":null,"trial_type":"html-keyboard-response","trial_index":18,"plugin_version":"2.1.0","time_elapsed":75059},{"target_group":"black","target_index":1,"condition_label":"practice","rt":-1,"response":"","correct":false,"choices":"ALL_KEYS","correct_choice":["a"],"trial_duration":2000,"flip_timestamps":[],"response_ends_trial":false,"number_of_apertures":2,"number_of_dots":[94,100],"number_of_sets":1,"coherent_direction":[308,119],"coherence":1,"opposite_coherence":0,"dot_radius":2,"dot_side_length":1,"dot_life":-1,"move_distance":1,"aperture_width":300,"aperture_height":300,"dot_color":["white","black"],"dot_shape":"circle","background_color":"#AAA","RDK_type":3,"aperture_type":2,"reinsert_type":2,"frame_rate":16.933333333333334,"frame_rate_array":[16,17,17,17,16,18,17,17,16,17,17,17,17,17,17,17,17,17,17,17,17,17,17,17,17,17,17,17,17,17,16,17,17,17,17,16,17,17,17,17,17,17,17,17,17,17,17,17,17,17,17,17,17,17,17,17,17,17,17,17,17,17,17,17,17,17,17,17,17,17,17,17,17,17,17,16,17,17,17,17,17,17,16,17,17,17,17,17,17,17,17,17,15,18,17,17,16,17,17,17,17,17,17,17,17,17,17,17,17,17,17,17,17,17,17,17,17,17,17,17],"number_of_frames":120,"aperture_center_x":720,"aperture_center_y":450,"fixation_cross":true,"fixation_cross_width":15,"fixation_cross_height":15,"fixation_cross_color":"#111","fixation_cross_thickness":1,"border":true,"border_thickness":2,"border_color":"transparent","canvas_width":1440,"canvas_height":900,"trial_type":"rdk","trial_index":19,"plugin_version":"2.0.0","time_elapsed":77063,"target_direction":119,"distractor_direction":308},{"rt":1145,"stimulus":"\n        <div class=\"response-container\">\n          <div class=\"response-instruction\">\n            <p>rotate the bar by using the left and right arrow keys.</p>\n            <p>when you are determined, press the Enter key.</p>\n          </div>\n          <div class=\"response-circle\">\n            <div class=\"response-fixation\"></div>\n            <div id=\"bar\" class=\"rotating-bar\"></div>\n          </div>\n        </div>\n      ","response":"Enter","trial_type":"html-keyboard-response","trial_index":20,"plugin_version":"2.1.0","time_elapsed":78209,"random_initial_angle":330,"response_angle_css":330,"response_angle_rdk":120,"angular_error_target":1,"angular_error_distractor":172,"target_direction":119,"target_group":"black","reward_points":9},{"rt":null,"stimulus":"\n          <p style=\"color: #00FF00;\">Your reward: 9 points</p>\n        ","response":null,"trial_type":"html-keyboard-response","trial_index":21,"plugin_version":"2.1.0","time_elapsed":80212},{"rt":null,"stimulus":"<div class=\"fixation\" style=\"font-size: 60px;\">+</div>","response":null,"trial_type":"html-keyboard-response","trial_index":22,"plugin_version":"2.1.0","time_elapsed":81216},{"target_group":"white","target_index":0,"condition_label":"practice","rt":-1,"response":"","correct":false,"choices":"ALL_KEYS","correct_choice":["a"],"trial_duration":2000,"flip_timestamps":[],"response_ends_trial":false,"number_of_apertures":2,"number_of_dots":[100,61],"number_of_sets":1,"coherent_direction":[148,273],"coherence":1,"opposite_coherence":0,"dot_radius":2,"dot_side_length":1,"dot_life":-1,"move_distance":1,"aperture_width":300,"aperture_height":300,"dot_color":["white","black"],"dot_shape":"circle","background_color":"#AAA","RDK_type":3,"aperture_type":2,"reinsert_type":2,"frame_rate":16.875,"frame_rate_array":[10,15,18,17,17,16,16,17,17,17,17,17,17,16,18,17,17,17,17,17,17,17,17,17,17,17,17,17,17,17,17,16,17,17,17,17,17,17,17,17,17,17,17,17,17,17,17,17,17,17,17,17,17,17,16,17,17,17,17,17,17,17,17,17,17,17,16,17,17,17,17,17,17,16,18,17,17,17,17,17,17,17,17,16,17,17,17,17,17,17,17,17,17,17,17,17,17,17,17,17,17,17,17,17,17,17,17,17,17,17,17,17,17,17,17,17,17,17,16,17],"number_of_frames":120,"aperture_center_x":720,"aperture_center_y":450,"fixation_cross":true,"fixation_cross_width":15,"fixation_cross_height":15,"fixation_cross_color":"#111","fixation_cross_thickness":1,"border":true,"border_thickness":2,"border_color":"transparent","canvas_width":1440,"canvas_height":900,"trial_type":"rdk","trial_index":23,"plugin_version":"2.0.0","time_elapsed":83220,"target_direction":148,"distractor_direction":273},{"rt":3325,"stimulus":"\n        <div class=\"response-container\">\n          <div class=\"response-instruction\">\n            <p>rotate the bar by using the left and right arrow keys.</p>\n            <p>when you are determined, press the Enter key.</p>\n          </div>\n          <div class=\"response-circle\">\n            <div class=\"response-fixation\"></div>\n            <div id=\"bar\" class=\"rotating-bar\"></div>\n          </div>\n        </div>\n      ","response":"Enter","trial_type":"html-keyboard-response","trial_index":24,"plugin_version":"2.1.0","time_elapsed":86547,"random_initial_angle":36,"response_angle_css":172,"response_angle_rdk":278,"angular_error_target":130,"angular_error_distractor":5,"target_direction":148,"target_group":"white","reward_points":0},{"rt":null,"stimulus":"\n          <p style=\"color: #FF3333;\">Your reward: 0 points</p>\n        ","response":null,"trial_type":"html-keyboard-response","trial_index":25,"plugin_version":"2.1.0","time_elapsed":88550},{"rt":null,"stimulus":"<div class=\"fixation\" style=\"font-size: 60px;\">+</div>","response":null,"trial_type":"html-keyboard-response","trial_index":26,"plugin_version":"2.1.0","time_elapsed":89553},{"target_group":"white","target_index":0,"condition_label":"practice","rt":-1,"response":"","correct":false,"choices":"ALL_KEYS","correct_choice":["a"],"trial_duration":2000,"flip_timestamps":[],"response_ends_trial":false,"number_of_apertures":2,"number_of_dots":[100,50],"number_of_sets":1,"coherent_direction":[230,15],"coherence":1,"opposite_coherence":0,"dot_radius":2,"dot_side_length":1,"dot_life":-1,"move_distance":1,"aperture_width":300,"aperture_height":300,"dot_color":["white","black"],"dot_shape":"circle","background_color":"#AAA","RDK_type":3,"aperture_type":2,"reinsert_type":2,"frame_rate":17.025210084033613,"frame_rate_array":[23,16,18,17,17,17,17,17,17,17,17,17,17,17,17,17,17,17,17,17,17,17,17,17,17,17,17,17,17,17,17,16,18,17,17,17,17,17,17,17,17,17,17,17,17,17,17,17,17,17,16,17,17,17,17,17,17,17,17,17,17,17,17,17,17,17,17,17,17,17,16,18,17,17,17,17,17,17,17,17,17,17,17,17,17,17,17,16,17,17,17,17,17,17,17,17,17,17,17,17,17,17,17,17,17,17,17,17,17,17,17,17,17,17,17,16,17,17,17],"number_of_frames":119,"aperture_center_x":720,"aperture_center_y":450,"fixation_cross":true,"fixation_cross_width":15,"fixation_cross_height":15,"fixation_cross_color":"#111","fixation_cross_thickness":1,"border":true,"border_thickness":2,"border_color":"transparent","canvas_width":1440,"canvas_height":900,"trial_type":"rdk","trial_index":27,"plugin_version":"2.0.0","time_elapsed":91557,"target_direction":230,"distractor_direction":15},{"rt":2886,"stimulus":"\n        <div class=\"response-container\">\n          <div class=\"response-instruction\">\n            <p>rotate the bar by using the left and right arrow keys.</p>\n            <p>when you are determined, press the Enter key.</p>\n          </div>\n          <div class=\"response-circle\">\n            <div class=\"response-fixation\"></div>\n            <div id=\"bar\" class=\"rotating-bar\"></div>\n          </div>\n        </div>\n      ","response":"Enter","trial_type":"html-keyboard-response","trial_index":28,"plugin_version":"2.1.0","time_elapsed":94443,"random_initial_angle":159,"response_angle_css":54,"response_angle_rdk":36,"angular_error_target":166,"angular_error_distractor":21,"target_direction":230,"target_group":"white","reward_points":0},{"rt":null,"stimulus":"\n          <p style=\"color: #FF3333;\">Your reward: 0 points</p>\n        ","response":null,"trial_type":"html-keyboard-response","trial_index":29,"plugin_version":"2.1.0","time_elapsed":96447},{"rt":null,"stimulus":"<div class=\"fixation\" style=\"font-size: 60px;\">+</div>","response":null,"trial_type":"html-keyboard-response","trial_index":30,"plugin_version":"2.1.0","time_elapsed":97450},{"target_group":"black","target_index":1,"condition_label":"practice","rt":-1,"response":"","correct":false,"choices":"ALL_KEYS","correct_choice":["a"],"trial_duration":2000,"flip_timestamps":[],"response_ends_trial":false,"number_of_apertures":2,"number_of_dots":[96,100],"number_of_sets":1,"coherent_direction":[183,276],"coherence":1,"opposite_coherence":0,"dot_radius":2,"dot_side_length":1,"dot_life":-1,"move_distance":1,"aperture_width":300,"aperture_height":300,"dot_color":["white","black"],"dot_shape":"circle","background_color":"#AAA","RDK_type":3,"aperture_type":2,"reinsert_type":2,"frame_rate":16.85,"frame_rate_array":[10,16,17,18,17,17,17,17,17,17,17,17,16,17,17,17,17,17,17,17,17,16,17,17,17,17,17,17,16,18,17,17,17,17,17,17,17,17,17,17,17,17,17,17,17,17,16,17,16,17,17,17,17,17,17,17,17,17,17,17,16,17,17,16,17,17,17,17,17,16,17,17,17,17,17,17,17,17,17,17,17,17,17,17,17,17,17,17,17,17,17,17,17,17,17,16,17,16,17,17,17,17,17,17,16,17,17,16,17,17,17,17,17,17,17,17,17,17,17,17],"number_of_frames":120,"aperture_center_x":720,"aperture_center_y":450,"fixation_cross":true,"fixation_cross_width":15,"fixation_cross_height":15,"fixation_cross_color":"#111","fixation_cross_thickness":1,"border":true,"border_thickness":2,"border_color":"transparent","canvas_width":1440,"canvas_height":900,"trial_type":"rdk","trial_index":31,"plugin_version":"2.0.0","time_elapsed":99454,"target_direction":276,"distractor_direction":183},{"rt":3905,"stimulus":"\n        <div class=\"response-container\">\n          <div class=\"response-instruction\">\n            <p>rotate the bar by using the left and right arrow keys.</p>\n            <p>when you are determined, press the Enter key.</p>\n          </div>\n          <div class=\"response-circle\">\n            <div class=\"response-fixation\"></div>\n            <div id=\"bar\" class=\"rotating-bar\"></div>\n          </div>\n        </div>\n      ","response":"Enter","trial_type":"html-keyboard-response","trial_index":32,"plugin_version":"2.1.0","time_elapsed":103360,"random_initial_angle":357,"response_angle_css":534,"response_angle_rdk":276,"angular_error_target":0,"angular_error_distractor":93,"target_direction":276,"target_group":"black","reward_points":10},{"rt":null,"stimulus":"\n          <p style=\"color: #00FF00;\">Your reward: 10 points</p>\n        ","response":null,"trial_type":"html-keyboard-response","trial_index":33,"plugin_version":"2.1.0","time_elapsed":105363},{"rt":null,"stimulus":"<div class=\"fixation\" style=\"font-size: 60px;\">+</div>","response":null,"trial_type":"html-keyboard-response","trial_index":34,"plugin_version":"2.1.0","time_elapsed":106365},{"target_group":"black","target_index":1,"condition_label":"practice","rt":-1,"response":"","correct":false,"choices":"ALL_KEYS","correct_choice":["a"],"trial_duration":2000,"flip_timestamps":[],"response_ends_trial":false,"number_of_apertures":2,"number_of_dots":[95,100],"number_of_sets":1,"coherent_direction":[330,163],"coherence":1,"opposite_coherence":0,"dot_radius":2,"dot_side_length":1,"dot_life":-1,"move_distance":1,"aperture_width":300,"aperture_height":300,"dot_color":["white","black"],"dot_shape":"circle","background_color":"#AAA","RDK_type":3,"aperture_type":2,"reinsert_type":2,"frame_rate":16.841666666666665,"frame_rate_array":[10,17,16,17,18,16,17,17,17,17,17,17,17,17,17,17,17,16,17,17,17,17,17,17,17,17,17,17,17,17,17,17,17,17,16,17,17,17,17,17,17,17,17,17,16,17,17,17,17,16,17,17,17,17,17,17,16,17,17,17,17,17,17,17,17,17,16,17,16,17,17,17,17,17,17,17,17,17,17,17,17,17,17,17,17,17,17,17,17,17,17,17,16,17,16,17,17,16,17,17,17,17,17,16,17,16,18,17,17,17,17,17,17,17,17,17,17,16,18,17],"number_of_frames":120,"aperture_center_x":720,"aperture_center_y":450,"fixation_cross":true,"fixation_cross_width":15,"fixation_cross_height":15,"fixation_cross_color":"#111","fixation_cross_thickness":1,"border":true,"border_thickness":2,"border_color":"transparent","canvas_width":1440,"canvas_height":900,"trial_type":"rdk","trial_index":35,"plugin_version":"2.0.0","time_elapsed":108369,"target_direction":163,"distractor_direction":330},{"rt":2233,"stimulus":"\n        <div class=\"response-container\">\n          <div class=\"response-instruction\">\n            <p>rotate the bar by using the left and right arrow keys.</p>\n            <p>when you are determined, press the Enter key.</p>\n          </div>\n          <div class=\"response-circle\">\n            <div class=\"response-fixation\"></div>\n            <div id=\"bar\" class=\"rotating-bar\"></div>\n          </div>\n        </div>\n      ","response":"Enter","trial_type":"html-keyboard-response","trial_index":36,"plugin_version":"2.1.0","time_elapsed":110603,"random_initial_angle":174,"response_angle_css":126,"response_angle_rdk":324,"angular_error_target":161,"angular_error_distractor":-6,"target_direction":163,"target_group":"black","reward_points":0},{"rt":null,"stimulus":"\n          <p style=\"color: #FF3333;\">Your reward: 0 points</p>\n        ","response":null,"trial_type":"html-keyboard-response","trial_index":37,"plugin_version":"2.1.0","time_elapsed":112606},{"rt":null,"stimulus":"<div class=\"fixation\" style=\"font-size: 60px;\">+</div>","response":null,"trial_type":"html-keyboard-response","trial_index":38,"plugin_version":"2.1.0","time_elapsed":113608},{"target_group":"black","target_index":1,"condition_label":"practice","rt":-1,"response":"","correct":false,"choices":"ALL_KEYS","correct_choice":["a"],"trial_duration":2000,"flip_timestamps":[],"response_ends_trial":false,"number_of_apertures":2,"number_of_dots":[65,100],"number_of_sets":1,"coherent_direction":[155,272],"coherence":1,"opposite_coherence":0,"dot_radius":2,"dot_side_length":1,"dot_life":-1,"move_distance":1,"aperture_width":300,"aperture_height":300,"dot_color":["white","black"],"dot_shape":"circle","background_color":"#AAA","RDK_type":3,"aperture_type":2,"reinsert_type":2,"frame_rate":16.975,"frame_rate_array":[17,17,17,17,17,17,17,17,17,17,17,17,17,17,17,17,17,17,16,17,17,17,17,17,17,17,17,17,17,17,17,17,17,17,17,17,17,17,17,17,17,17,17,17,17,17,17,17,17,17,17,17,17,17,17,17,17,17,17,17,17,17,17,17,17,17,17,17,17,17,17,17,17,17,17,17,16,16,18,17,17,16,17,17,17,17,17,17,17,17,17,17,17,17,17,17,17,17,17,17,17,17,17,17,17,17,17,17,17,17,17,17,17,17,17,17,17,17,17,17],"number_of_frames":120,"aperture_center_x":720,"aperture_center_y":450,"fixation_cross":true,"fixation_cross_width":15,"fixation_cross_height":15,"fixation_cross_color":"#111","fixation_cross_thickness":1,"border":true,"border_thickness":2,"border_color":"transparent","canvas_width":1440,"canvas_height":900,"trial_type":"rdk","trial_index":39,"plugin_version":"2.0.0","time_elapsed":115613,"target_direction":272,"distractor_direction":155},{"rt":3522,"stimulus":"\n        <div class=\"response-container\">\n          <div class=\"response-instruction\">\n            <p>rotate the bar by using the left and right arrow keys.</p>\n            <p>when you are determined, press the Enter key.</p>\n          </div>\n          <div class=\"response-circle\">\n            <div class=\"response-fixation\"></div>\n            <div id=\"bar\" class=\"rotating-bar\"></div>\n          </div>\n        </div>\n      ","response":"Enter","trial_type":"html-keyboard-response","trial_index":40,"plugin_version":"2.1.0","time_elapsed":119136,"random_initial_angle":4,"response_angle_css":177,"response_angle_rdk":273,"angular_error_target":1,"angular_error_distractor":118,"target_direction":272,"target_group":"black","reward_points":9},{"rt":null,"stimulus":"\n          <p style=\"color: #00FF00;\">Your reward: 9 points</p>\n        ","response":null,"trial_type":"html-keyboard-response","trial_index":41,"plugin_version":"2.1.0","time_elapsed":121139},{"rt":null,"stimulus":"<div class=\"fixation\" style=\"font-size: 60px;\">+</div>","response":null,"trial_type":"html-keyboard-response","trial_index":42,"plugin_version":"2.1.0","time_elapsed":122142},{"target_group":"black","target_index":1,"condition_label":"practice","rt":-1,"response":"","correct":false,"choices":"ALL_KEYS","correct_choice":["a"],"trial_duration":2000,"flip_timestamps":[],"response_ends_trial":false,"number_of_apertures":2,"number_of_dots":[93,100],"number_of_sets":1,"coherent_direction":[161,289],"coherence":1,"opposite_coherence":0,"dot_radius":2,"dot_side_length":1,"dot_life":-1,"move_distance":1,"aperture_width":300,"aperture_height":300,"dot_color":["white","black"],"dot_shape":"circle","background_color":"#AAA","RDK_type":3,"aperture_type":2,"reinsert_type":2,"frame_rate":16.916666666666668,"frame_rate_array":[16,17,17,16,17,17,17,17,17,17,17,17,17,17,17,17,17,17,17,17,17,17,17,17,16,17,16,17,17,17,17,17,17,17,17,17,17,17,17,17,17,17,16,17,17,17,17,17,17,17,17,17,17,17,17,17,17,17,17,17,17,17,17,17,17,16,17,17,17,17,17,17,17,17,17,17,17,17,17,16,17,17,17,17,16,17,17,17,17,17,17,16,16,17,17,17,17,17,17,17,17,17,17,17,17,17,17,17,17,17,17,17,17,17,17,17,17,17,17,17],"number_of_frames":120,"aperture_center_x":720,"aperture_center_y":450,"fixation_cross":true,"fixation_cross_width":15,"fixation_cross_height":15,"fixation_cross_color":"#111","fixation_cross_thickness":1,"border":true,"border_thickness":2,"border_color":"transparent","canvas_width":1440,"canvas_height":900,"trial_type":"rdk","trial_index":43,"plugin_version":"2.0.0","time_elapsed":124153,"target_direction":289,"distractor_direction":161},{"rt":2222,"stimulus":"\n        <div class=\"response-container\">\n          <div class=\"response-instruction\">\n            <p>rotate the bar by using the left and right arrow keys.</p>\n            <p>when you are determined, press the Enter key.</p>\n          </div>\n          <div class=\"response-circle\">\n            <div class=\"response-fixation\"></div>\n            <div id=\"bar\" class=\"rotating-bar\"></div>\n          </div>\n        </div>\n      ","response":"Enter","trial_type":"html-keyboard-response","trial_index":44,"plugin_version":"2.1.0","time_elapsed":126375,"random_initial_angle":182,"response_angle_css":156,"response_angle_rdk":294,"angular_error_target":5,"angular_error_distractor":133,"target_direction":289,"target_group":"black","reward_points":9},{"rt":null,"stimulus":"\n          <p style=\"color: #00FF00;\">Your reward: 9 points</p>\n        ","response":null,"trial_type":"html-keyboard-response","trial_index":45,"plugin_version":"2.1.0","time_elapsed":128377},{"rt":null,"stimulus":"<div class=\"fixation\" style=\"font-size: 60px;\">+</div>","response":null,"trial_type":"html-keyboard-response","trial_index":46,"plugin_version":"2.1.0","time_elapsed":129380},{"target_group":"white","target_index":0,"condition_label":"practice","rt":-1,"response":"","correct":false,"choices":"ALL_KEYS","correct_choice":["a"],"trial_duration":2000,"flip_timestamps":[],"response_ends_trial":false,"number_of_apertures":2,"number_of_dots":[100,58],"number_of_sets":1,"coherent_direction":[213,11],"coherence":1,"opposite_coherence":0,"dot_radius":2,"dot_side_length":1,"dot_life":-1,"move_distance":1,"aperture_width":300,"aperture_height":300,"dot_color":["white","black"],"dot_shape":"circle","background_color":"#AAA","RDK_type":3,"aperture_type":2,"reinsert_type":2,"frame_rate":16.916666666666668,"frame_rate_array":[12,17,17,17,17,17,17,17,17,17,17,17,17,17,17,17,17,17,17,17,16,17,17,17,17,17,17,17,17,17,17,17,17,17,17,17,17,17,17,17,17,17,17,17,17,17,17,17,17,17,17,17,17,17,17,16,16,17,17,17,17,17,17,16,18,17,17,17,17,17,17,17,17,17,17,17,17,17,17,17,17,17,17,17,16,17,17,17,17,17,17,17,17,17,17,17,17,17,17,17,17,17,17,17,16,17,17,17,17,17,17,17,17,17,17,17,17,17,17,17],"number_of_frames":120,"aperture_center_x":720,"aperture_center_y":450,"fixation_cross":true,"fixation_cross_width":15,"fixation_cross_height":15,"fixation_cross_color":"#111","fixation_cross_thickness":1,"border":true,"border_thickness":2,"border_color":"transparent","canvas_width":1440,"canvas_height":900,"trial_type":"rdk","trial_index":47,"plugin_version":"2.0.0","time_elapsed":131383,"target_direction":213,"distractor_direction":11},{"rt":4840,"stimulus":"\n        <div class=\"response-container\">\n          <div class=\"response-instruction\">\n            <p>rotate the bar by using the left and right arrow keys.</p>\n            <p>when you are determined, press the Enter key.</p>\n          </div>\n          <div class=\"response-circle\">\n            <div class=\"response-fixation\"></div>\n            <div id=\"bar\" class=\"rotating-bar\"></div>\n          </div>\n        </div>\n      ","response":"Enter","trial_type":"html-keyboard-response","trial_index":48,"plugin_version":"2.1.0","time_elapsed":136224,"random_initial_angle":25,"response_angle_css":-129,"response_angle_rdk":219,"angular_error_target":6,"angular_error_distractor":-152,"target_direction":213,"target_group":"white","reward_points":8},{"rt":null,"stimulus":"\n          <p style=\"color: #00FF00;\">Your reward: 8 points</p>\n        ","response":null,"trial_type":"html-keyboard-response","trial_index":49,"plugin_version":"2.1.0","time_elapsed":138227},{"rt":null,"stimulus":"<div class=\"fixation\" style=\"font-size: 60px;\">+</div>","response":null,"trial_type":"html-keyboard-response","trial_index":50,"plugin_version":"2.1.0","time_elapsed":139230},{"target_group":"black","target_index":1,"condition_label":"practice","rt":-1,"response":"","correct":false,"choices":"ALL_KEYS","correct_choice":["a"],"trial_duration":2000,"flip_timestamps":[],"response_ends_trial":false,"number_of_apertures":2,"number_of_dots":[58,100],"number_of_sets":1,"coherent_direction":[272,68],"coherence":1,"opposite_coherence":0,"dot_radius":2,"dot_side_length":1,"dot_life":-1,"move_distance":1,"aperture_width":300,"aperture_height":300,"dot_color":["white","black"],"dot_shape":"circle","background_color":"#AAA","RDK_type":3,"aperture_type":2,"reinsert_type":2,"frame_rate":16.875,"frame_rate_array":[12,16,16,17,18,16,17,16,17,17,17,17,17,17,17,17,16,18,17,17,16,17,17,16,17,17,17,17,16,17,17,17,17,17,17,17,17,16,17,18,17,16,18,17,17,17,17,17,17,17,17,17,17,17,17,17,17,17,17,17,17,17,16,17,16,17,17,17,16,18,16,17,18,17,17,16,18,16,18,17,17,17,17,17,17,17,17,17,17,17,17,17,17,17,17,17,17,17,17,17,17,16,17,17,17,17,16,18,17,17,16,18,17,17,17,17,17,16,17,17],"number_of_frames":120,"aperture_center_x":720,"aperture_center_y":450,"fixation_cross":true,"fixation_cross_width":15,"fixation_cross_height":15,"fixation_cross_color":"#111","fixation_cross_thickness":1,"border":true,"border_thickness":2,"border_color":"transparent","canvas_width":1440,"canvas_height":900,"trial_type":"rdk","trial_index":51,"plugin_version":"2.0.0","time_elapsed":141234,"target_direction":68,"distractor_direction":272},{"rt":3245,"stimulus":"\n        <div class=\"response-container\">\n          <div class=\"response-instruction\">\n            <p>rotate the bar by using the left and right arrow keys.</p>\n            <p>when you are determined, press the Enter key.</p>\n          </div>\n          <div class=\"response-circle\">\n            <div class=\"response-fixation\"></div>\n            <div id=\"bar\" class=\"rotating-bar\"></div>\n          </div>\n        </div>\n      ","response":"Enter","trial_type":"html-keyboard-response","trial_index":52,"plugin_version":"2.1.0","time_elapsed":144480,"random_initial_angle":146,"response_angle_css":11,"response_angle_rdk":79,"angular_error_target":11,"angular_error_distractor":167,"target_direction":68,"target_group":"black","reward_points":7},{"rt":null,"stimulus":"\n          <p style=\"color: #00FF00;\">Your reward: 7 points</p>\n        ","response":null,"trial_type":"html-keyboard-response","trial_index":53,"plugin_version":"2.1.0","time_elapsed":146482},{"rt":null,"stimulus":"<div class=\"fixation\" style=\"font-size: 60px;\">+</div>","response":null,"trial_type":"html-keyboard-response","trial_index":54,"plugin_version":"2.1.0","time_elapsed":147486},{"target_group":"white","target_index":0,"condition_label":"practice","rt":-1,"response":"","correct":false,"choices":"ALL_KEYS","correct_choice":["a"],"trial_duration":2000,"flip_timestamps":[],"response_ends_trial":false,"number_of_apertures":2,"number_of_dots":[100,99],"number_of_sets":1,"coherent_direction":[319,142],"coherence":1,"opposite_coherence":0,"dot_radius":2,"dot_side_length":1,"dot_life":-1,"move_distance":1,"aperture_width":300,"aperture_height":300,"dot_color":["white","black"],"dot_shape":"circle","background_color":"#AAA","RDK_type":3,"aperture_type":2,"reinsert_type":2,"frame_rate":16.974789915966387,"frame_rate_array":[22,17,18,17,17,17,17,17,17,17,17,17,17,17,17,17,17,16,17,17,17,17,17,17,17,17,17,17,17,17,17,17,17,17,17,17,17,17,17,17,17,17,17,17,17,17,17,17,16,17,17,17,17,17,17,17,17,17,17,16,17,17,17,17,17,17,17,17,17,17,17,17,17,16,17,16,17,17,17,17,17,17,17,17,17,17,17,17,17,17,17,17,17,17,17,17,17,17,17,16,17,17,16,18,17,17,17,17,16,16,17,17,17,17,17,17,16,17,17],"number_of_frames":119,"aperture_center_x":720,"aperture_center_y":450,"fixation_cross":true,"fixation_cross_width":15,"fixation_cross_height":15,"fixation_cross_color":"#111","fixation_cross_thickness":1,"border":true,"border_thickness":2,"border_color":"transparent","canvas_width":1440,"canvas_height":900,"trial_type":"rdk","trial_index":55,"plugin_version":"2.0.0","time_elapsed":149490,"target_direction":319,"distractor_direction":142},{"rt":1865,"stimulus":"\n        <div class=\"response-container\">\n          <div class=\"response-instruction\">\n            <p>rotate the bar by using the left and right arrow keys.</p>\n            <p>when you are determined, press the Enter key.</p>\n          </div>\n          <div class=\"response-circle\">\n            <div class=\"response-fixation\"></div>\n            <div id=\"bar\" class=\"rotating-bar\"></div>\n          </div>\n        </div>\n      ","response":"Enter","trial_type":"html-keyboard-response","trial_index":56,"plugin_version":"2.1.0","time_elapsed":151356,"random_initial_angle":347,"response_angle_css":325,"response_angle_rdk":125,"angular_error_target":166,"angular_error_distractor":-17,"target_direction":319,"target_group":"white","reward_points":0},{"rt":null,"stimulus":"\n          <p style=\"color: #FF3333;\">Your reward: 0 points</p>\n        ","response":null,"trial_type":"html-keyboard-response","trial_index":57,"plugin_version":"2.1.0","time_elapsed":153359},{"rt":null,"stimulus":"<div class=\"fixation\" style=\"font-size: 60px;\">+</div>","response":null,"trial_type":"html-keyboard-response","trial_index":58,"plugin_version":"2.1.0","time_elapsed":154361},{"target_group":"black","target_index":1,"condition_label":"practice","rt":-1,"response":"","correct":false,"choices":"ALL_KEYS","correct_choice":["a"],"trial_duration":2000,"flip_timestamps":[],"response_ends_trial":false,"number_of_apertures":2,"number_of_dots":[65,100],"number_of_sets":1,"coherent_direction":[230,349],"coherence":1,"opposite_coherence":0,"dot_radius":2,"dot_side_length":1,"dot_life":-1,"move_distance":1,"aperture_width":300,"aperture_height":300,"dot_color":["white","black"],"dot_shape":"circle","background_color":"#AAA","RDK_type":3,"aperture_type":2,"reinsert_type":2,"frame_rate":16.866666666666667,"frame_rate_array":[13,17,17,16,17,17,17,17,17,17,17,17,17,17,17,17,16,17,17,17,16,17,17,17,17,17,17,17,16,17,17,17,17,16,17,17,17,17,16,17,17,17,17,17,17,17,17,17,17,17,17,17,17,16,17,17,17,17,17,17,16,17,17,17,17,17,17,17,17,17,17,17,17,17,16,17,17,17,17,17,17,17,17,17,17,17,17,17,17,17,16,17,17,17,17,17,17,17,17,17,17,17,17,17,16,17,17,17,17,17,17,17,17,17,17,17,17,16,17,17],"number_of_frames":120,"aperture_center_x":720,"aperture_center_y":450,"fixation_cross":true,"fixation_cross_width":15,"fixation_cross_height":15,"fixation_cross_color":"#111","fixation_cross_thickness":1,"border":true,"border_thickness":2,"border_color":"transparent","canvas_width":1440,"canvas_height":900,"trial_type":"rdk","trial_index":59,"plugin_version":"2.0.0","time_elapsed":156365,"target_direction":349,"distractor_direction":230},{"rt":2307,"stimulus":"\n        <div class=\"response-container\">\n          <div class=\"response-instruction\">\n            <p>rotate the bar by using the left and right arrow keys.</p>\n            <p>when you are determined, press the Enter key.</p>\n          </div>\n          <div class=\"response-circle\">\n            <div class=\"response-fixation\"></div>\n            <div id=\"bar\" class=\"rotating-bar\"></div>\n          </div>\n        </div>\n      ","response":"Enter","trial_type":"html-keyboard-response","trial_index":60,"plugin_version":"2.1.0","time_elapsed":158673,"random_initial_angle":38,"response_angle_css":85,"response_angle_rdk":5,"angular_error_target":16,"angular_error_distractor":135,"target_direction":349,"target_group":"black","reward_points":6},{"rt":null,"stimulus":"\n          <p style=\"color: #00FF00;\">Your reward: 6 points</p>\n        ","response":null,"trial_type":"html-keyboard-response","trial_index":61,"plugin_version":"2.1.0","time_elapsed":160675},{"rt":null,"stimulus":"<div class=\"fixation\" style=\"font-size: 60px;\">+</div>","response":null,"trial_type":"html-keyboard-response","trial_index":62,"plugin_version":"2.1.0","time_elapsed":161678},{"target_group":"white","target_index":0,"condition_label":"practice","rt":-1,"response":"","correct":false,"choices":"ALL_KEYS","correct_choice":["a"],"trial_duration":2000,"flip_timestamps":[],"response_ends_trial":false,"number_of_apertures":2,"number_of_dots":[100,61],"number_of_sets":1,"coherent_direction":[70,244],"coherence":1,"opposite_coherence":0,"dot_radius":2,"dot_side_length":1,"dot_life":-1,"move_distance":1,"aperture_width":300,"aperture_height":300,"dot_color":["white","black"],"dot_shape":"circle","background_color":"#AAA","RDK_type":3,"aperture_type":2,"reinsert_type":2,"frame_rate":16.916666666666668,"frame_rate_array":[13,17,16,18,17,17,17,17,17,17,17,17,17,17,17,17,17,17,17,17,17,17,17,17,17,17,17,17,17,17,17,17,17,17,17,17,17,17,17,17,17,17,17,17,17,17,17,17,17,17,17,17,17,17,17,17,17,17,17,17,17,17,16,18,17,17,17,17,17,17,16,17,17,16,17,17,16,17,17,17,17,17,17,17,17,17,16,17,17,17,17,17,16,17,17,17,16,17,17,17,17,17,17,17,17,17,17,17,17,17,17,17,17,17,17,17,17,17,17,17],"number_of_frames":120,"aperture_center_x":720,"aperture_center_y":450,"fixation_cross":true,"fixation_cross_width":15,"fixation_cross_height":15,"fixation_cross_color":"#111","fixation_cross_thickness":1,"border":true,"border_thickness":2,"border_color":"transparent","canvas_width":1440,"canvas_height":900,"trial_type":"rdk","trial_index":63,"plugin_version":"2.0.0","time_elapsed":163682,"target_direction":70,"distractor_direction":244},{"rt":4866,"stimulus":"\n        <div class=\"response-container\">\n          <div class=\"response-instruction\">\n            <p>rotate the bar by using the left and right arrow keys.</p>\n            <p>when you are determined, press the Enter key.</p>\n          </div>\n          <div class=\"response-circle\">\n            <div class=\"response-fixation\"></div>\n            <div id=\"bar\" class=\"rotating-bar\"></div>\n          </div>\n        </div>\n      ","response":"Enter","trial_type":"html-keyboard-response","trial_index":64,"plugin_version":"2.1.0","time_elapsed":168549,"random_initial_angle":259,"response_angle_css":380,"response_angle_rdk":70,"angular_error_target":0,"angular_error_distractor":-174,"target_direction":70,"target_group":"white","reward_points":10},{"rt":null,"stimulus":"\n          <p style=\"color: #00FF00;\">Your reward: 10 points</p>\n        ","response":null,"trial_type":"html-keyboard-response","trial_index":65,"plugin_version":"2.1.0","time_elapsed":170551},{"rt":1426,"stimulus":"\n        <div class=\"instructions-container\">\n          <h2>End of Practice</h2>\n          <p>You have completed the practice trials.</p>\n          <p>Press <strong>Enter</strong> key to begin the main experiment.</p>\n        </div>\n      ","response":"Enter","trial_type":"html-keyboard-response","trial_index":66,"plugin_version":"2.1.0","time_elapsed":171980},{"rt":null,"stimulus":"<div class=\"fixation\" style=\"font-size: 60px;\">+</div>","response":null,"trial_type":"html-keyboard-response","trial_index":67,"plugin_version":"2.1.0","time_elapsed":172983},{"target_group":"black","condition_label":"B_H_vs_W_L_rep17","target_direction":124,"distractor_direction":249,"session_rotation":33,"rt":-1,"response":"","correct":false,"choices":"ALL_KEYS","correct_choice":["a"],"trial_duration":2000,"flip_timestamps":[],"response_ends_trial":false,"number_of_apertures":200,"number_of_dots":[1,1,1,1,1,1,1,1,1,1,1,1,1,1,1,1,1,1,1,1,1,1,1,1,1,1,1,1,1,1,1,1,1,1,1,1,1,1,1,1,1,1,1,1,1,1,1,1,1,1,1,1,1,1,1,1,1,1,1,1,1,1,1,1,1,1,1,1,1,1,1,1,1,1,1,1,1,1,1,1,1,1,1,1,1,1,1,1,1,1,1,1,1,1,1,1,1,1,1,1,1,1,1,1,1,1,1,1,1,1,1,1,1,1,1,1,1,1,1,1,1,1,1,1,1,1,1,1,1,1,1,1,1,1,1,1,1,1,1,1,1,1,1,1,1,1,1,1,1,1,1,1,1,1,1,1,1,1,1,1,1,1,1,1,1,1,1,1,1,1,1,1,1,1,1,1,1,1,1,1,1,1,1,1,1,1,1,1,1,1,1,1,1,1,1,1,1,1,1,1],"number_of_sets":1,"coherent_direction":[124,249,249,124,249,249,124,249,124,249,249,249,124,124,124,249,124,124,249,249,124,249,249,124,249,249,124,249,124,249,249,124,124,249,124,124,124,124,124,249,249,249,249,124,124,124,249,124,124,124,249,124,124,124,249,249,124,124,249,249,249,124,124,124,249,124,249,249,249,249,124,249,124,249,249,249,249,249,124,249,124,124,249,124,249,124,249,124,124,124,249,249,124,124,124,124,124,124,249,124,124,249,249,124,124,124,249,249,124,124,124,249,249,124,249,249,249,249,249,249,124,249,124,124,249,249,249,249,124,249,124,124,249,249,124,249,249,249,124,124,249,124,249,124,124,249,249,124,249,124,124,124,124,124,124,124,124,124,249,124,249,124,124,249,124,249,124,249,124,124,124,249,124,124,124,124,249,249,249,124,124,249,249,249,249,124,249,249,249,249,124,249,249,124,249,249,249,249,124,249],"coherence":1,"opposite_coherence":0,"dot_radius":2,"dot_side_length":1,"dot_life":-1,"move_distance":1,"aperture_width":300,"aperture_height":300,"dot_color":["black","white","white","black","white","white","black","white","black","white","white","white","black","black","black","white","black","black","white","white","black","white","white","black","white","white","black","white","black","white","white","black","black","white","black","black","black","black","black","white","white","white","white","black","black","black","white","black","black","black","white","black","black","black","white","white","black","black","white","white","white","black","black","black","white","black","white","white","white","white","black","white","black","white","white","white","white","white","black","white","black","black","white","black","white","black","white","black","black","black","white","white","black","black","black","black","black","black","white","black","black","white","white","black","black","black","white","white","black","black","black","white","white","black","white","white","white","white","white","white","black","white","black","black","white","white","white","white","black","white","black","black","white","white","black","white","white","white","black","black","white","black","white","black","black","white","white","black","white","black","black","black","black","black","black","black","black","black","white","black","white","black","black","white","black","white","black","white","black","black","black","white","black","black","black","black","white","white","white","black","black","white","white","white","white","black","white","white","white","white","black","white","white","black","white","white","white","white","black","white"],"dot_shape":"circle","background_color":"#AAA","RDK_type":3,"aperture_type":2,"reinsert_type":2,"frame_rate":16.716666666666665,"frame_rate_array":[6,17,17,17,17,17,16,17,17,17,16,17,17,17,17,17,17,16,17,16,15,17,17,17,17,16,17,17,17,17,17,17,17,17,16,17,17,16,17,16,17,17,17,16,17,17,16,17,17,16,17,17,16,18,17,16,17,17,17,17,16,17,17,17,17,17,17,17,17,16,17,16,17,17,17,17,17,16,17,17,16,17,17,17,17,17,17,17,17,17,17,17,17,17,17,17,17,16,17,17,17,17,16,17,17,17,17,16,17,17,17,17,16,18,17,16,17,17,17,17],"number_of_frames":120,"aperture_center_x":720,"aperture_center_y":450,"fixation_cross":true,"fixation_cross_width":15,"fixation_cross_height":15,"fixation_cross_color":"#111","fixation_cross_thickness":1,"border":true,"border_thickness":2,"border_color":"transparent","canvas_width":1440,"canvas_height":900,"trial_type":"rdk","trial_index":68,"plugin_version":"2.0.0","time_elapsed":174988},{"rt":1463,"stimulus":"\n        <div class=\"response-container\">\n          <div class=\"response-instruction\">\n            <p>rotate the bar by using the left and right arrow keys.</p>\n            <p>when you are determined, press the Enter key.</p>\n          </div>\n          <div class=\"response-circle\">\n            <div class=\"response-fixation\"></div>\n            <div id=\"bar\" class=\"rotating-bar\"></div>\n          </div>\n        </div>\n      ","response":"Enter","trial_type":"html-keyboard-response","trial_index":69,"plugin_version":"2.1.0","time_elapsed":176452,"random_initial_angle":350,"response_angle_css":333,"response_angle_rdk":117,"angular_error_target":-7,"angular_error_distractor":-132,"target_direction":124,"target_group":"black","reward_points":8},{"rt":null,"stimulus":"\n          <p style=\"color: #00FF00;\">Your reward: 8 points</p>\n        ","response":null,"trial_type":"html-keyboard-response","trial_index":70,"plugin_version":"2.1.0","time_elapsed":178455},{"rt":null,"stimulus":"<div class=\"fixation\" style=\"font-size: 60px;\">+</div>","response":null,"trial_type":"html-keyboard-response","trial_index":71,"plugin_version":"2.1.0","time_elapsed":179457},{"target_group":"black","condition_label":"B_H_vs_W_L_rep7","target_direction":145,"distractor_direction":251,"session_rotation":33,"rt":-1,"response":"","correct":false,"choices":"ALL_KEYS","correct_choice":["a"],"trial_duration":2000,"flip_timestamps":[],"response_ends_trial":false,"number_of_apertures":200,"number_of_dots":[1,1,1,1,1,1,1,1,1,1,1,1,1,1,1,1,1,1,1,1,1,1,1,1,1,1,1,1,1,1,1,1,1,1,1,1,1,1,1,1,1,1,1,1,1,1,1,1,1,1,1,1,1,1,1,1,1,1,1,1,1,1,1,1,1,1,1,1,1,1,1,1,1,1,1,1,1,1,1,1,1,1,1,1,1,1,1,1,1,1,1,1,1,1,1,1,1,1,1,1,1,1,1,1,1,1,1,1,1,1,1,1,1,1,1,1,1,1,1,1,1,1,1,1,1,1,1,1,1,1,1,1,1,1,1,1,1,1,1,1,1,1,1,1,1,1,1,1,1,1,1,1,1,1,1,1,1,1,1,1,1,1,1,1,1,1,1,1,1,1,1,1,1,1,1,1,1,1,1,1,1,1,1,1,1,1,1,1,1,1,1,1,1,1,1,1,1,1,1,1],"number_of_sets":1,"coherent_direction":[251,145,251,145,145,145,251,145,145,251,145,251,251,145,145,251,145,145,145,251,251,145,251,251,251,145,251,145,145,251,251,251,251,251,145,251,145,251,251,251,251,251,251,145,145,251,145,145,145,145,145,251,251,251,145,145,145,145,251,251,145,251,145,251,251,251,251,251,145,251,251,251,251,145,251,145,251,145,145,251,145,145,251,145,145,251,251,145,145,145,251,251,145,251,145,145,145,145,251,251,251,251,251,145,145,145,251,145,145,145,145,251,145,145,145,251,145,251,145,145,145,145,251,251,251,251,251,145,251,145,251,145,145,251,145,251,145,145,251,251,145,145,251,145,251,145,251,251,145,145,251,145,145,251,145,251,251,251,251,251,145,145,251,251,251,145,251,251,251,251,145,251,251,145,145,251,251,145,251,145,145,145,145,251,145,145,145,145,145,251,145,145,251,145,251,251,251,145,145,251],"coherence":1,"opposite_coherence":0,"dot_radius":2,"dot_side_length":1,"dot_life":-1,"move_distance":1,"aperture_width":300,"aperture_height":300,"dot_color":["white","black","white","black","black","black","white","black","black","white","black","white","white","black","black","white","black","black","black","white","white","black","white","white","white","black","white","black","black","white","white","white","white","white","black","white","black","white","white","white","white","white","white","black","black","white","black","black","black","black","black","white","white","white","black","black","black","black","white","white","black","white","black","white","white","white","white","white","black","white","white","white","white","black","white","black","white","black","black","white","black","black","white","black","black","white","white","black","black","black","white","white","black","white","black","black","black","black","white","white","white","white","white","black","black","black","white","black","black","black","black","white","black","black","black","white","black","white","black","black","black","black","white","white","white","white","white","black","white","black","white","black","black","white","black","white","black","black","white","white","black","black","white","black","white","black","white","white","black","black","white","black","black","white","black","white","white","white","white","white","black","black","white","white","white","black","white","white","white","white","black","white","white","black","black","white","white","black","white","black","black","black","black","white","black","black","black","black","black","white","black","black","white","black","white","white","white","black","black","white"],"dot_shape":"circle","background_color":"#AAA","RDK_type":3,"aperture_type":2,"reinsert_type":2,"frame_rate":16.908333333333335,"frame_rate_array":[17,17,16,17,18,17,17,17,17,17,17,17,17,17,17,17,17,17,17,17,17,17,17,17,17,17,17,17,17,17,17,17,17,17,17,17,16,17,17,17,17,17,17,17,17,17,17,17,17,16,17,16,17,17,17,17,17,17,17,17,17,17,17,17,17,17,17,17,17,17,17,16,17,16,17,17,17,16,18,16,17,17,17,17,16,17,17,17,17,17,17,17,17,17,16,16,17,17,17,17,17,17,17,17,17,17,17,17,17,17,16,16,17,17,17,18,17,17,17,16],"number_of_frames":120,"aperture_center_x":720,"aperture_center_y":450,"fixation_cross":true,"fixation_cross_width":15,"fixation_cross_height":15,"fixation_cross_color":"#111","fixation_cross_thickness":1,"border":true,"border_thickness":2,"border_color":"transparent","canvas_width":1440,"canvas_height":900,"trial_type":"rdk","trial_index":72,"plugin_version":"2.0.0","time_elapsed":181463},{"rt":3886,"stimulus":"\n        <div class=\"response-container\">\n          <div class=\"response-instruction\">\n            <p>rotate the bar by using the left and right arrow keys.</p>\n            <p>when you are determined, press the Enter key.</p>\n          </div>\n          <div class=\"response-circle\">\n            <div class=\"response-fixation\"></div>\n            <div id=\"bar\" class=\"rotating-bar\"></div>\n          </div>\n        </div>\n      ","response":"Enter","trial_type":"html-keyboard-response","trial_index":73,"plugin_version":"2.1.0","time_elapsed":185350,"random_initial_angle":164,"response_angle_css":334,"response_angle_rdk":116,"angular_error_target":-29,"angular_error_distractor":-135,"target_direction":145,"target_group":"black","reward_points":4},{"rt":null,"stimulus":"\n          <p style=\"color: #00FF00;\">Your reward: 4 points</p>\n        ","response":null,"trial_type":"html-keyboard-response","trial_index":74,"plugin_version":"2.1.0","time_elapsed":187352},{"rt":null,"stimulus":"<div class=\"fixation\" style=\"font-size: 60px;\">+</div>","response":null,"trial_type":"html-keyboard-response","trial_index":75,"plugin_version":"2.1.0","time_elapsed":188355},{"target_group":"black","condition_label":"B_H_vs_W_L_rep15","target_direction":130,"distractor_direction":243,"session_rotation":33,"rt":-1,"response":"","correct":false,"choices":"ALL_KEYS","correct_choice":["a"],"trial_duration":2000,"flip_timestamps":[],"response_ends_trial":false,"number_of_apertures":200,"number_of_dots":[1,1,1,1,1,1,1,1,1,1,1,1,1,1,1,1,1,1,1,1,1,1,1,1,1,1,1,1,1,1,1,1,1,1,1,1,1,1,1,1,1,1,1,1,1,1,1,1,1,1,1,1,1,1,1,1,1,1,1,1,1,1,1,1,1,1,1,1,1,1,1,1,1,1,1,1,1,1,1,1,1,1,1,1,1,1,1,1,1,1,1,1,1,1,1,1,1,1,1,1,1,1,1,1,1,1,1,1,1,1,1,1,1,1,1,1,1,1,1,1,1,1,1,1,1,1,1,1,1,1,1,1,1,1,1,1,1,1,1,1,1,1,1,1,1,1,1,1,1,1,1,1,1,1,1,1,1,1,1,1,1,1,1,1,1,1,1,1,1,1,1,1,1,1,1,1,1,1,1,1,1,1,1,1,1,1,1,1,1,1,1,1,1,1,1,1,1,1,1,1],"number_of_sets":1,"coherent_direction":[130,243,243,243,243,243,130,130,130,243,243,243,243,130,130,130,130,243,243,130,243,243,243,130,130,130,130,243,243,243,243,243,130,243,130,130,243,130,243,130,130,243,243,243,130,243,130,130,243,243,130,130,243,130,243,243,130,130,130,130,243,130,130,243,130,130,130,243,243,130,243,130,243,130,130,130,243,130,130,130,243,130,130,130,243,243,243,243,130,130,130,130,243,243,130,130,243,243,243,243,243,130,243,243,243,130,243,243,243,243,243,243,130,130,243,243,130,130,130,130,130,243,243,243,130,130,130,130,130,130,243,130,130,243,130,130,130,130,130,243,130,130,130,130,243,130,243,243,243,243,243,130,130,243,243,130,243,130,243,130,243,243,243,243,130,130,243,130,243,130,130,243,243,243,130,130,243,130,130,130,130,130,243,130,243,130,130,130,243,130,243,243,243,243,243,243,243,243,243,243],"coherence":1,"opposite_coherence":0,"dot_radius":2,"dot_side_length":1,"dot_life":-1,"move_distance":1,"aperture_width":300,"aperture_height":300,"dot_color":["black","white","white","white","white","white","black","black","black","white","white","white","white","black","black","black","black","white","white","black","white","white","white","black","black","black","black","white","white","white","white","white","black","white","black","black","white","black","white","black","black","white","white","white","black","white","black","black","white","white","black","black","white","black","white","white","black","black","black","black","white","black","black","white","black","black","black","white","white","black","white","black","white","black","black","black","white","black","black","black","white","black","black","black","white","white","white","white","black","black","black","black","white","white","black","black","white","white","white","white","white","black","white","white","white","black","white","white","white","white","white","white","black","black","white","white","black","black","black","black","black","white","white","white","black","black","black","black","black","black","white","black","black","white","black","black","black","black","black","white","black","black","black","black","white","black","white","white","white","white","white","black","black","white","white","black","white","black","white","black","white","white","white","white","black","black","white","black","white","black","black","white","white","white","black","black","white","black","black","black","black","black","white","black","white","black","black","black","white","black","white","white","white","white","white","white","white","white","white","white"],"dot_shape":"circle","background_color":"#AAA","RDK_type":3,"aperture_type":2,"reinsert_type":2,"frame_rate":16.873949579831933,"frame_rate_array":[19,17,17,17,17,17,17,17,17,17,17,17,17,17,17,17,17,17,17,17,16,17,17,17,17,17,17,17,16,17,17,17,17,17,17,17,17,17,17,16,17,17,17,16,17,17,17,16,17,17,17,17,17,17,17,17,16,16,17,17,17,17,16,17,17,17,17,17,17,17,17,17,17,16,16,18,17,17,17,17,17,17,17,16,17,17,17,17,17,17,17,17,17,17,17,17,17,16,17,17,17,17,16,16,17,17,16,17,17,17,17,16,16,17,16,18,16,17,17],"number_of_frames":119,"aperture_center_x":720,"aperture_center_y":450,"fixation_cross":true,"fixation_cross_width":15,"fixation_cross_height":15,"fixation_cross_color":"#111","fixation_cross_thickness":1,"border":true,"border_thickness":2,"border_color":"transparent","canvas_width":1440,"canvas_height":900,"trial_type":"rdk","trial_index":76,"plugin_version":"2.0.0","time_elapsed":190360},{"rt":3146,"stimulus":"\n        <div class=\"response-container\">\n          <div class=\"response-instruction\">\n            <p>rotate the bar by using the left and right arrow keys.</p>\n            <p>when you are determined, press the Enter key.</p>\n          </div>\n          <div class=\"response-circle\">\n            <div class=\"response-fixation\"></div>\n            <div id=\"bar\" class=\"rotating-bar\"></div>\n          </div>\n        </div>\n      ","response":"Enter","trial_type":"html-keyboard-response","trial_index":77,"plugin_version":"2.1.0","time_elapsed":193507,"random_initial_angle":87,"response_angle_css":-46,"response_angle_rdk":136,"angular_error_target":6,"angular_error_distractor":-107,"target_direction":130,"target_group":"black","reward_points":8},{"rt":null,"stimulus":"\n          <p style=\"color: #00FF00;\">Your reward: 8 points</p>\n        ","response":null,"trial_type":"html-keyboard-response","trial_index":78,"plugin_version":"2.1.0","time_elapsed":195509},{"rt":null,"stimulus":"<div class=\"fixation\" style=\"font-size: 60px;\">+</div>","response":null,"trial_type":"html-keyboard-response","trial_index":79,"plugin_version":"2.1.0","time_elapsed":196511},{"target_group":"white","condition_label":"W_H_vs_B_L_rep17","target_direction":76,"distractor_direction":337,"session_rotation":33,"rt":-1,"response":"","correct":false,"choices":"ALL_KEYS","correct_choice":["a"],"trial_duration":2000,"flip_timestamps":[],"response_ends_trial":false,"number_of_apertures":200,"number_of_dots":[1,1,1,1,1,1,1,1,1,1,1,1,1,1,1,1,1,1,1,1,1,1,1,1,1,1,1,1,1,1,1,1,1,1,1,1,1,1,1,1,1,1,1,1,1,1,1,1,1,1,1,1,1,1,1,1,1,1,1,1,1,1,1,1,1,1,1,1,1,1,1,1,1,1,1,1,1,1,1,1,1,1,1,1,1,1,1,1,1,1,1,1,1,1,1,1,1,1,1,1,1,1,1,1,1,1,1,1,1,1,1,1,1,1,1,1,1,1,1,1,1,1,1,1,1,1,1,1,1,1,1,1,1,1,1,1,1,1,1,1,1,1,1,1,1,1,1,1,1,1,1,1,1,1,1,1,1,1,1,1,1,1,1,1,1,1,1,1,1,1,1,1,1,1,1,1,1,1,1,1,1,1,1,1,1,1,1,1,1,1,1,1,1,1,1,1,1,1,1,1],"number_of_sets":1,"coherent_direction":[76,337,337,337,76,76,337,337,76,337,337,337,76,337,76,76,337,76,337,337,76,337,337,337,337,337,76,337,337,76,337,76,337,76,337,337,337,76,76,76,76,76,337,337,337,337,337,337,337,337,337,337,76,337,337,76,76,76,337,76,337,337,337,337,76,76,76,76,337,76,76,337,76,76,76,76,76,76,337,337,76,76,337,76,337,76,76,337,337,337,337,337,337,76,337,76,337,76,76,337,337,337,76,337,76,76,76,76,337,76,337,337,337,76,76,337,76,337,76,76,76,76,337,76,337,337,337,337,337,76,337,76,337,337,337,76,76,337,337,337,337,76,337,337,76,76,337,76,76,337,337,76,337,76,76,76,76,337,76,337,76,76,337,76,76,76,76,76,337,76,76,76,76,76,337,76,76,337,76,76,337,76,337,337,76,337,76,76,337,337,76,337,76,76,337,76,337,76,76,76],"coherence":1,"opposite_coherence":0,"dot_radius":2,"dot_side_length":1,"dot_life":-1,"move_distance":1,"aperture_width":300,"aperture_height":300,"dot_color":["white","black","black","black","white","white","black","black","white","black","black","black","white","black","white","white","black","white","black","black","white","black","black","black","black","black","white","black","black","white","black","white","black","white","black","black","black","white","white","white","white","white","black","black","black","black","black","black","black","black","black","black","white","black","black","white","white","white","black","white","black","black","black","black","white","white","white","white","black","white","white","black","white","white","white","white","white","white","black","black","white","white","black","white","black","white","white","black","black","black","black","black","black","white","black","white","black","white","white","black","black","black","white","black","white","white","white","white","black","white","black","black","black","white","white","black","white","black","white","white","white","white","black","white","black","black","black","black","black","white","black","white","black","black","black","white","white","black","black","black","black","white","black","black","white","white","black","white","white","black","black","white","black","white","white","white","white","black","white","black","white","white","black","white","white","white","white","white","black","white","white","white","white","white","black","white","white","black","white","white","black","white","black","black","white","black","white","white","black","black","white","black","white","white","black","white","black","white","white","white"],"dot_shape":"circle","background_color":"#AAA","RDK_type":3,"aperture_type":2,"reinsert_type":2,"frame_rate":16.8,"frame_rate_array":[5,17,17,17,17,17,17,17,17,17,17,17,17,17,17,17,17,17,17,16,17,17,17,17,17,17,16,17,17,17,17,17,17,17,17,17,17,17,17,17,17,17,17,17,16,17,17,16,16,17,17,17,17,17,17,17,17,17,16,17,17,17,17,17,17,17,16,18,17,17,17,17,17,17,17,17,17,17,17,17,17,17,16,17,17,16,17,17,17,17,17,16,17,17,17,16,17,17,16,17,16,17,17,17,17,17,17,17,17,17,17,17,17,17,17,17,17,17,17,17],"number_of_frames":120,"aperture_center_x":720,"aperture_center_y":450,"fixation_cross":true,"fixation_cross_width":15,"fixation_cross_height":15,"fixation_cross_color":"#111","fixation_cross_thickness":1,"border":true,"border_thickness":2,"border_color":"transparent","canvas_width":1440,"canvas_height":900,"trial_type":"rdk","trial_index":80,"plugin_version":"2.0.0","time_elapsed":198516},{"rt":2978,"stimulus":"\n        <div class=\"response-container\">\n          <div class=\"response-instruction\">\n            <p>rotate the bar by using the left and right arrow keys.</p>\n            <p>when you are determined, press the Enter key.</p>\n          </div>\n          <div class=\"response-circle\">\n            <div class=\"response-fixation\"></div>\n            <div id=\"bar\" class=\"rotating-bar\"></div>\n          </div>\n        </div>\n      ","response":"Enter","trial_type":"html-keyboard-response","trial_index":81,"plugin_version":"2.1.0","time_elapsed":201495,"random_initial_angle":13,"response_angle_css":144,"response_angle_rdk":306,"angular_error_target":-130,"angular_error_distractor":-31,"target_direction":76,"target_group":"white","reward_points":0},{"rt":null,"stimulus":"\n          <p style=\"color: #FF3333;\">Your reward: 0 points</p>\n        ","response":null,"trial_type":"html-keyboard-response","trial_index":82,"plugin_version":"2.1.0","time_elapsed":203497},{"rt":null,"stimulus":"<div class=\"fixation\" style=\"font-size: 60px;\">+</div>","response":null,"trial_type":"html-keyboard-response","trial_index":83,"plugin_version":"2.1.0","time_elapsed":204499},{"target_group":"white","condition_label":"W_H_vs_B_L_rep5","target_direction":73,"distractor_direction":308,"session_rotation":33,"rt":-1,"response":"","correct":false,"choices":"ALL_KEYS","correct_choice":["a"],"trial_duration":2000,"flip_timestamps":[],"response_ends_trial":false,"number_of_apertures":200,"number_of_dots":[1,1,1,1,1,1,1,1,1,1,1,1,1,1,1,1,1,1,1,1,1,1,1,1,1,1,1,1,1,1,1,1,1,1,1,1,1,1,1,1,1,1,1,1,1,1,1,1,1,1,1,1,1,1,1,1,1,1,1,1,1,1,1,1,1,1,1,1,1,1,1,1,1,1,1,1,1,1,1,1,1,1,1,1,1,1,1,1,1,1,1,1,1,1,1,1,1,1,1,1,1,1,1,1,1,1,1,1,1,1,1,1,1,1,1,1,1,1,1,1,1,1,1,1,1,1,1,1,1,1,1,1,1,1,1,1,1,1,1,1,1,1,1,1,1,1,1,1,1,1,1,1,1,1,1,1,1,1,1,1,1,1,1,1,1,1,1,1,1,1,1,1,1,1,1,1,1,1,1,1,1,1,1,1,1,1,1,1,1,1,1,1,1,1,1,1,1,1,1,1],"number_of_sets":1,"coherent_direction":[73,308,308,308,73,308,308,308,73,73,308,73,73,308,308,73,73,308,308,73,308,73,308,73,73,308,73,73,308,308,308,308,73,308,73,308,308,308,308,308,73,73,308,73,308,308,308,73,73,308,308,308,73,73,308,73,73,73,308,308,73,73,308,308,308,73,308,308,308,73,308,308,308,73,308,73,308,73,308,308,73,73,308,73,73,308,73,73,308,73,308,308,73,73,73,308,73,308,308,73,308,308,308,308,73,73,73,73,308,308,73,73,73,308,308,308,308,308,308,73,73,308,73,308,73,308,308,73,308,73,73,73,73,73,73,73,73,73,73,308,308,73,73,73,73,73,73,308,73,73,73,308,308,308,308,308,73,308,73,308,73,73,73,308,73,308,308,73,73,308,73,73,308,308,308,73,73,73,73,73,73,73,73,308,308,73,73,308,73,73,308,308,308,308,308,308,73,73,308,308],"coherence":1,"opposite_coherence":0,"dot_radius":2,"dot_side_length":1,"dot_life":-1,"move_distance":1,"aperture_width":300,"aperture_height":300,"dot_color":["white","black","black","black","white","black","black","black","white","white","black","white","white","black","black","white","white","black","black","white","black","white","black","white","white","black","white","white","black","black","black","black","white","black","white","black","black","black","black","black","white","white","black","white","black","black","black","white","white","black","black","black","white","white","black","white","white","white","black","black","white","white","black","black","black","white","black","black","black","white","black","black","black","white","black","white","black","white","black","black","white","white","black","white","white","black","white","white","black","white","black","black","white","white","white","black","white","black","black","white","black","black","black","black","white","white","white","white","black","black","white","white","white","black","black","black","black","black","black","white","white","black","white","black","white","black","black","white","black","white","white","white","white","white","white","white","white","white","white","black","black","white","white","white","white","white","white","black","white","white","white","black","black","black","black","black","white","black","white","black","white","white","white","black","white","black","black","white","white","black","white","white","black","black","black","white","white","white","white","white","white","white","white","black","black","white","white","black","white","white","black","black","black","black","black","black","white","white","black","black"],"dot_shape":"circle","background_color":"#AAA","RDK_type":3,"aperture_type":2,"reinsert_type":2,"frame_rate":16.766666666666666,"frame_rate_array":[8,16,17,17,17,17,17,17,17,17,17,17,17,17,17,17,17,17,17,17,17,17,17,17,16,17,17,17,17,17,17,16,17,17,17,16,17,17,17,17,17,16,16,17,17,15,18,17,16,16,17,17,17,17,17,16,17,16,18,17,17,17,17,16,17,17,17,17,16,18,17,17,17,17,17,17,16,17,17,17,17,17,17,17,17,17,16,17,16,17,17,17,16,17,17,17,16,17,17,17,17,17,16,17,17,17,17,17,16,17,17,17,17,17,17,17,16,17,17,17],"number_of_frames":120,"aperture_center_x":720,"aperture_center_y":450,"fixation_cross":true,"fixation_cross_width":15,"fixation_cross_height":15,"fixation_cross_color":"#111","fixation_cross_thickness":1,"border":true,"border_thickness":2,"border_color":"transparent","canvas_width":1440,"canvas_height":900,"trial_type":"rdk","trial_index":84,"plugin_version":"2.0.0","time_elapsed":206504},{"rt":2030,"stimulus":"\n        <div class=\"response-container\">\n          <div class=\"response-instruction\">\n            <p>rotate the bar by using the left and right arrow keys.</p>\n            <p>when you are determined, press the Enter key.</p>\n          </div>\n          <div class=\"response-circle\">\n            <div class=\"response-fixation\"></div>\n            <div id=\"bar\" class=\"rotating-bar\"></div>\n          </div>\n        </div>\n      ","response":"Enter","trial_type":"html-keyboard-response","trial_index":85,"plugin_version":"2.1.0","time_elapsed":208535,"random_initial_angle":320,"response_angle_css":367,"response_angle_rdk":83,"angular_error_target":10,"angular_error_distractor":135,"target_direction":73,"target_group":"white","reward_points":8},{"rt":null,"stimulus":"\n          <p style=\"color: #00FF00;\">Your reward: 8 points</p>\n        ","response":null,"trial_type":"html-keyboard-response","trial_index":86,"plugin_version":"2.1.0","time_elapsed":210537},{"rt":null,"stimulus":"<div class=\"fixation\" style=\"font-size: 60px;\">+</div>","response":null,"trial_type":"html-keyboard-response","trial_index":87,"plugin_version":"2.1.0","time_elapsed":211540},{"target_group":"black","condition_label":"B_H_vs_W_L_rep5","target_direction":127,"distractor_direction":234,"session_rotation":33,"rt":-1,"response":"","correct":false,"choices":"ALL_KEYS","correct_choice":["a"],"trial_duration":2000,"flip_timestamps":[],"response_ends_trial":false,"number_of_apertures":200,"number_of_dots":[1,1,1,1,1,1,1,1,1,1,1,1,1,1,1,1,1,1,1,1,1,1,1,1,1,1,1,1,1,1,1,1,1,1,1,1,1,1,1,1,1,1,1,1,1,1,1,1,1,1,1,1,1,1,1,1,1,1,1,1,1,1,1,1,1,1,1,1,1,1,1,1,1,1,1,1,1,1,1,1,1,1,1,1,1,1,1,1,1,1,1,1,1,1,1,1,1,1,1,1,1,1,1,1,1,1,1,1,1,1,1,1,1,1,1,1,1,1,1,1,1,1,1,1,1,1,1,1,1,1,1,1,1,1,1,1,1,1,1,1,1,1,1,1,1,1,1,1,1,1,1,1,1,1,1,1,1,1,1,1,1,1,1,1,1,1,1,1,1,1,1,1,1,1,1,1,1,1,1,1,1,1,1,1,1,1,1,1,1,1,1,1,1,1,1,1,1,1,1,1],"number_of_sets":1,"coherent_direction":[127,127,127,234,127,127,127,127,234,234,234,234,127,127,234,127,234,127,127,127,234,234,234,234,234,234,234,234,234,127,234,127,234,234,127,127,234,127,127,127,234,127,127,234,127,234,127,234,234,127,127,127,127,234,234,127,234,234,127,127,234,234,234,234,234,234,234,127,127,234,127,127,127,234,234,234,127,127,127,234,234,234,127,234,234,127,127,234,127,127,234,234,234,234,234,234,234,234,127,234,127,127,234,127,127,234,127,234,234,127,127,127,127,234,234,127,234,234,127,234,127,127,127,127,234,127,127,127,234,127,127,127,127,127,234,234,127,234,234,127,127,234,127,234,127,127,127,234,234,234,234,127,234,234,234,127,234,127,127,234,127,127,234,127,234,234,127,234,234,234,127,234,127,127,127,127,234,234,127,127,234,234,127,234,127,234,127,127,234,127,234,127,127,127,127,234,234,234,127,234],"coherence":1,"opposite_coherence":0,"dot_radius":2,"dot_side_length":1,"dot_life":-1,"move_distance":1,"aperture_width":300,"aperture_height":300,"dot_color":["black","black","black","white","black","black","black","black","white","white","white","white","black","black","white","black","white","black","black","black","white","white","white","white","white","white","white","white","white","black","white","black","white","white","black","black","white","black","black","black","white","black","black","white","black","white","black","white","white","black","black","black","black","white","white","black","white","white","black","black","white","white","white","white","white","white","white","black","black","white","black","black","black","white","white","white","black","black","black","white","white","white","black","white","white","black","black","white","black","black","white","white","white","white","white","white","white","white","black","white","black","black","white","black","black","white","black","white","white","black","black","black","black","white","white","black","white","white","black","white","black","black","black","black","white","black","black","black","white","black","black","black","black","black","white","white","black","white","white","black","black","white","black","white","black","black","black","white","white","white","white","black","white","white","white","black","white","black","black","white","black","black","white","black","white","white","black","white","white","white","black","white","black","black","black","black","white","white","black","black","white","white","black","white","black","white","black","black","white","black","white","black","black","black","black","white","white","white","black","white"],"dot_shape":"circle","background_color":"#AAA","RDK_type":3,"aperture_type":2,"reinsert_type":2,"frame_rate":16.915966386554622,"frame_rate_array":[17,17,16,17,17,17,16,18,17,16,16,17,17,16,17,17,18,17,17,17,17,17,17,17,17,17,17,17,17,15,17,18,17,17,17,17,17,17,17,16,17,17,17,17,17,16,17,17,17,16,18,17,17,17,17,17,17,17,17,17,16,17,17,17,17,17,17,17,17,17,17,17,17,17,17,17,17,16,18,17,17,17,16,18,17,17,16,18,16,17,17,17,17,17,17,17,17,17,17,17,17,17,16,18,17,16,16,17,17,17,16,18,17,17,17,17,17,17,17],"number_of_frames":119,"aperture_center_x":720,"aperture_center_y":450,"fixation_cross":true,"fixation_cross_width":15,"fixation_cross_height":15,"fixation_cross_color":"#111","fixation_cross_thickness":1,"border":true,"border_thickness":2,"border_color":"transparent","canvas_width":1440,"canvas_height":900,"trial_type":"rdk","trial_index":88,"plugin_version":"2.0.0","time_elapsed":213544},{"rt":2782,"stimulus":"\n        <div class=\"response-container\">\n          <div class=\"response-instruction\">\n            <p>rotate the bar by using the left and right arrow keys.</p>\n            <p>when you are determined, press the Enter key.</p>\n          </div>\n          <div class=\"response-circle\">\n            <div class=\"response-fixation\"></div>\n            <div id=\"bar\" class=\"rotating-bar\"></div>\n          </div>\n        </div>\n      ","response":"Enter","trial_type":"html-keyboard-response","trial_index":89,"plugin_version":"2.1.0","time_elapsed":216328,"random_initial_angle":95,"response_angle_css":-36,"response_angle_rdk":126,"angular_error_target":-1,"angular_error_distractor":-108,"target_direction":127,"target_group":"black","reward_points":9},{"rt":null,"stimulus":"\n          <p style=\"color: #00FF00;\">Your reward: 9 points</p>\n        ","response":null,"trial_type":"html-keyboard-response","trial_index":90,"plugin_version":"2.1.0","time_elapsed":218330},{"rt":null,"stimulus":"<div class=\"fixation\" style=\"font-size: 60px;\">+</div>","response":null,"trial_type":"html-keyboard-response","trial_index":91,"plugin_version":"2.1.0","time_elapsed":219332},{"target_group":"white","condition_label":"W_H_vs_B_L_rep7","target_direction":74,"distractor_direction":333,"session_rotation":33,"rt":-1,"response":"","correct":false,"choices":"ALL_KEYS","correct_choice":["a"],"trial_duration":2000,"flip_timestamps":[],"response_ends_trial":false,"number_of_apertures":200,"number_of_dots":[1,1,1,1,1,1,1,1,1,1,1,1,1,1,1,1,1,1,1,1,1,1,1,1,1,1,1,1,1,1,1,1,1,1,1,1,1,1,1,1,1,1,1,1,1,1,1,1,1,1,1,1,1,1,1,1,1,1,1,1,1,1,1,1,1,1,1,1,1,1,1,1,1,1,1,1,1,1,1,1,1,1,1,1,1,1,1,1,1,1,1,1,1,1,1,1,1,1,1,1,1,1,1,1,1,1,1,1,1,1,1,1,1,1,1,1,1,1,1,1,1,1,1,1,1,1,1,1,1,1,1,1,1,1,1,1,1,1,1,1,1,1,1,1,1,1,1,1,1,1,1,1,1,1,1,1,1,1,1,1,1,1,1,1,1,1,1,1,1,1,1,1,1,1,1,1,1,1,1,1,1,1,1,1,1,1,1,1,1,1,1,1,1,1,1,1,1,1,1,1],"number_of_sets":1,"coherent_direction":[74,333,74,333,333,74,333,74,74,74,74,333,74,74,333,74,74,333,333,333,74,74,333,333,74,74,333,74,74,74,333,333,74,333,74,333,333,333,333,74,333,74,333,333,333,333,333,333,74,74,333,74,74,333,74,333,333,333,333,333,333,74,333,333,74,74,333,333,333,74,74,333,74,333,74,333,74,333,333,333,333,333,74,333,74,333,333,74,74,333,74,74,74,74,74,74,74,333,74,74,74,333,74,74,74,333,333,74,333,333,333,333,74,74,74,74,333,74,74,333,333,74,74,74,333,333,74,333,333,333,74,74,333,74,74,74,74,333,74,333,74,74,333,333,74,333,74,74,333,333,333,74,74,74,74,333,333,74,74,333,74,333,333,74,333,333,74,333,333,333,74,74,333,74,333,333,74,74,333,333,74,74,74,74,74,74,74,333,74,333,333,333,333,74,74,333,333,333,74,333],"coherence":1,"opposite_coherence":0,"dot_radius":2,"dot_side_length":1,"dot_life":-1,"move_distance":1,"aperture_width":300,"aperture_height":300,"dot_color":["white","black","white","black","black","white","black","white","white","white","white","black","white","white","black","white","white","black","black","black","white","white","black","black","white","white","black","white","white","white","black","black","white","black","white","black","black","black","black","white","black","white","black","black","black","black","black","black","white","white","black","white","white","black","white","black","black","black","black","black","black","white","black","black","white","white","black","black","black","white","white","black","white","black","white","black","white","black","black","black","black","black","white","black","white","black","black","white","white","black","white","white","white","white","white","white","white","black","white","white","white","black","white","white","white","black","black","white","black","black","black","black","white","white","white","white","black","white","white","black","black","white","white","white","black","black","white","black","black","black","white","white","black","white","white","white","white","black","white","black","white","white","black","black","white","black","white","white","black","black","black","white","white","white","white","black","black","white","white","black","white","black","black","white","black","black","white","black","black","black","white","white","black","white","black","black","white","white","black","black","white","white","white","white","white","white","white","black","white","black","black","black","black","white","white","black","black","black","white","black"],"dot_shape":"circle","background_color":"#AAA","RDK_type":3,"aperture_type":2,"reinsert_type":2,"frame_rate":16.766666666666666,"frame_rate_array":[7,17,17,17,17,17,17,17,16,17,17,17,17,16,17,17,17,17,17,17,17,17,15,18,17,16,18,17,17,17,17,17,16,18,16,17,17,15,18,16,17,17,16,17,17,16,18,17,17,15,18,17,16,17,17,17,16,17,16,17,17,17,17,17,17,17,17,17,17,17,16,17,17,17,17,17,17,17,16,18,16,18,17,16,17,17,16,17,16,17,16,18,16,18,17,17,17,17,17,17,17,17,17,17,17,16,17,17,17,17,17,17,17,16,17,17,17,17,16,17],"number_of_frames":120,"aperture_center_x":720,"aperture_center_y":450,"fixation_cross":true,"fixation_cross_width":15,"fixation_cross_height":15,"fixation_cross_color":"#111","fixation_cross_thickness":1,"border":true,"border_thickness":2,"border_color":"transparent","canvas_width":1440,"canvas_height":900,"trial_type":"rdk","trial_index":92,"plugin_version":"2.0.0","time_elapsed":221337},{"rt":2958,"stimulus":"\n        <div class=\"response-container\">\n          <div class=\"response-instruction\">\n            <p>rotate the bar by using the left and right arrow keys.</p>\n            <p>when you are determined, press the Enter key.</p>\n          </div>\n          <div class=\"response-circle\">\n            <div class=\"response-fixation\"></div>\n            <div id=\"bar\" class=\"rotating-bar\"></div>\n          </div>\n        </div>\n      ","response":"Enter","trial_type":"html-keyboard-response","trial_index":93,"plugin_version":"2.1.0","time_elapsed":224295,"random_initial_angle":197,"response_angle_css":361,"response_angle_rdk":89,"angular_error_target":15,"angular_error_distractor":116,"target_direction":74,"target_group":"white","reward_points":7},{"rt":null,"stimulus":"\n          <p style=\"color: #00FF00;\">Your reward: 7 points</p>\n        ","response":null,"trial_type":"html-keyboard-response","trial_index":94,"plugin_version":"2.1.0","time_elapsed":226298},{"rt":null,"stimulus":"<div class=\"fixation\" style=\"font-size: 60px;\">+</div>","response":null,"trial_type":"html-keyboard-response","trial_index":95,"plugin_version":"2.1.0","time_elapsed":227300},{"target_group":"black","condition_label":"B_H_vs_W_L_rep21","target_direction":139,"distractor_direction":245,"session_rotation":33,"rt":-1,"response":"","correct":false,"choices":"ALL_KEYS","correct_choice":["a"],"trial_duration":2000,"flip_timestamps":[],"response_ends_trial":false,"number_of_apertures":200,"number_of_dots":[1,1,1,1,1,1,1,1,1,1,1,1,1,1,1,1,1,1,1,1,1,1,1,1,1,1,1,1,1,1,1,1,1,1,1,1,1,1,1,1,1,1,1,1,1,1,1,1,1,1,1,1,1,1,1,1,1,1,1,1,1,1,1,1,1,1,1,1,1,1,1,1,1,1,1,1,1,1,1,1,1,1,1,1,1,1,1,1,1,1,1,1,1,1,1,1,1,1,1,1,1,1,1,1,1,1,1,1,1,1,1,1,1,1,1,1,1,1,1,1,1,1,1,1,1,1,1,1,1,1,1,1,1,1,1,1,1,1,1,1,1,1,1,1,1,1,1,1,1,1,1,1,1,1,1,1,1,1,1,1,1,1,1,1,1,1,1,1,1,1,1,1,1,1,1,1,1,1,1,1,1,1,1,1,1,1,1,1,1,1,1,1,1,1,1,1,1,1,1,1],"number_of_sets":1,"coherent_direction":[245,245,139,139,139,245,139,139,245,245,139,139,245,139,139,245,139,245,139,245,139,139,139,139,139,245,245,245,245,139,139,245,139,139,245,139,245,245,245,245,139,245,245,139,245,139,139,139,245,245,245,245,245,139,139,139,139,139,139,139,245,245,245,245,139,139,245,139,245,245,245,245,139,139,245,139,245,245,245,245,245,245,139,245,245,139,139,139,245,139,245,245,245,139,245,139,245,139,139,139,139,139,139,139,139,245,139,139,245,139,245,245,245,245,139,139,139,139,139,139,139,139,245,245,139,139,139,139,139,139,245,139,245,245,139,245,245,245,139,245,245,139,245,245,139,139,139,245,139,139,139,245,245,139,245,245,139,139,245,245,245,245,139,245,245,245,139,245,139,245,245,139,245,245,139,139,139,245,245,245,245,245,245,139,245,139,139,245,245,245,139,139,139,139,139,139,245,245,245,245],"coherence":1,"opposite_coherence":0,"dot_radius":2,"dot_side_length":1,"dot_life":-1,"move_distance":1,"aperture_width":300,"aperture_height":300,"dot_color":["white","white","black","black","black","white","black","black","white","white","black","black","white","black","black","white","black","white","black","white","black","black","black","black","black","white","white","white","white","black","black","white","black","black","white","black","white","white","white","white","black","white","white","black","white","black","black","black","white","white","white","white","white","black","black","black","black","black","black","black","white","white","white","white","black","black","white","black","white","white","white","white","black","black","white","black","white","white","white","white","white","white","black","white","white","black","black","black","white","black","white","white","white","black","white","black","white","black","black","black","black","black","black","black","black","white","black","black","white","black","white","white","white","white","black","black","black","black","black","black","black","black","white","white","black","black","black","black","black","black","white","black","white","white","black","white","white","white","black","white","white","black","white","white","black","black","black","white","black","black","black","white","white","black","white","white","black","black","white","white","white","white","black","white","white","white","black","white","black","white","white","black","white","white","black","black","black","white","white","white","white","white","white","black","white","black","black","white","white","white","black","black","black","black","black","black","white","white","white","white"],"dot_shape":"circle","background_color":"#AAA","RDK_type":3,"aperture_type":2,"reinsert_type":2,"frame_rate":16.758333333333333,"frame_rate_array":[5,16,17,17,16,18,17,17,17,17,17,17,16,16,18,17,17,17,16,17,17,17,16,18,17,17,17,17,17,17,16,17,17,17,16,17,17,17,17,17,17,17,17,17,17,16,17,17,16,17,17,17,17,16,18,17,17,17,17,17,16,17,17,17,17,17,17,17,17,17,17,16,17,17,17,17,17,17,17,16,17,16,17,17,17,17,17,16,16,17,17,16,18,17,17,16,17,17,17,17,17,17,17,17,17,17,15,18,17,17,16,17,17,17,17,17,17,16,17,17],"number_of_frames":120,"aperture_center_x":720,"aperture_center_y":450,"fixation_cross":true,"fixation_cross_width":15,"fixation_cross_height":15,"fixation_cross_color":"#111","fixation_cross_thickness":1,"border":true,"border_thickness":2,"border_color":"transparent","canvas_width":1440,"canvas_height":900,"trial_type":"rdk","trial_index":96,"plugin_version":"2.0.0","time_elapsed":229306},{"rt":3681,"stimulus":"\n        <div class=\"response-container\">\n          <div class=\"response-instruction\">\n            <p>rotate the bar by using the left and right arrow keys.</p>\n            <p>when you are determined, press the Enter key.</p>\n          </div>\n          <div class=\"response-circle\">\n            <div class=\"response-fixation\"></div>\n            <div id=\"bar\" class=\"rotating-bar\"></div>\n          </div>\n        </div>\n      ","response":"Enter","trial_type":"html-keyboard-response","trial_index":97,"plugin_version":"2.1.0","time_elapsed":232988,"random_initial_angle":121,"response_angle_css":321,"response_angle_rdk":129,"angular_error_target":-10,"angular_error_distractor":-116,"target_direction":139,"target_group":"black","reward_points":8},{"rt":null,"stimulus":"\n          <p style=\"color: #00FF00;\">Your reward: 8 points</p>\n        ","response":null,"trial_type":"html-keyboard-response","trial_index":98,"plugin_version":"2.1.0","time_elapsed":234991},{"rt":null,"stimulus":"<div class=\"fixation\" style=\"font-size: 60px;\">+</div>","response":null,"trial_type":"html-keyboard-response","trial_index":99,"plugin_version":"2.1.0","time_elapsed":235993},{"target_group":"white","condition_label":"W_H_vs_B_L_rep22","target_direction":58,"distractor_direction":319,"session_rotation":33,"rt":-1,"response":"","correct":false,"choices":"ALL_KEYS","correct_choice":["a"],"trial_duration":2000,"flip_timestamps":[],"response_ends_trial":false,"number_of_apertures":200,"number_of_dots":[1,1,1,1,1,1,1,1,1,1,1,1,1,1,1,1,1,1,1,1,1,1,1,1,1,1,1,1,1,1,1,1,1,1,1,1,1,1,1,1,1,1,1,1,1,1,1,1,1,1,1,1,1,1,1,1,1,1,1,1,1,1,1,1,1,1,1,1,1,1,1,1,1,1,1,1,1,1,1,1,1,1,1,1,1,1,1,1,1,1,1,1,1,1,1,1,1,1,1,1,1,1,1,1,1,1,1,1,1,1,1,1,1,1,1,1,1,1,1,1,1,1,1,1,1,1,1,1,1,1,1,1,1,1,1,1,1,1,1,1,1,1,1,1,1,1,1,1,1,1,1,1,1,1,1,1,1,1,1,1,1,1,1,1,1,1,1,1,1,1,1,1,1,1,1,1,1,1,1,1,1,1,1,1,1,1,1,1,1,1,1,1,1,1,1,1,1,1,1,1],"number_of_sets":1,"coherent_direction":[58,319,319,58,319,319,319,58,319,319,319,319,58,58,58,58,319,319,319,58,319,58,58,319,58,319,58,319,319,319,58,58,58,319,58,319,58,319,58,319,319,58,319,58,319,58,319,58,58,319,319,58,58,319,58,319,58,319,58,58,319,319,58,58,319,319,58,319,319,58,319,58,319,58,58,319,58,58,319,58,58,319,58,58,319,319,319,58,319,58,58,58,58,319,319,319,58,58,58,58,58,58,58,58,319,319,319,319,319,319,319,58,58,58,58,319,319,58,319,58,319,58,319,58,58,319,319,58,319,319,58,319,319,58,319,319,58,58,319,319,58,319,58,319,58,58,319,319,319,58,319,58,58,58,58,319,58,58,319,319,319,58,58,58,319,319,58,319,319,319,58,319,58,58,319,319,58,58,319,319,319,319,319,58,58,58,58,58,319,58,58,58,319,58,58,58,319,319,319,319],"coherence":1,"opposite_coherence":0,"dot_radius":2,"dot_side_length":1,"dot_life":-1,"move_distance":1,"aperture_width":300,"aperture_height":300,"dot_color":["white","black","black","white","black","black","black","white","black","black","black","black","white","white","white","white","black","black","black","white","black","white","white","black","white","black","white","black","black","black","white","white","white","black","white","black","white","black","white","black","black","white","black","white","black","white","black","white","white","black","black","white","white","black","white","black","white","black","white","white","black","black","white","white","black","black","white","black","black","white","black","white","black","white","white","black","white","white","black","white","white","black","white","white","black","black","black","white","black","white","white","white","white","black","black","black","white","white","white","white","white","white","white","white","black","black","black","black","black","black","black","white","white","white","white","black","black","white","black","white","black","white","black","white","white","black","black","white","black","black","white","black","black","white","black","black","white","white","black","black","white","black","white","black","white","white","black","black","black","white","black","white","white","white","white","black","white","white","black","black","black","white","white","white","black","black","white","black","black","black","white","black","white","white","black","black","white","white","black","black","black","black","black","white","white","white","white","white","black","white","white","white","black","white","white","white","black","black","black","black"],"dot_shape":"circle","background_color":"#AAA","RDK_type":3,"aperture_type":2,"reinsert_type":2,"frame_rate":16.833333333333332,"frame_rate_array":[13,17,17,17,17,17,17,17,16,17,17,16,16,16,17,17,17,17,16,17,17,17,17,17,17,17,17,17,17,16,17,17,17,17,17,16,17,17,16,17,17,17,17,17,17,17,17,16,18,17,17,17,17,17,17,17,16,17,17,17,17,16,17,17,17,17,16,17,17,17,17,17,17,17,16,17,17,17,16,17,17,17,17,17,17,17,17,17,17,17,17,17,17,17,17,17,17,17,16,17,17,17,17,17,17,17,17,17,17,17,17,17,17,16,16,18,16,17,17,17],"number_of_frames":120,"aperture_center_x":720,"aperture_center_y":450,"fixation_cross":true,"fixation_cross_width":15,"fixation_cross_height":15,"fixation_cross_color":"#111","fixation_cross_thickness":1,"border":true,"border_thickness":2,"border_color":"transparent","canvas_width":1440,"canvas_height":900,"trial_type":"rdk","trial_index":100,"plugin_version":"2.0.0","time_elapsed":237998},{"rt":1480,"stimulus":"\n        <div class=\"response-container\">\n          <div class=\"response-instruction\">\n            <p>rotate the bar by using the left and right arrow keys.</p>\n            <p>when you are determined, press the Enter key.</p>\n          </div>\n          <div class=\"response-circle\">\n            <div class=\"response-fixation\"></div>\n            <div id=\"bar\" class=\"rotating-bar\"></div>\n          </div>\n        </div>\n      ","response":"Enter","trial_type":"html-keyboard-response","trial_index":101,"plugin_version":"2.1.0","time_elapsed":239479,"random_initial_angle":26,"response_angle_css":4,"response_angle_rdk":86,"angular_error_target":28,"angular_error_distractor":127,"target_direction":58,"target_group":"white","reward_points":4},{"rt":null,"stimulus":"\n          <p style=\"color: #00FF00;\">Your reward: 4 points</p>\n        ","response":null,"trial_type":"html-keyboard-response","trial_index":102,"plugin_version":"2.1.0","time_elapsed":241482},{"rt":null,"stimulus":"<div class=\"fixation\" style=\"font-size: 60px;\">+</div>","response":null,"trial_type":"html-keyboard-response","trial_index":103,"plugin_version":"2.1.0","time_elapsed":242485},{"target_group":"black","condition_label":"B_H_vs_W_L_rep22","target_direction":125,"distractor_direction":221,"session_rotation":33,"rt":-1,"response":"","correct":false,"choices":"ALL_KEYS","correct_choice":["a"],"trial_duration":2000,"flip_timestamps":[],"response_ends_trial":false,"number_of_apertures":200,"number_of_dots":[1,1,1,1,1,1,1,1,1,1,1,1,1,1,1,1,1,1,1,1,1,1,1,1,1,1,1,1,1,1,1,1,1,1,1,1,1,1,1,1,1,1,1,1,1,1,1,1,1,1,1,1,1,1,1,1,1,1,1,1,1,1,1,1,1,1,1,1,1,1,1,1,1,1,1,1,1,1,1,1,1,1,1,1,1,1,1,1,1,1,1,1,1,1,1,1,1,1,1,1,1,1,1,1,1,1,1,1,1,1,1,1,1,1,1,1,1,1,1,1,1,1,1,1,1,1,1,1,1,1,1,1,1,1,1,1,1,1,1,1,1,1,1,1,1,1,1,1,1,1,1,1,1,1,1,1,1,1,1,1,1,1,1,1,1,1,1,1,1,1,1,1,1,1,1,1,1,1,1,1,1,1,1,1,1,1,1,1,1,1,1,1,1,1,1,1,1,1,1,1],"number_of_sets":1,"coherent_direction":[221,125,125,221,221,125,125,221,125,125,221,221,221,125,221,221,221,221,125,125,125,221,125,125,125,221,125,125,125,221,221,221,125,125,221,221,125,221,125,125,125,221,125,221,125,125,125,125,221,125,125,125,125,221,125,221,125,125,125,221,125,125,125,221,125,221,125,221,221,221,125,221,125,125,125,125,125,221,125,221,125,221,221,125,125,125,125,125,221,221,125,221,221,125,125,221,125,221,125,125,221,125,125,221,125,125,125,125,125,125,125,221,125,221,125,125,221,221,221,221,221,221,221,221,221,125,221,125,221,125,125,125,221,221,221,221,125,221,125,221,221,221,125,221,125,221,125,221,221,221,221,221,125,125,221,221,125,221,125,221,125,125,221,125,221,125,125,125,221,125,125,125,221,221,221,221,125,221,221,221,221,125,125,221,221,221,221,221,221,221,221,125,221,221,221,221,125,221,221,125],"coherence":1,"opposite_coherence":0,"dot_radius":2,"dot_side_length":1,"dot_life":-1,"move_distance":1,"aperture_width":300,"aperture_height":300,"dot_color":["white","black","black","white","white","black","black","white","black","black","white","white","white","black","white","white","white","white","black","black","black","white","black","black","black","white","black","black","black","white","white","white","black","black","white","white","black","white","black","black","black","white","black","white","black","black","black","black","white","black","black","black","black","white","black","white","black","black","black","white","black","black","black","white","black","white","black","white","white","white","black","white","black","black","black","black","black","white","black","white","black","white","white","black","black","black","black","black","white","white","black","white","white","black","black","white","black","white","black","black","white","black","black","white","black","black","black","black","black","black","black","white","black","white","black","black","white","white","white","white","white","white","white","white","white","black","white","black","white","black","black","black","white","white","white","white","black","white","black","white","white","white","black","white","black","white","black","white","white","white","white","white","black","black","white","white","black","white","black","white","black","black","white","black","white","black","black","black","white","black","black","black","white","white","white","white","black","white","white","white","white","black","black","white","white","white","white","white","white","white","white","black","white","white","white","white","black","white","white","black"],"dot_shape":"circle","background_color":"#AAA","RDK_type":3,"aperture_type":2,"reinsert_type":2,"frame_rate":16.915966386554622,"frame_rate_array":[23,17,17,17,17,17,17,17,17,16,17,17,17,17,17,16,17,17,17,17,16,17,17,17,17,17,17,17,16,17,17,16,18,17,17,17,17,17,16,17,17,16,17,17,16,17,17,17,17,17,17,17,17,17,17,17,17,17,17,16,17,17,17,17,16,17,17,17,17,17,17,17,17,17,17,17,17,16,17,17,17,17,17,17,16,17,17,17,17,17,16,17,17,17,17,16,17,17,17,17,17,17,17,16,17,17,17,17,16,17,17,17,17,17,17,17,17,17,16],"number_of_frames":119,"aperture_center_x":720,"aperture_center_y":450,"fixation_cross":true,"fixation_cross_width":15,"fixation_cross_height":15,"fixation_cross_color":"#111","fixation_cross_thickness":1,"border":true,"border_thickness":2,"border_color":"transparent","canvas_width":1440,"canvas_height":900,"trial_type":"rdk","trial_index":104,"plugin_version":"2.0.0","time_elapsed":244490},{"rt":1351,"stimulus":"\n        <div class=\"response-container\">\n          <div class=\"response-instruction\">\n            <p>rotate the bar by using the left and right arrow keys.</p>\n            <p>when you are determined, press the Enter key.</p>\n          </div>\n          <div class=\"response-circle\">\n            <div class=\"response-fixation\"></div>\n            <div id=\"bar\" class=\"rotating-bar\"></div>\n          </div>\n        </div>\n      ","response":"Enter","trial_type":"html-keyboard-response","trial_index":105,"plugin_version":"2.1.0","time_elapsed":245842,"random_initial_angle":358,"response_angle_css":325,"response_angle_rdk":125,"angular_error_target":0,"angular_error_distractor":-96,"target_direction":125,"target_group":"black","reward_points":10},{"rt":null,"stimulus":"\n          <p style=\"color: #00FF00;\">Your reward: 10 points</p>\n        ","response":null,"trial_type":"html-keyboard-response","trial_index":106,"plugin_version":"2.1.0","time_elapsed":247845},{"rt":null,"stimulus":"<div class=\"fixation\" style=\"font-size: 60px;\">+</div>","response":null,"trial_type":"html-keyboard-response","trial_index":107,"plugin_version":"2.1.0","time_elapsed":248847},{"target_group":"white","condition_label":"W_H_vs_B_L_rep15","target_direction":73,"distractor_direction":326,"session_rotation":33,"rt":-1,"response":"","correct":false,"choices":"ALL_KEYS","correct_choice":["a"],"trial_duration":2000,"flip_timestamps":[],"response_ends_trial":false,"number_of_apertures":200,"number_of_dots":[1,1,1,1,1,1,1,1,1,1,1,1,1,1,1,1,1,1,1,1,1,1,1,1,1,1,1,1,1,1,1,1,1,1,1,1,1,1,1,1,1,1,1,1,1,1,1,1,1,1,1,1,1,1,1,1,1,1,1,1,1,1,1,1,1,1,1,1,