[{"rt":1331,"stimulus":"Welcome to the experiment. Press any key to begin.","response":"v","trial_type":"html-keyboard-response","trial_index":0,"plugin_version":"2.1.0","time_elapsed":1345},{"rt":48308,"stimulus":"\n        <div class=\"instructions-container\">\n          <h2>Instructions</h2>\n\n          <p>\n          In this experiment, you will see <strong>two Random Dot Kinematograms (RDKs)</strong> displayed simultaneously.\n          </p>\n\n          <p>\n          An RDK is a visual stimulus consisting of many small dots that move coherently in a single direction. \n          In this experiment, the dots will be either <strong>white</strong> or <strong>black</strong> \n          (see the short demo below for an example of an RDK stimulus).\n          </p>\n\n          <p>\n          On each trial, the two RDKs will move in different directions. \n          Your task is to decide <strong>which RDK appears to contain more dots</strong>.\n          </p>\n\n          <p>\n          The RDK that you judge to have more dots is called the <strong>target RDK</strong>. \n          For example, if the white RDK appears to have more dots than the black RDK, \n          you should report the motion direction of the white RDK.\n          </p>\n\n          <p>\n          After viewing the RDKs, you will rotate a bar to indicate the perceived direction of the target RDK \n          using the <strong>left</strong> and <strong>right arrow keys</strong>. \n          Press <strong>Enter</strong> when you are satisfied with your response.\n          </p>\n\n          <p>\n          You will receive points based on the <strong>accuracy of your response</strong>, \n          and your final <strong>bonus reward</strong> may depend on your overall performance. \n          Please try to respond as accurately as possible.\n          </p>\n\n          <p>\n          You will first complete <strong>16 practice trials</strong>. \n          Press the <strong>Enter</strong> key to start the practice phase.\n          </p>\n\n          <canvas id=\"instruction-demo-rdk\" width=\"200\" height=\"200\"style=\"display:block;margin:12px auto; border-radius: 50%;\"></canvas>\n        </div>\n      ","response":"Enter","trial_type":"html-keyboard-response","trial_index":1,"plugin_version":"2.1.0","time_elapsed":49653},{"rt":null,"stimulus":"<div class=\"fixation\" style=\"font-size: 60px;\">+</div>","response":null,"trial_type":"html-keyboard-response","trial_index":2,"plugin_version":"2.1.0","time_elapsed":50670},{"target_group":"white","target_index":0,"condition_label":"practice","rt":-1,"response":"","correct":false,"choices":"ALL_KEYS","correct_choice":["a"],"trial_duration":2000,"flip_timestamps":[],"response_ends_trial":false,"number_of_apertures":2,"number_of_dots":[100,57],"number_of_sets":1,"coherent_direction":[198,328],"coherence":1,"opposite_coherence":0,"dot_radius":2,"dot_side_length":1,"dot_life":-1,"move_distance":1,"aperture_width":300,"aperture_height":300,"dot_color":["white","black"],"dot_shape":"circle","background_color":"#AAA","RDK_type":3,"aperture_type":2,"reinsert_type":2,"frame_rate":16.545454545454547,"frame_rate_array":[2,20,13,17,16,17,17,17,16,17,17,16,17,16,18,16,16,17,17,17,16,17,17,17,15,17,17,16,18,16,17,16,17,17,16,17,17,16,16,18,16,17,17,16,17,17,16,16,18,17,16,17,16,17,16,17,17,17,17,16,16,17,17,17,16,18,16,16,17,17,16,17,16,17,17,16,17,17,17,17,16,17,16,17,17,17,16,17,16,17,17,16,17,17,16,17,17,16,17,17,16,17,17,16,17,17,16,17,17,17,16,17,17,16,16,18,16,16,18,16,17],"number_of_frames":121,"aperture_center_x":960,"aperture_center_y":540,"fixation_cross":true,"fixation_cross_width":15,"fixation_cross_height":15,"fixation_cross_color":"#111","fixation_cross_thickness":1,"border":true,"border_thickness":2,"border_color":"transparent","canvas_width":1920,"canvas_height":1080,"trial_type":"rdk","trial_index":3,"plugin_version":"2.0.0","time_elapsed":52680,"target_direction":198,"distractor_direction":328},{"rt":10808,"stimulus":"\n        <div class=\"response-container\">\n          <div class=\"response-instruction\">\n            <p>rotate the bar by using the left and right arrow keys.</p>\n            <p>when you are determined, press the Enter key.</p>\n          </div>\n          <div class=\"response-circle\">\n            <div class=\"response-fixation\"></div>\n            <div id=\"bar\" class=\"rotating-bar\"></div>\n          </div>\n        </div>\n      ","response":"Enter","trial_type":"html-keyboard-response","trial_index":4,"plugin_version":"2.1.0","time_elapsed":63489,"random_initial_angle":165,"response_angle_css":241,"response_angle_rdk":209,"angular_error_target":11,"angular_error_distractor":-119,"target_direction":198,"target_group":"white","reward_points":7},{"rt":null,"stimulus":"\n          <p style=\"color: #00FF00;\">Your reward: 7 points</p>\n        ","response":null,"trial_type":"html-keyboard-response","trial_index":5,"plugin_version":"2.1.0","time_elapsed":65500},{"rt":null,"stimulus":"<div class=\"fixation\" style=\"font-size: 60px;\">+</div>","response":null,"trial_type":"html-keyboard-response","trial_index":6,"plugin_version":"2.1.0","time_elapsed":66503},{"target_group":"white","target_index":0,"condition_label":"practice","rt":-1,"response":"","correct":false,"choices":"ALL_KEYS","correct_choice":["a"],"trial_duration":2000,"flip_timestamps":[],"response_ends_trial":false,"number_of_apertures":2,"number_of_dots":[100,82],"number_of_sets":1,"coherent_direction":[161,304],"coherence":1,"opposite_coherence":0,"dot_radius":2,"dot_side_length":1,"dot_life":-1,"move_distance":1,"aperture_width":300,"aperture_height":300,"dot_color":["white","black"],"dot_shape":"circle","background_color":"#AAA","RDK_type":3,"aperture_type":2,"reinsert_type":2,"frame_rate":16.558333333333334,"frame_rate_array":[4,20,13,17,16,17,17,17,16,17,17,17,16,17,16,17,17,16,17,17,16,17,17,16,17,16,18,16,16,17,17,17,16,17,17,16,17,16,18,16,17,16,17,16,18,16,17,16,17,17,16,17,17,17,16,17,16,17,16,17,17,16,17,17,17,16,17,17,17,17,15,17,17,17,16,17,17,16,18,16,16,17,17,17,16,17,16,17,17,16,17,17,17,16,17,16,17,17,17,16,17,16,17,17,16,17,16,17,17,17,17,16,17,16,17,17,17,16,17,16],"number_of_frames":120,"aperture_center_x":960,"aperture_center_y":540,"fixation_cross":true,"fixation_cross_width":15,"fixation_cross_height":15,"fixation_cross_color":"#111","fixation_cross_thickness":1,"border":true,"border_thickness":2,"border_color":"transparent","canvas_width":1920,"canvas_height":1080,"trial_type":"rdk","trial_index":7,"plugin_version":"2.0.0","time_elapsed":68509,"target_direction":161,"distractor_direction":304},{"rt":4788,"stimulus":"\n        <div class=\"response-container\">\n          <div class=\"response-instruction\">\n            <p>rotate the bar by using the left and right arrow keys.</p>\n            <p>when you are determined, press the Enter key.</p>\n          </div>\n          <div class=\"response-circle\">\n            <div class=\"response-fixation\"></div>\n            <div id=\"bar\" class=\"rotating-bar\"></div>\n          </div>\n        </div>\n      ","response":"Enter","trial_type":"html-keyboard-response","trial_index":8,"plugin_version":"2.1.0","time_elapsed":73299,"random_initial_angle":229,"response_angle_css":310,"response_angle_rdk":140,"angular_error_target":-21,"angular_error_distractor":-164,"target_direction":161,"target_group":"white","reward_points":5},{"rt":null,"stimulus":"\n          <p style=\"color: #00FF00;\">Your reward: 5 points</p>\n        ","response":null,"trial_type":"html-keyboard-response","trial_index":9,"plugin_version":"2.1.0","time_elapsed":75314},{"rt":null,"stimulus":"<div class=\"fixation\" style=\"font-size: 60px;\">+</div>","response":null,"trial_type":"html-keyboard-response","trial_index":10,"plugin_version":"2.1.0","time_elapsed":76327},{"target_group":"black","target_index":1,"condition_label":"practice","rt":-1,"response":"","correct":false,"choices":"ALL_KEYS","correct_choice":["a"],"trial_duration":2000,"flip_timestamps":[],"response_ends_trial":false,"number_of_apertures":2,"number_of_dots":[65,100],"number_of_sets":1,"coherent_direction":[339,180],"coherence":1,"opposite_coherence":0,"dot_radius":2,"dot_side_length":1,"dot_life":-1,"move_distance":1,"aperture_width":300,"aperture_height":300,"dot_color":["white","black"],"dot_shape":"circle","background_color":"#AAA","RDK_type":3,"aperture_type":2,"reinsert_type":2,"frame_rate":16.633587786259543,"frame_rate_array":[13,21,11,17,17,17,16,16,19,16,16,16,18,17,15,17,17,17,16,17,17,17,16,17,17,16,17,16,17,16,17,17,17,17,16,17,16,17,17,16,17,17,17,16,16,18,16,17,17,16,17,16,17,17,17,16,17,17,16,17,17,16,17,17,16,16,17,17,17,17,16,17,17,17,15,17,17,17,17,16,17,16,18,16,16,18,16,16,17,17,16,17,17,16,18,15,18,16,16,17,17,17,16,17,17,16,17,17,16,17,17,16,17,17,17,16,17,16,17,17,16,17,17,16,17,17,16,17,17,16,17],"number_of_frames":131,"aperture_center_x":960,"aperture_center_y":540,"fixation_cross":true,"fixation_cross_width":15,"fixation_cross_height":15,"fixation_cross_color":"#111","fixation_cross_thickness":1,"border":true,"border_thickness":2,"border_color":"transparent","canvas_width":1920,"canvas_height":1080,"trial_type":"rdk","trial_index":11,"plugin_version":"2.0.0","time_elapsed":78522,"target_direction":180,"distractor_direction":339},{"rt":3215,"stimulus":"\n        <div class=\"response-container\">\n          <div class=\"response-instruction\">\n            <p>rotate the bar by using the left and right arrow keys.</p>\n            <p>when you are determined, press the Enter key.</p>\n          </div>\n          <div class=\"response-circle\">\n            <div class=\"response-fixation\"></div>\n            <div id=\"bar\" class=\"rotating-bar\"></div>\n          </div>\n        </div>\n      ","response":"Enter","trial_type":"html-keyboard-response","trial_index":12,"plugin_version":"2.1.0","time_elapsed":81739,"random_initial_angle":250,"response_angle_css":273,"response_angle_rdk":177,"angular_error_target":-3,"angular_error_distractor":-162,"target_direction":180,"target_group":"black","reward_points":9},{"rt":null,"stimulus":"\n          <p style=\"color: #00FF00;\">Your reward: 9 points</p>\n        ","response":null,"trial_type":"html-keyboard-response","trial_index":13,"plugin_version":"2.1.0","time_elapsed":83744},{"rt":null,"stimulus":"<div class=\"fixation\" style=\"font-size: 60px;\">+</div>","response":null,"trial_type":"html-keyboard-response","trial_index":14,"plugin_version":"2.1.0","time_elapsed":84753},{"target_group":"black","target_index":1,"condition_label":"practice","rt":-1,"response":"","correct":false,"choices":"ALL_KEYS","correct_choice":["a"],"trial_duration":2000,"flip_timestamps":[],"response_ends_trial":false,"number_of_apertures":2,"number_of_dots":[60,100],"number_of_sets":1,"coherent_direction":[22,149],"coherence":1,"opposite_coherence":0,"dot_radius":2,"dot_side_length":1,"dot_life":-1,"move_distance":1,"aperture_width":300,"aperture_height":300,"dot_color":["white","black"],"dot_shape":"circle","background_color":"#AAA","RDK_type":3,"aperture_type":2,"reinsert_type":2,"frame_rate":16.566666666666666,"frame_rate_array":[4,21,13,16,17,16,18,16,16,17,16,18,16,17,17,16,17,16,17,16,18,16,16,18,16,17,17,16,17,16,17,17,17,17,16,17,17,16,17,16,16,18,16,17,17,16,17,17,16,17,16,18,16,16,17,17,16,17,16,17,17,17,17,16,16,18,16,17,17,16,16,17,17,17,16,17,17,17,16,17,16,17,17,17,16,17,17,16,17,16,17,17,17,16,16,18,16,17,16,17,17,16,17,17,16,17,17,17,16,17,16,18,16,16,17,17,16,17,17,17],"number_of_frames":120,"aperture_center_x":960,"aperture_center_y":540,"fixation_cross":true,"fixation_cross_width":15,"fixation_cross_height":15,"fixation_cross_color":"#111","fixation_cross_thickness":1,"border":true,"border_thickness":2,"border_color":"transparent","canvas_width":1920,"canvas_height":1080,"trial_type":"rdk","trial_index":15,"plugin_version":"2.0.0","time_elapsed":86757,"target_direction":149,"distractor_direction":22},{"rt":3817,"stimulus":"\n        <div class=\"response-container\">\n          <div class=\"response-instruction\">\n            <p>rotate the bar by using the left and right arrow keys.</p>\n            <p>when you are determined, press the Enter key.</p>\n          </div>\n          <div class=\"response-circle\">\n            <div class=\"response-fixation\"></div>\n            <div id=\"bar\" class=\"rotating-bar\"></div>\n          </div>\n        </div>\n      ","response":"Enter","trial_type":"html-keyboard-response","trial_index":16,"plugin_version":"2.1.0","time_elapsed":90575,"random_initial_angle":340,"response_angle_css":310,"response_angle_rdk":140,"angular_error_target":-9,"angular_error_distractor":118,"target_direction":149,"target_group":"black","reward_points":8},{"rt":null,"stimulus":"\n          <p style=\"color: #00FF00;\">Your reward: 8 points</p>\n        ","response":null,"trial_type":"html-keyboard-response","trial_index":17,"plugin_version":"2.1.0","time_elapsed":92589},{"rt":null,"stimulus":"<div class=\"fixation\" style=\"font-size: 60px;\">+</div>","response":null,"trial_type":"html-keyboard-response","trial_index":18,"plugin_version":"2.1.0","time_elapsed":93593},{"target_group":"white","target_index":0,"condition_label":"practice","rt":-1,"response":"","correct":false,"choices":"ALL_KEYS","correct_choice":["a"],"trial_duration":2000,"flip_timestamps":[],"response_ends_trial":false,"number_of_apertures":2,"number_of_dots":[100,61],"number_of_sets":1,"coherent_direction":[233,72],"coherence":1,"opposite_coherence":0,"dot_radius":2,"dot_side_length":1,"dot_life":-1,"move_distance":1,"aperture_width":300,"aperture_height":300,"dot_color":["white","black"],"dot_shape":"circle","background_color":"#AAA","RDK_type":3,"aperture_type":2,"reinsert_type":2,"frame_rate":16.641666666666666,"frame_rate_array":[14,17,16,17,17,17,16,17,17,16,17,17,16,17,16,17,17,17,16,17,16,17,16,17,17,17,16,18,16,17,16,17,16,17,17,17,17,15,17,17,17,16,17,17,16,17,17,17,16,17,16,17,17,17,16,17,17,16,17,17,16,16,17,17,17,16,17,17,16,17,17,17,16,16,17,17,17,17,16,17,17,16,17,16,17,16,18,16,17,17,16,17,17,16,17,17,16,17,17,17,16,17,16,16,17,17,16,18,16,17,16,17,17,16,17,17,16,17,17,16],"number_of_frames":120,"aperture_center_x":960,"aperture_center_y":540,"fixation_cross":true,"fixation_cross_width":15,"fixation_cross_height":15,"fixation_cross_color":"#111","fixation_cross_thickness":1,"border":true,"border_thickness":2,"border_color":"transparent","canvas_width":1920,"canvas_height":1080,"trial_type":"rdk","trial_index":19,"plugin_version":"2.0.0","time_elapsed":95596,"target_direction":233,"distractor_direction":72},{"rt":3299,"stimulus":"\n        <div class=\"response-container\">\n          <div class=\"response-instruction\">\n            <p>rotate the bar by using the left and right arrow keys.</p>\n            <p>when you are determined, press the Enter key.</p>\n          </div>\n          <div class=\"response-circle\">\n            <div class=\"response-fixation\"></div>\n            <div id=\"bar\" class=\"rotating-bar\"></div>\n          </div>\n        </div>\n      ","response":"Enter","trial_type":"html-keyboard-response","trial_index":20,"plugin_version":"2.1.0","time_elapsed":98897,"random_initial_angle":264,"response_angle_css":222,"response_angle_rdk":228,"angular_error_target":-5,"angular_error_distractor":156,"target_direction":233,"target_group":"white","reward_points":9},{"rt":null,"stimulus":"\n          <p style=\"color: #00FF00;\">Your reward: 9 points</p>\n        ","response":null,"trial_type":"html-keyboard-response","trial_index":21,"plugin_version":"2.1.0","time_elapsed":100909},{"rt":null,"stimulus":"<div class=\"fixation\" style=\"font-size: 60px;\">+</div>","response":null,"trial_type":"html-keyboard-response","trial_index":22,"plugin_version":"2.1.0","time_elapsed":101912},{"target_group":"black","target_index":1,"condition_label":"practice","rt":-1,"response":"","correct":false,"choices":"ALL_KEYS","correct_choice":["a"],"trial_duration":2000,"flip_timestamps":[],"response_ends_trial":false,"number_of_apertures":2,"number_of_dots":[95,100],"number_of_sets":1,"coherent_direction":[278,26],"coherence":1,"opposite_coherence":0,"dot_radius":2,"dot_side_length":1,"dot_life":-1,"move_distance":1,"aperture_width":300,"aperture_height":300,"dot_color":["white","black"],"dot_shape":"circle","background_color":"#AAA","RDK_type":3,"aperture_type":2,"reinsert_type":2,"frame_rate":16.625,"frame_rate_array":[11,17,17,17,17,16,17,16,17,17,16,17,17,16,17,17,17,16,17,16,18,16,16,17,17,16,17,17,17,16,16,17,18,16,17,16,17,16,17,17,16,17,17,16,17,17,17,16,17,16,18,16,16,17,16,17,17,17,17,16,17,17,17,15,17,17,17,17,17,16,16,18,16,17,16,17,17,16,16,18,16,16,17,18,16,16,17,17,17,16,16,18,16,17,16,17,17,17,17,15,17,17,17,16,17,17,16,17,17,17,17,15,17,17,17,16,17,17,17,16],"number_of_frames":120,"aperture_center_x":960,"aperture_center_y":540,"fixation_cross":true,"fixation_cross_width":15,"fixation_cross_height":15,"fixation_cross_color":"#111","fixation_cross_thickness":1,"border":true,"border_thickness":2,"border_color":"transparent","canvas_width":1920,"canvas_height":1080,"trial_type":"rdk","trial_index":23,"plugin_version":"2.0.0","time_elapsed":103916,"target_direction":26,"distractor_direction":278},{"rt":1111,"stimulus":"\n        <div class=\"response-container\">\n          <div class=\"response-instruction\">\n            <p>rotate the bar by using the left and right arrow keys.</p>\n            <p>when you are determined, press the Enter key.</p>\n          </div>\n          <div class=\"response-circle\">\n            <div class=\"response-fixation\"></div>\n            <div id=\"bar\" class=\"rotating-bar\"></div>\n          </div>\n        </div>\n      ","response":"Enter","trial_type":"html-keyboard-response","trial_index":24,"plugin_version":"2.1.0","time_elapsed":105029,"random_initial_angle":51,"response_angle_css":51,"response_angle_rdk":39,"angular_error_target":13,"angular_error_distractor":121,"target_direction":26,"target_group":"black","reward_points":7},{"rt":null,"stimulus":"\n          <p style=\"color: #00FF00;\">Your reward: 7 points</p>\n        ","response":null,"trial_type":"html-keyboard-response","trial_index":25,"plugin_version":"2.1.0","time_elapsed":107100},{"rt":null,"stimulus":"<div class=\"fixation\" style=\"font-size: 60px;\">+</div>","response":null,"trial_type":"html-keyboard-response","trial_index":26,"plugin_version":"2.1.0","time_elapsed":108100},{"target_group":"black","target_index":1,"condition_label":"practice","rt":-1,"response":"","correct":false,"choices":"ALL_KEYS","correct_choice":["a"],"trial_duration":2000,"flip_timestamps":[],"response_ends_trial":false,"number_of_apertures":2,"number_of_dots":[67,100],"number_of_sets":1,"coherent_direction":[315,200],"coherence":1,"opposite_coherence":0,"dot_radius":2,"dot_side_length":1,"dot_life":-1,"move_distance":1,"aperture_width":300,"aperture_height":300,"dot_color":["white","black"],"dot_shape":"circle","background_color":"#AAA","RDK_type":3,"aperture_type":2,"reinsert_type":2,"frame_rate":16.59504132231405,"frame_rate_array":[7,17,16,18,16,16,17,17,16,18,15,18,16,17,17,16,17,16,18,16,17,16,17,16,17,17,17,16,16,17,18,16,16,17,17,16,18,16,16,17,16,18,16,17,17,16,17,16,17,16,17,17,17,17,16,17,16,18,16,17,16,17,16,17,17,16,17,17,16,17,17,16,17,17,16,18,15,17,17,17,16,17,17,17,16,16,18,16,17,16,17,17,16,18,16,16,17,17,17,16,17,17,17,16,16,17,17,17,16,17,16,18,16,16,17,17,17,16,17,17,17],"number_of_frames":121,"aperture_center_x":960,"aperture_center_y":540,"fixation_cross":true,"fixation_cross_width":15,"fixation_cross_height":15,"fixation_cross_color":"#111","fixation_cross_thickness":1,"border":true,"border_thickness":2,"border_color":"transparent","canvas_width":1920,"canvas_height":1080,"trial_type":"rdk","trial_index":27,"plugin_version":"2.0.0","time_elapsed":110110,"target_direction":200,"distractor_direction":315},{"rt":6823,"stimulus":"\n        <div class=\"response-container\">\n          <div class=\"response-instruction\">\n            <p>rotate the bar by using the left and right arrow keys.</p>\n            <p>when you are determined, press the Enter key.</p>\n          </div>\n          <div class=\"response-circle\">\n            <div class=\"response-fixation\"></div>\n            <div id=\"bar\" class=\"rotating-bar\"></div>\n          </div>\n        </div>\n      ","response":"Enter","trial_type":"html-keyboard-response","trial_index":28,"plugin_version":"2.1.0","time_elapsed":116935,"random_initial_angle":129,"response_angle_css":229,"response_angle_rdk":221,"angular_error_target":21,"angular_error_distractor":-94,"target_direction":200,"target_group":"black","reward_points":5},{"rt":null,"stimulus":"\n          <p style=\"color: #00FF00;\">Your reward: 5 points</p>\n        ","response":null,"trial_type":"html-keyboard-response","trial_index":29,"plugin_version":"2.1.0","time_elapsed":118942},{"rt":null,"stimulus":"<div class=\"fixation\" style=\"font-size: 60px;\">+</div>","response":null,"trial_type":"html-keyboard-response","trial_index":30,"plugin_version":"2.1.0","time_elapsed":120069},{"target_group":"white","target_index":0,"condition_label":"practice","rt":-1,"response":"","correct":false,"choices":"ALL_KEYS","correct_choice":["a"],"trial_duration":2000,"flip_timestamps":[],"response_ends_trial":false,"number_of_apertures":2,"number_of_dots":[100,73],"number_of_sets":1,"coherent_direction":[210,54],"coherence":1,"opposite_coherence":0,"dot_radius":2,"dot_side_length":1,"dot_life":-1,"move_distance":1,"aperture_width":300,"aperture_height":300,"dot_color":["white","black"],"dot_shape":"circle","background_color":"#AAA","RDK_type":3,"aperture_type":2,"reinsert_type":2,"frame_rate":16.573643410852714,"frame_rate_array":[4,18,16,17,16,17,17,16,17,17,17,16,17,17,16,17,16,17,17,17,16,16,18,16,17,16,18,16,16,17,17,17,17,16,17,17,15,17,18,16,16,17,17,17,16,17,17,16,17,17,16,17,16,17,17,16,18,16,16,18,16,17,17,16,17,16,17,16,17,17,16,17,17,17,16,17,17,16,17,17,16,17,16,17,17,16,17,17,17,16,16,17,18,16,16,18,16,16,17,17,17,16,16,18,17,16,16,17,17,17,16,17,17,16,17,16,18,16,17,17,16,16,18,16,16,17,17,16,17],"number_of_frames":129,"aperture_center_x":960,"aperture_center_y":540,"fixation_cross":true,"fixation_cross_width":15,"fixation_cross_height":15,"fixation_cross_color":"#111","fixation_cross_thickness":1,"border":true,"border_thickness":2,"border_color":"transparent","canvas_width":1920,"canvas_height":1080,"trial_type":"rdk","trial_index":31,"plugin_version":"2.0.0","time_elapsed":122223,"target_direction":210,"distractor_direction":54},{"rt":3350,"stimulus":"\n        <div class=\"response-container\">\n          <div class=\"response-instruction\">\n            <p>rotate the bar by using the left and right arrow keys.</p>\n            <p>when you are determined, press the Enter key.</p>\n          </div>\n          <div class=\"response-circle\">\n            <div class=\"response-fixation\"></div>\n            <div id=\"bar\" class=\"rotating-bar\"></div>\n          </div>\n        </div>\n      ","response":"Enter","trial_type":"html-keyboard-response","trial_index":32,"plugin_version":"2.1.0","time_elapsed":125576,"random_initial_angle":295,"response_angle_css":231,"response_angle_rdk":219,"angular_error_target":9,"angular_error_distractor":165,"target_direction":210,"target_group":"white","reward_points":8},{"rt":null,"stimulus":"\n          <p style=\"color: #00FF00;\">Your reward: 8 points</p>\n        ","response":null,"trial_type":"html-keyboard-response","trial_index":33,"plugin_version":"2.1.0","time_elapsed":127584},{"rt":null,"stimulus":"<div class=\"fixation\" style=\"font-size: 60px;\">+</div>","response":null,"trial_type":"html-keyboard-response","trial_index":34,"plugin_version":"2.1.0","time_elapsed":128586},{"target_group":"black","target_index":1,"condition_label":"practice","rt":-1,"response":"","correct":false,"choices":"ALL_KEYS","correct_choice":["a"],"trial_duration":2000,"flip_timestamps":[],"response_ends_trial":false,"number_of_apertures":2,"number_of_dots":[78,100],"number_of_sets":1,"coherent_direction":[34,190],"coherence":1,"opposite_coherence":0,"dot_radius":2,"dot_side_length":1,"dot_life":-1,"move_distance":1,"aperture_width":300,"aperture_height":300,"dot_color":["white","black"],"dot_shape":"circle","background_color":"#AAA","RDK_type":3,"aperture_type":2,"reinsert_type":2,"frame_rate":16.56198347107438,"frame_rate_array":[3,22,13,16,16,17,16,17,17,16,18,16,16,18,16,16,17,17,16,17,17,17,16,17,17,16,17,17,16,17,17,16,16,18,16,17,16,17,17,16,17,17,17,17,16,16,17,17,17,16,17,17,16,17,17,16,17,17,16,17,16,17,17,17,16,17,17,17,16,16,18,15,17,17,17,16,17,17,16,18,16,16,18,16,16,18,15,18,16,17,17,16,17,16,17,17,17,16,16,17,17,17,16,17,17,17,16,17,17,16,17,17,17,16,16,17,17,16,17,17,17],"number_of_frames":121,"aperture_center_x":960,"aperture_center_y":540,"fixation_cross":true,"fixation_cross_width":15,"fixation_cross_height":15,"fixation_cross_color":"#111","fixation_cross_thickness":1,"border":true,"border_thickness":2,"border_color":"transparent","canvas_width":1920,"canvas_height":1080,"trial_type":"rdk","trial_index":35,"plugin_version":"2.0.0","time_elapsed":130600,"target_direction":190,"distractor_direction":34},{"rt":3587,"stimulus":"\n        <div class=\"response-container\">\n          <div class=\"response-instruction\">\n            <p>rotate the bar by using the left and right arrow keys.</p>\n            <p>when you are determined, press the Enter key.</p>\n          </div>\n          <div class=\"response-circle\">\n            <div class=\"response-fixation\"></div>\n            <div id=\"bar\" class=\"rotating-bar\"></div>\n          </div>\n        </div>\n      ","response":"Enter","trial_type":"html-keyboard-response","trial_index":36,"plugin_version":"2.1.0","time_elapsed":134188,"random_initial_angle":127,"response_angle_css":241,"response_angle_rdk":209,"angular_error_target":19,"angular_error_distractor":175,"target_direction":190,"target_group":"black","reward_points":6},{"rt":null,"stimulus":"\n          <p style=\"color: #00FF00;\">Your reward: 6 points</p>\n        ","response":null,"trial_type":"html-keyboard-response","trial_index":37,"plugin_version":"2.1.0","time_elapsed":136198},{"rt":null,"stimulus":"<div class=\"fixation\" style=\"font-size: 60px;\">+</div>","response":null,"trial_type":"html-keyboard-response","trial_index":38,"plugin_version":"2.1.0","time_elapsed":137286},{"target_group":"white","target_index":0,"condition_label":"practice","rt":-1,"response":"","correct":false,"choices":"ALL_KEYS","correct_choice":["a"],"trial_duration":2000,"flip_timestamps":[],"response_ends_trial":false,"number_of_apertures":2,"number_of_dots":[100,63],"number_of_sets":1,"coherent_direction":[169,303],"coherence":1,"opposite_coherence":0,"dot_radius":2,"dot_side_length":1,"dot_life":-1,"move_distance":1,"aperture_width":300,"aperture_height":300,"dot_color":["white","black"],"dot_shape":"circle","background_color":"#AAA","RDK_type":3,"aperture_type":2,"reinsert_type":2,"frame_rate":16.56198347107438,"frame_rate_array":[4,22,11,17,16,17,17,16,17,17,16,17,17,16,17,17,17,16,16,17,17,16,17,17,17,16,17,16,17,17,17,16,17,16,17,17,17,16,18,15,17,17,17,16,17,17,17,16,16,18,16,17,16,17,17,16,17,17,17,16,16,17,17,17,16,17,17,16,17,17,17,16,17,16,17,16,17,16,18,16,17,16,17,17,17,16,17,17,16,16,17,18,16,17,16,17,16,17,17,17,16,16,18,17,16,16,17,17,16,17,17,17,16,17,16,17,17,17,16,17,17],"number_of_frames":121,"aperture_center_x":960,"aperture_center_y":540,"fixation_cross":true,"fixation_cross_width":15,"fixation_cross_height":15,"fixation_cross_color":"#111","fixation_cross_thickness":1,"border":true,"border_thickness":2,"border_color":"transparent","canvas_width":1920,"canvas_height":1080,"trial_type":"rdk","trial_index":39,"plugin_version":"2.0.0","time_elapsed":139295,"target_direction":169,"distractor_direction":303},{"rt":2965,"stimulus":"\n        <div class=\"response-container\">\n          <div class=\"response-instruction\">\n            <p>rotate the bar by using the left and right arrow keys.</p>\n            <p>when you are determined, press the Enter key.</p>\n          </div>\n          <div class=\"response-circle\">\n            <div class=\"response-fixation\"></div>\n            <div id=\"bar\" class=\"rotating-bar\"></div>\n          </div>\n        </div>\n      ","response":"Enter","trial_type":"html-keyboard-response","trial_index":40,"plugin_version":"2.1.0","time_elapsed":142262,"random_initial_angle":324,"response_angle_css":275,"response_angle_rdk":175,"angular_error_target":6,"angular_error_distractor":-128,"target_direction":169,"target_group":"white","reward_points":8},{"rt":null,"stimulus":"\n          <p style=\"color: #00FF00;\">Your reward: 8 points</p>\n        ","response":null,"trial_type":"html-keyboard-response","trial_index":41,"plugin_version":"2.1.0","time_elapsed":144267},{"rt":null,"stimulus":"<div class=\"fixation\" style=\"font-size: 60px;\">+</div>","response":null,"trial_type":"html-keyboard-response","trial_index":42,"plugin_version":"2.1.0","time_elapsed":145272},{"target_group":"white","target_index":0,"condition_label":"practice","rt":-1,"response":"","correct":false,"choices":"ALL_KEYS","correct_choice":["a"],"trial_duration":2000,"flip_timestamps":[],"response_ends_trial":false,"number_of_apertures":2,"number_of_dots":[100,96],"number_of_sets":1,"coherent_direction":[274,109],"coherence":1,"opposite_coherence":0,"dot_radius":2,"dot_side_length":1,"dot_life":-1,"move_distance":1,"aperture_width":300,"aperture_height":300,"dot_color":["white","black"],"dot_shape":"circle","background_color":"#AAA","RDK_type":3,"aperture_type":2,"reinsert_type":2,"frame_rate":16.5327868852459,"frame_rate_array":[2,18,14,17,17,16,17,17,16,17,17,16,17,17,16,17,17,16,17,16,18,17,15,17,17,17,17,16,17,16,17,16,18,16,16,17,17,17,16,17,17,17,16,16,17,17,17,16,17,16,17,17,16,17,17,17,17,16,16,17,16,17,17,17,16,17,17,16,17,17,17,16,17,17,16,17,16,17,17,16,17,17,17,16,17,17,16,17,16,17,17,17,16,17,17,17,16,17,17,16,17,17,16,16,17,17,17,16,17,17,16,17,17,17,16,17,17,16,16,18,16,16],"number_of_frames":122,"aperture_center_x":960,"aperture_center_y":540,"fixation_cross":true,"fixation_cross_width":15,"fixation_cross_height":15,"fixation_cross_color":"#111","fixation_cross_thickness":1,"border":true,"border_thickness":2,"border_color":"transparent","canvas_width":1920,"canvas_height":1080,"trial_type":"rdk","trial_index":43,"plugin_version":"2.0.0","time_elapsed":147294,"target_direction":274,"distractor_direction":109},{"rt":4528,"stimulus":"\n        <div class=\"response-container\">\n          <div class=\"response-instruction\">\n            <p>rotate the bar by using the left and right arrow keys.</p>\n            <p>when you are determined, press the Enter key.</p>\n          </div>\n          <div class=\"response-circle\">\n            <div class=\"response-fixation\"></div>\n            <div id=\"bar\" class=\"rotating-bar\"></div>\n          </div>\n        </div>\n      ","response":"Enter","trial_type":"html-keyboard-response","trial_index":44,"plugin_version":"2.1.0","time_elapsed":151823,"random_initial_angle":235,"response_angle_css":336,"response_angle_rdk":114,"angular_error_target":-160,"angular_error_distractor":5,"target_direction":274,"target_group":"white","reward_points":0},{"rt":null,"stimulus":"\n          <p style=\"color: #FF3333;\">Your reward: 0 points</p>\n        ","response":null,"trial_type":"html-keyboard-response","trial_index":45,"plugin_version":"2.1.0","time_elapsed":153824},{"rt":null,"stimulus":"<div class=\"fixation\" style=\"font-size: 60px;\">+</div>","response":null,"trial_type":"html-keyboard-response","trial_index":46,"plugin_version":"2.1.0","time_elapsed":154832},{"target_group":"black","target_index":1,"condition_label":"practice","rt":-1,"response":"","correct":false,"choices":"ALL_KEYS","correct_choice":["a"],"trial_duration":2000,"flip_timestamps":[],"response_ends_trial":false,"number_of_apertures":2,"number_of_dots":[54,100],"number_of_sets":1,"coherent_direction":[130,260],"coherence":1,"opposite_coherence":0,"dot_radius":2,"dot_side_length":1,"dot_life":-1,"move_distance":1,"aperture_width":300,"aperture_height":300,"dot_color":["white","black"],"dot_shape":"circle","background_color":"#AAA","RDK_type":3,"aperture_type":2,"reinsert_type":2,"frame_rate":16.59504132231405,"frame_rate_array":[8,16,17,17,17,16,17,16,17,17,16,17,17,16,17,17,16,17,17,16,17,17,16,17,16,17,17,17,16,17,17,16,17,16,18,16,16,18,16,17,17,16,16,17,17,17,16,17,17,17,16,16,17,17,17,16,17,17,16,17,17,17,16,16,17,17,17,16,17,16,18,16,16,17,17,17,16,17,17,16,17,17,17,16,17,16,17,16,17,17,17,16,16,18,16,17,17,16,17,17,17,16,16,18,16,16,18,16,17,16,17,17,17,15,17,17,17,16,17,17,17],"number_of_frames":121,"aperture_center_x":960,"aperture_center_y":540,"fixation_cross":true,"fixation_cross_width":15,"fixation_cross_height":15,"fixation_cross_color":"#111","fixation_cross_thickness":1,"border":true,"border_thickness":2,"border_color":"transparent","canvas_width":1920,"canvas_height":1080,"trial_type":"rdk","trial_index":47,"plugin_version":"2.0.0","time_elapsed":156844,"target_direction":260,"distractor_direction":130},{"rt":6566,"stimulus":"\n        <div class=\"response-container\">\n          <div class=\"response-instruction\">\n            <p>rotate the bar by using the left and right arrow keys.</p>\n            <p>when you are determined, press the Enter key.</p>\n          </div>\n          <div class=\"response-circle\">\n            <div class=\"response-fixation\"></div>\n            <div id=\"bar\" class=\"rotating-bar\"></div>\n          </div>\n        </div>\n      ","response":"Enter","trial_type":"html-keyboard-response","trial_index":48,"plugin_version":"2.1.0","time_elapsed":163411,"random_initial_angle":13,"response_angle_css":-177,"response_angle_rdk":267,"angular_error_target":7,"angular_error_distractor":137,"target_direction":260,"target_group":"black","reward_points":8},{"rt":null,"stimulus":"\n          <p style=\"color: #00FF00;\">Your reward: 8 points</p>\n        ","response":null,"trial_type":"html-keyboard-response","trial_index":49,"plugin_version":"2.1.0","time_elapsed":165417},{"rt":null,"stimulus":"<div class=\"fixation\" style=\"font-size: 60px;\">+</div>","response":null,"trial_type":"html-keyboard-response","trial_index":50,"plugin_version":"2.1.0","time_elapsed":166419},{"target_group":"black","target_index":1,"condition_label":"practice","rt":-1,"response":"","correct":false,"choices":"ALL_KEYS","correct_choice":["a"],"trial_duration":2000,"flip_timestamps":[],"response_ends_trial":false,"number_of_apertures":2,"number_of_dots":[62,100],"number_of_sets":1,"coherent_direction":[179,70],"coherence":1,"opposite_coherence":0,"dot_radius":2,"dot_side_length":1,"dot_life":-1,"move_distance":1,"aperture_width":300,"aperture_height":300,"dot_color":["white","black"],"dot_shape":"circle","background_color":"#AAA","RDK_type":3,"aperture_type":2,"reinsert_type":2,"frame_rate":16.570247933884296,"frame_rate_array":[5,17,16,17,17,16,17,17,16,17,17,16,17,17,17,16,17,17,16,17,16,17,16,17,17,16,18,16,16,17,17,17,16,17,17,17,16,16,17,17,17,16,17,16,18,16,16,18,16,16,17,17,16,17,17,17,16,17,16,18,16,17,16,17,17,16,17,17,16,17,17,17,16,17,17,16,16,17,17,17,16,17,16,18,16,16,18,16,16,17,17,17,16,17,17,16,17,17,16,17,17,16,17,16,18,16,16,17,17,16,17,17,16,18,16,16,18,16,17,16,17],"number_of_frames":121,"aperture_center_x":960,"aperture_center_y":540,"fixation_cross":true,"fixation_cross_width":15,"fixation_cross_height":15,"fixation_cross_color":"#111","fixation_cross_thickness":1,"border":true,"border_thickness":2,"border_color":"transparent","canvas_width":1920,"canvas_height":1080,"trial_type":"rdk","trial_index":51,"plugin_version":"2.0.0","time_elapsed":168433,"target_direction":70,"distractor_direction":179},{"rt":3928,"stimulus":"\n        <div class=\"response-container\">\n          <div class=\"response-instruction\">\n            <p>rotate the bar by using the left and right arrow keys.</p>\n            <p>when you are determined, press the Enter key.</p>\n          </div>\n          <div class=\"response-circle\">\n            <div class=\"response-fixation\"></div>\n            <div id=\"bar\" class=\"rotating-bar\"></div>\n          </div>\n        </div>\n      ","response":"Enter","trial_type":"html-keyboard-response","trial_index":52,"plugin_version":"2.1.0","time_elapsed":172364,"random_initial_angle":185,"response_angle_css":396,"response_angle_rdk":54,"angular_error_target":-16,"angular_error_distractor":-125,"target_direction":70,"target_group":"black","reward_points":6},{"rt":null,"stimulus":"\n          <p style=\"color: #00FF00;\">Your reward: 6 points</p>\n        ","response":null,"trial_type":"html-keyboard-response","trial_index":53,"plugin_version":"2.1.0","time_elapsed":174369},{"rt":null,"stimulus":"<div class=\"fixation\" style=\"font-size: 60px;\">+</div>","response":null,"trial_type":"html-keyboard-response","trial_index":54,"plugin_version":"2.1.0","time_elapsed":175384},{"target_group":"black","target_index":1,"condition_label":"practice","rt":-1,"response":"","correct":false,"choices":"ALL_KEYS","correct_choice":["a"],"trial_duration":2000,"flip_timestamps":[],"response_ends_trial":false,"number_of_apertures":2,"number_of_dots":[53,100],"number_of_sets":1,"coherent_direction":[175,20],"coherence":1,"opposite_coherence":0,"dot_radius":2,"dot_side_length":1,"dot_life":-1,"move_distance":1,"aperture_width":300,"aperture_height":300,"dot_color":["white","black"],"dot_shape":"circle","background_color":"#AAA","RDK_type":3,"aperture_type":2,"reinsert_type":2,"frame_rate":16.58677685950413,"frame_rate_array":[8,17,16,16,17,17,17,16,17,17,16,17,17,16,17,17,16,17,17,16,17,17,16,17,17,17,16,17,16,17,16,17,17,17,16,17,17,17,16,16,18,16,17,16,17,17,16,17,17,17,16,17,16,17,17,16,17,16,17,17,17,16,17,17,16,17,17,16,17,17,17,17,15,17,17,18,15,17,17,16,17,17,16,17,17,17,16,17,16,17,17,16,17,16,17,17,17,16,17,17,16,17,16,17,17,17,16,17,17,17,17,16,16,17,17,16,17,16,17,17,16],"number_of_frames":121,"aperture_center_x":960,"aperture_center_y":540,"fixation_cross":true,"fixation_cross_width":15,"fixation_cross_height":15,"fixation_cross_color":"#111","fixation_cross_thickness":1,"border":true,"border_thickness":2,"border_color":"transparent","canvas_width":1920,"canvas_height":1080,"trial_type":"rdk","trial_index":55,"plugin_version":"2.0.0","time_elapsed":177398,"target_direction":20,"distractor_direction":175},{"rt":2495,"stimulus":"\n        <div class=\"response-container\">\n          <div class=\"response-instruction\">\n            <p>rotate the bar by using the left and right arrow keys.</p>\n            <p>when you are determined, press the Enter key.</p>\n          </div>\n          <div class=\"response-circle\">\n            <div class=\"response-fixation\"></div>\n            <div id=\"bar\" class=\"rotating-bar\"></div>\n          </div>\n        </div>\n      ","response":"Enter","trial_type":"html-keyboard-response","trial_index":56,"plugin_version":"2.1.0","time_elapsed":179894,"random_initial_angle":334,"response_angle_css":429,"response_angle_rdk":21,"angular_error_target":1,"angular_error_distractor":-154,"target_direction":20,"target_group":"black","reward_points":9},{"rt":null,"stimulus":"\n          <p style=\"color: #00FF00;\">Your reward: 9 points</p>\n        ","response":null,"trial_type":"html-keyboard-response","trial_index":57,"plugin_version":"2.1.0","time_elapsed":181907},{"rt":null,"stimulus":"<div class=\"fixation\" style=\"font-size: 60px;\">+</div>","response":null,"trial_type":"html-keyboard-response","trial_index":58,"plugin_version":"2.1.0","time_elapsed":182921},{"target_group":"white","target_index":0,"condition_label":"practice","rt":-1,"response":"","correct":false,"choices":"ALL_KEYS","correct_choice":["a"],"trial_duration":2000,"flip_timestamps":[],"response_ends_trial":false,"number_of_apertures":2,"number_of_dots":[100,60],"number_of_sets":1,"coherent_direction":[42,134],"coherence":1,"opposite_coherence":0,"dot_radius":2,"dot_side_length":1,"dot_life":-1,"move_distance":1,"aperture_width":300,"aperture_height":300,"dot_color":["white","black"],"dot_shape":"circle","background_color":"#AAA","RDK_type":3,"aperture_type":2,"reinsert_type":2,"frame_rate":16.56198347107438,"frame_rate_array":[4,22,11,17,17,17,16,17,17,16,17,17,16,16,17,17,17,16,17,17,16,17,16,18,16,17,17,16,17,16,18,16,16,17,16,18,16,17,16,17,17,16,17,16,17,17,17,16,17,17,16,17,16,18,16,17,17,16,16,17,17,16,17,17,17,17,16,16,18,16,17,16,17,16,17,17,17,16,17,17,17,16,17,17,17,16,16,17,17,16,17,16,18,16,16,17,17,17,17,16,17,16,17,17,16,17,17,16,17,17,16,17,17,17,17,15,17,17,17,16,17],"number_of_frames":121,"aperture_center_x":960,"aperture_center_y":540,"fixation_cross":true,"fixation_cross_width":15,"fixation_cross_height":15,"fixation_cross_color":"#111","fixation_cross_thickness":1,"border":true,"border_thickness":2,"border_color":"transparent","canvas_width":1920,"canvas_height":1080,"trial_type":"rdk","trial_index":59,"plugin_version":"2.0.0","time_elapsed":184933,"target_direction":42,"distractor_direction":134},{"rt":4014,"stimulus":"\n        <div class=\"response-container\">\n          <div class=\"response-instruction\">\n            <p>rotate the bar by using the left and right arrow keys.</p>\n            <p>when you are determined, press the Enter key.</p>\n          </div>\n          <div class=\"response-circle\">\n            <div class=\"response-fixation\"></div>\n            <div id=\"bar\" class=\"rotating-bar\"></div>\n          </div>\n        </div>\n      ","response":"Enter","trial_type":"html-keyboard-response","trial_index":60,"plugin_version":"2.1.0","time_elapsed":188949,"random_initial_angle":257,"response_angle_css":408,"response_angle_rdk":42,"angular_error_target":0,"angular_error_distractor":-92,"target_direction":42,"target_group":"white","reward_points":10},{"rt":null,"stimulus":"\n          <p style=\"color: #00FF00;\">Your reward: 10 points</p>\n        ","response":null,"trial_type":"html-keyboard-response","trial_index":61,"plugin_version":"2.1.0","time_elapsed":190952},{"rt":null,"stimulus":"<div class=\"fixation\" style=\"font-size: 60px;\">+</div>","response":null,"trial_type":"html-keyboard-response","trial_index":62,"plugin_version":"2.1.0","time_elapsed":191953},{"target_group":"white","target_index":0,"condition_label":"practice","rt":-1,"response":"","correct":false,"choices":"ALL_KEYS","correct_choice":["a"],"trial_duration":2000,"flip_timestamps":[],"response_ends_trial":false,"number_of_apertures":2,"number_of_dots":[100,84],"number_of_sets":1,"coherent_direction":[253,92],"coherence":1,"opposite_coherence":0,"dot_radius":2,"dot_side_length":1,"dot_life":-1,"move_distance":1,"aperture_width":300,"aperture_height":300,"dot_color":["white","black"],"dot_shape":"circle","background_color":"#AAA","RDK_type":3,"aperture_type":2,"reinsert_type":2,"frame_rate":16.683333333333334,"frame_rate_array":[3,37,15,15,16,16,17,17,17,16,16,17,18,16,16,18,16,16,17,16,17,17,17,16,17,17,17,16,18,15,17,16,18,16,17,16,17,17,16,17,17,17,16,16,18,16,16,17,17,16,18,16,17,16,17,17,16,17,17,16,17,17,16,17,17,16,17,17,17,16,16,18,16,17,16,18,15,17,17,17,16,17,17,16,18,16,16,17,17,17,16,17,16,17,17,17,16,17,17,16,17,17,16,16,18,16,17,16,17,17,16,17,17,16,17,17,17,16,17,16],"number_of_frames":120,"aperture_center_x":960,"aperture_center_y":540,"fixation_cross":true,"fixation_cross_width":15,"fixation_cross_height":15,"fixation_cross_color":"#111","fixation_cross_thickness":1,"border":true,"border_thickness":2,"border_color":"transparent","canvas_width":1920,"canvas_height":1080,"trial_type":"rdk","trial_index":63,"plugin_version":"2.0.0","time_elapsed":193968,"target_direction":253,"distractor_direction":92},{"rt":4559,"stimulus":"\n        <div class=\"response-container\">\n          <div class=\"response-instruction\">\n            <p>rotate the bar by using the left and right arrow keys.</p>\n            <p>when you are determined, press the Enter key.</p>\n          </div>\n          <div class=\"response-circle\">\n            <div class=\"response-fixation\"></div>\n            <div id=\"bar\" class=\"rotating-bar\"></div>\n          </div>\n        </div>\n      ","response":"Enter","trial_type":"html-keyboard-response","trial_index":64,"plugin_version":"2.1.0","time_elapsed":198529,"random_initial_angle":344,"response_angle_css":559,"response_angle_rdk":251,"angular_error_target":-2,"angular_error_distractor":159,"target_direction":253,"target_group":"white","reward_points":9},{"rt":null,"stimulus":"\n          <p style=\"color: #00FF00;\">Your reward: 9 points</p>\n        ","response":null,"trial_type":"html-keyboard-response","trial_index":65,"plugin_version":"2.1.0","time_elapsed":200531},{"rt":2336,"stimulus":"\n        <div class=\"instructions-container\">\n          <h2>End of Practice</h2>\n          <p>You have completed the practice trials.</p>\n          <p>Press <strong>Enter</strong> key to begin the main experiment.</p>\n        </div>\n      ","response":"Enter","trial_type":"html-keyboard-response","trial_index":66,"plugin_version":"2.1.0","time_elapsed":202868},{"rt":null,"stimulus":"<div class=\"fixation\" style=\"font-size: 60px;\">+</div>","response":null,"trial_type":"html-keyboard-response","trial_index":67,"plugin_version":"2.1.0","time_elapsed":203876},{"target_group":"white","condition_label":"W_H_vs_B_L_rep20","target_direction":12,"distractor_direction":266,"session_rotation":352,"rt":-1,"response":"","correct":false,"choices":"ALL_KEYS","correct_choice":["a"],"trial_duration":2000,"flip_timestamps":[],"response_ends_trial":false,"number_of_apertures":200,"number_of_dots":[1,1,1,1,1,1,1,1,1,1,1,1,1,1,1,1,1,1,1,1,1,1,1,1,1,1,1,1,1,1,1,1,1,1,1,1,1,1,1,1,1,1,1,1,1,1,1,1,1,1,1,1,1,1,1,1,1,1,1,1,1,1,1,1,1,1,1,1,1,1,1,1,1,1,1,1,1,1,1,1,1,1,1,1,1,1,1,1,1,1,1,1,1,1,1,1,1,1,1,1,1,1,1,1,1,1,1,1,1,1,1,1,1,1,1,1,1,1,1,1,1,1,1,1,1,1,1,1,1,1,1,1,1,1,1,1,1,1,1,1,1,1,1,1,1,1,1,1,1,1,1,1,1,1,1,1,1,1,1,1,1,1,1,1,1,1,1,1,1,1,1,1,1,1,1,1,1,1,1,1,1,1,1,1,1,1,1,1,1,1,1,1,1,1,1,1,1,1,1,1],"number_of_sets":1,"coherent_direction":[12,12,266,266,266,12,12,12,12,266,266,266,266,266,12,12,266,266,12,266,12,266,266,12,266,12,12,266,266,12,12,12,12,266,12,12,12,266,266,12,266,266,266,266,12,12,12,12,266,266,266,12,266,266,266,12,266,12,12,266,12,266,12,266,12,266,266,12,266,12,12,266,12,12,12,266,266,12,12,266,12,12,266,266,266,266,266,266,266,12,12,12,266,266,12,12,12,266,12,266,12,12,266,12,12,266,266,12,266,12,266,12,266,266,266,266,12,12,12,12,266,12,12,12,266,12,266,266,266,12,12,12,266,12,12,266,12,266,266,266,12,266,266,12,266,12,12,266,266,12,12,266,266,266,266,12,266,12,12,266,266,266,266,266,266,266,12,266,12,266,266,12,266,12,266,266,12,266,12,12,266,12,12,12,12,266,12,12,266,12,12,12,12,266,266,12,12,12,12,266],"coherence":1,"opposite_coherence":0,"dot_radius":2,"dot_side_length":1,"dot_life":-1,"move_distance":1,"aperture_width":300,"aperture_height":300,"dot_color":["white","white","black","black","black","white","white","white","white","black","black","black","black","black","white","white","black","black","white","black","white","black","black","white","black","white","white","black","black","white","white","white","white","black","white","white","white","black","black","white","black","black","black","black","white","white","white","white","black","black","black","white","black","black","black","white","black","white","white","black","white","black","white","black","white","black","black","white","black","white","white","black","white","white","white","black","black","white","white","black","white","white","black","black","black","black","black","black","black","white","white","white","black","black","white","white","white","black","white","black","white","white","black","white","white","black","black","white","black","white","black","white","black","black","black","black","white","white","white","white","black","white","white","white","black","white","black","black","black","white","white","white","black","white","white","black","white","black","black","black","white","black","black","white","black","white","white","black","black","white","white","black","black","black","black","white","black","white","white","black","black","black","black","black","black","black","white","black","white","black","black","white","black","white","black","black","white","black","white","white","black","white","white","white","white","black","white","white","black","white","white","white","white","black","black","white","white","white","white","black"],"dot_shape":"circle","background_color":"#AAA","RDK_type":3,"aperture_type":2,"reinsert_type":2,"frame_rate":16.65,"frame_rate_array":[14,17,17,16,16,18,17,16,16,17,17,16,17,17,17,16,17,17,16,17,17,16,17,17,16,18,16,16,17,17,17,16,16,17,17,17,16,17,16,17,16,18,16,17,16,17,17,17,16,16,17,17,17,17,17,15,18,16,17,17,16,17,16,16,17,18,16,16,17,18,16,17,16,17,16,17,17,16,17,16,17,17,16,18,16,17,17,16,17,17,16,17,17,17,16,17,16,17,16,18,16,16,17,17,17,16,17,17,17,17,15,18,16,17,16,16,18,16,17,17],"number_of_frames":120,"aperture_center_x":960,"aperture_center_y":540,"fixation_cross":true,"fixation_cross_width":15,"fixation_cross_height":15,"fixation_cross_color":"#111","fixation_cross_thickness":1,"border":true,"border_thickness":2,"border_color":"transparent","canvas_width":1920,"canvas_height":1080,"trial_type":"rdk","trial_index":68,"plugin_version":"2.0.0","time_elapsed":205879},{"rt":3572,"stimulus":"\n        <div class=\"response-container\">\n          <div class=\"response-instruction\">\n            <p>rotate the bar by using the left and right arrow keys.</p>\n            <p>when you are determined, press the Enter key.</p>\n          </div>\n          <div class=\"response-circle\">\n            <div class=\"response-fixation\"></div>\n            <div id=\"bar\" class=\"rotating-bar\"></div>\n          </div>\n        </div>\n      ","response":"Enter","trial_type":"html-keyboard-response","trial_index":69,"plugin_version":"2.1.0","time_elapsed":209453,"random_initial_angle":28,"response_angle_css":193,"response_angle_rdk":257,"angular_error_target":-115,"angular_error_distractor":-9,"target_direction":12,"target_group":"white","reward_points":0},{"rt":null,"stimulus":"\n          <p style=\"color: #FF3333;\">Your reward: 0 points</p>\n        ","response":null,"trial_type":"html-keyboard-response","trial_index":70,"plugin_version":"2.1.0","time_elapsed":211463},{"rt":null,"stimulus":"<div class=\"fixation\" style=\"font-size: 60px;\">+</div>","response":null,"trial_type":"html-keyboard-response","trial_index":71,"plugin_version":"2.1.0","time_elapsed":212478},{"target_group":"black","condition_label":"B_H_vs_W_L_rep15","target_direction":90,"distractor_direction":188,"session_rotation":352,"rt":1754,"response":"ArrowLeft","correct":false,"choices":"ALL_KEYS","correct_choice":["a"],"trial_duration":2000,"flip_timestamps":[],"response_ends_trial":false,"number_of_apertures":200,"number_of_dots":[1,1,1,1,1,1,1,1,1,1,1,1,1,1,1,1,1,1,1,1,1,1,1,1,1,1,1,1,1,1,1,1,1,1,1,1,1,1,1,1,1,1,1,1,1,1,1,1,1,1,1,1,1,1,1,1,1,1,1,1,1,1,1,1,1,1,1,1,1,1,1,1,1,1,1,1,1,1,1,1,1,1,1,1,1,1,1,1,1,1,1,1,1,1,1,1,1,1,1,1,1,1,1,1,1,1,1,1,1,1,1,1,1,1,1,1,1,1,1,1,1,1,1,1,1,1,1,1,1,1,1,1,1,1,1,1,1,1,1,1,1,1,1,1,1,1,1,1,1,1,1,1,1,1,1,1,1,1,1,1,1,1,1,1,1,1,1,1,1,1,1,1,1,1,1,1,1,1,1,1,1,1,1,1,1,1,1,1,1,1,1,1,1,1,1,1,1,1,1,1],"number_of_sets":1,"coherent_direction":[90,90,90,188,90,90,188,188,90,90,90,188,188,188,188,90,188,188,90,90,90,90,188,188,90,90,188,90,90,188,188,90,188,188,90,90,90,188,90,90,188,188,188,188,188,90,188,188,90,188,188,90,90,188,188,90,90,188,188,90,188,188,90,188,90,188,90,188,188,188,188,90,188,188,90,188,90,188,188,90,90,188,188,90,188,188,188,188,90,188,188,188,188,90,90,188,188,90,90,90,188,90,90,90,90,90,90,188,90,188,188,188,188,188,188,188,90,90,90,188,188,188,188,90,188,90,188,90,188,188,90,90,90,90,90,188,188,90,90,90,90,90,90,188,188,90,188,90,90,188,188,90,188,90,90,90,90,90,188,188,188,188,90,188,90,188,90,90,188,188,90,188,188,90,188,188,188,90,90,90,90,188,90,188,90,90,90,90,188,188,90,188,188,90,90,90,188,90,90,90],"coherence":1,"opposite_coherence":0,"dot_radius":2,"dot_side_length":1,"dot_life":-1,"move_distance":1,"aperture_width":300,"aperture_height":300,"dot_color":["black","black","black","white","black","black","white","white","black","black","black","white","white","white","white","black","white","white","black","black","black","black","white","white","black","black","white","black","black","white","white","black","white","white","black","black","black","white","black","black","white","white","white","white","white","black","white","white","black","white","white","black","black","white","white","black","black","white","white","black","white","white","black","white","black","white","black","white","white","white","white","black","white","white","black","white","black","white","white","black","black","white","white","black","white","white","white","white","black","white","white","white","white","black","black","white","white","black","black","black","white","black","black","black","black","black","black","white","black","white","white","white","white","white","white","white","black","black","black","white","white","white","white","black","white","black","white","black","white","white","black","black","black","black","black","white","white","black","black","black","black","black","black","white","white","black","white","black","black","white","white","black","white","black","black","black","black","black","white","white","white","white","black","white","black","white","black","black","white","white","black","white","white","black","white","white","white","black","black","black","black","white","black","white","black","black","black","black","white","white","black","white","white","black","black","black","white","black","black","black"],"dot_shape":"circle","background_color":"#AAA","RDK_type":3,"aperture_type":2,"reinsert_type":2,"frame_rate":16.633333333333333,"frame_rate_array":[12,17,17,16,17,17,16,17,16,18,16,17,17,15,18,16,17,16,17,17,17,16,17,17,16,18,16,17,16,16,18,16,17,16,17,17,17,16,17,16,17,17,16,16,17,17,17,17,16,17,17,16,17,17,16,17,17,17,16,17,16,16,18,16,17,17,17,16,17,17,16,16,17,17,17,16,17,16,17,17,16,17,17,17,16,17,16,17,17,17,16,16,18,17,16,17,17,16,17,16,17,16,18,16,17,16,17,17,16,17,17,16,17,17,16,17,17,16,17,17],"number_of_frames":120,"aperture_center_x":960,"aperture_center_y":540,"fixation_cross":true,"fixation_cross_width":15,"fixation_cross_height":15,"fixation_cross_color":"#111","fixation_cross_thickness":1,"border":true,"border_thickness":2,"border_color":"transparent","canvas_width":1920,"canvas_height":1080,"trial_type":"rdk","trial_index":72,"plugin_version":"2.0.0","time_elapsed":214483},{"rt":3234,"stimulus":"\n        <div class=\"response-container\">\n          <div class=\"response-instruction\">\n            <p>rotate the bar by using the left and right arrow keys.</p>\n            <p>when you are determined, press the Enter key.</p>\n          </div>\n          <div class=\"response-circle\">\n            <div class=\"response-fixation\"></div>\n            <div id=\"bar\" class=\"rotating-bar\"></div>\n          </div>\n        </div>\n      ","response":"Enter","trial_type":"html-keyboard-response","trial_index":73,"plugin_version":"2.1.0","time_elapsed":217718,"random_initial_angle":73,"response_angle_css":5,"response_angle_rdk":85,"angular_error_target":-5,"angular_error_distractor":-103,"target_direction":90,"target_group":"black","reward_points":9},{"rt":null,"stimulus":"\n          <p style=\"color: #00FF00;\">Your reward: 9 points</p>\n        ","response":null,"trial_type":"html-keyboard-response","trial_index":74,"plugin_version":"2.1.0","time_elapsed":219732},{"rt":null,"stimulus":"<div class=\"fixation\" style=\"font-size: 60px;\">+</div>","response":null,"trial_type":"html-keyboard-response","trial_index":75,"plugin_version":"2.1.0","time_elapsed":220735},{"target_group":"white","condition_label":"W_H_vs_B_L_rep9","target_direction":14,"distractor_direction":280,"session_rotation":352,"rt":-1,"response":"","correct":false,"choices":"ALL_KEYS","correct_choice":["a"],"trial_duration":2000,"flip_timestamps":[],"response_ends_trial":false,"number_of_apertures":200,"number_of_dots":[1,1,1,1,1,1,1,1,1,1,1,1,1,1,1,1,1,1,1,1,1,1,1,1,1,1,1,1,1,1,1,1,1,1,1,1,1,1,1,1,1,1,1,1,1,1,1,1,1,1,1,1,1,1,1,1,1,1,1,1,1,1,1,1,1,1,1,1,1,1,1,1,1,1,1,1,1,1,1,1,1,1,1,1,1,1,1,1,1,1,1,1,1,1,1,1,1,1,1,1,1,1,1,1,1,1,1,1,1,1,1,1,1,1,1,1,1,1,1,1,1,1,1,1,1,1,1,1,1,1,1,1,1,1,1,1,1,1,1,1,1,1,1,1,1,1,1,1,1,1,1,1,1,1,1,1,1,1,1,1,1,1,1,1,1,1,1,1,1,1,1,1,1,1,1,1,1,1,1,1,1,1,1,1,1,1,1,1,1,1,1,1,1,1,1,1,1,1,1,1],"number_of_sets":1,"coherent_direction":[280,14,280,14,14,14,280,14,280,280,280,14,14,14,280,280,14,280,14,14,280,280,14,14,280,14,14,14,280,14,14,14,280,280,14,14,14,280,280,280,280,14,14,14,280,14,280,280,14,280,14,280,280,280,14,14,280,14,14,280,280,280,280,280,280,280,14,280,280,14,14,280,14,14,280,14,280,280,14,280,280,14,280,280,280,280,14,14,14,14,14,14,14,280,280,14,280,14,280,14,280,280,280,280,14,280,14,280,280,14,280,14,14,280,14,14,14,14,280,280,280,280,280,14,280,280,14,280,14,14,280,14,14,14,14,280,14,280,14,14,14,280,280,280,280,280,14,14,14,14,14,14,280,280,280,280,14,14,14,14,280,14,280,280,14,280,14,280,280,280,14,280,280,14,280,280,280,14,14,14,14,280,14,14,14,280,280,14,280,14,280,280,14,280,280,14,280,14,14,14],"coherence":1,"opposite_coherence":0,"dot_radius":2,"dot_side_length":1,"dot_life":-1,"move_distance":1,"aperture_width":300,"aperture_height":300,"dot_color":["black","white","black","white","white","white","black","white","black","black","black","white","white","white","black","black","white","black","white","white","black","black","white","white","black","white","white","white","black","white","white","white","black","black","white","white","white","black","black","black","black","white","white","white","black","white","black","black","white","black","white","black","black","black","white","white","black","white","white","black","black","black","black","black","black","black","white","black","black","white","white","black","white","white","black","white","black","black","white","black","black","white","black","black","black","black","white","white","white","white","white","white","white","black","black","white","black","white","black","white","black","black","black","black","white","black","white","black","black","white","black","white","white","black","white","white","white","white","black","black","black","black","black","white","black","black","white","black","white","white","black","white","white","white","white","black","white","black","white","white","white","black","black","black","black","black","white","white","white","white","white","white","black","black","black","black","white","white","white","white","black","white","black","black","white","black","white","black","black","black","white","black","black","white","black","black","black","white","white","white","white","black","white","white","white","black","black","white","black","white","black","black","white","black","black","white","black","white","white","white"],"dot_shape":"circle","background_color":"#AAA","RDK_type":3,"aperture_type":2,"reinsert_type":2,"frame_rate":16.575,"frame_rate_array":[7,20,12,17,17,17,16,17,17,17,16,17,17,16,17,17,16,17,16,17,17,16,17,17,16,16,17,17,16,18,17,16,16,17,17,16,17,17,17,17,15,17,17,17,17,17,16,17,16,17,16,17,17,17,16,18,16,16,18,16,17,16,16,17,17,16,18,16,17,17,16,17,16,17,17,16,17,17,16,17,17,16,17,16,18,16,16,18,16,16,18,16,17,16,17,17,17,17,16,16,17,17,16,18,16,16,17,17,17,16,17,17,16,17,16,17,17,16,17,16],"number_of_frames":120,"aperture_center_x":960,"aperture_center_y":540,"fixation_cross":true,"fixation_cross_width":15,"fixation_cross_height":15,"fixation_cross_color":"#111","fixation_cross_thickness":1,"border":true,"border_thickness":2,"border_color":"transparent","canvas_width":1920,"canvas_height":1080,"trial_type":"rdk","trial_index":76,"plugin_version":"2.0.0","time_elapsed":222741},{"rt":3113,"stimulus":"\n        <div class=\"response-container\">\n          <div class=\"response-instruction\">\n            <p>rotate the bar by using the left and right arrow keys.</p>\n            <p>when you are determined, press the Enter key.</p>\n          </div>\n          <div class=\"response-circle\">\n            <div class=\"response-fixation\"></div>\n            <div id=\"bar\" class=\"rotating-bar\"></div>\n          </div>\n        </div>\n      ","response":"Enter","trial_type":"html-keyboard-response","trial_index":77,"plugin_version":"2.1.0","time_elapsed":225856,"random_initial_angle":116,"response_angle_css":174,"response_angle_rdk":276,"angular_error_target":-98,"angular_error_distractor":-4,"target_direction":14,"target_group":"white","reward_points":0},{"rt":null,"stimulus":"\n          <p style=\"color: #FF3333;\">Your reward: 0 points</p>\n        ","response":null,"trial_type":"html-keyboard-response","trial_index":78,"plugin_version":"2.1.0","time_elapsed":227870},{"rt":null,"stimulus":"<div class=\"fixation\" style=\"font-size: 60px;\">+</div>","response":null,"trial_type":"html-keyboard-response","trial_index":79,"plugin_version":"2.1.0","time_elapsed":228883},{"target_group":"white","condition_label":"W_H_vs_B_L_rep8","target_direction":26,"distractor_direction":271,"session_rotation":352,"rt":-1,"response":"","correct":false,"choices":"ALL_KEYS","correct_choice":["a"],"trial_duration":2000,"flip_timestamps":[],"response_ends_trial":false,"number_of_apertures":200,"number_of_dots":[1,1,1,1,1,1,1,1,1,1,1,1,1,1,1,1,1,1,1,1,1,1,1,1,1,1,1,1,1,1,1,1,1,1,1,1,1,1,1,1,1,1,1,1,1,1,1,1,1,1,1,1,1,1,1,1,1,1,1,1,1,1,1,1,1,1,1,1,1,1,1,1,1,1,1,1,1,1,1,1,1,1,1,1,1,1,1,1,1,1,1,1,1,1,1,1,1,1,1,1,1,1,1,1,1,1,1,1,1,1,1,1,1,1,1,1,1,1,1,1,1,1,1,1,1,1,1,1,1,1,1,1,1,1,1,1,1,1,1,1,1,1,1,1,1,1,1,1,1,1,1,1,1,1,1,1,1,1,1,1,1,1,1,1,1,1,1,1,1,1,1,1,1,1,1,1,1,1,1,1,1,1,1,1,1,1,1,1,1,1,1,1,1,1,1,1,1,1,1,1],"number_of_sets":1,"coherent_direction":[271,26,26,271,26,26,26,271,271,271,271,26,26,26,271,271,26,26,271,271,271,271,26,271,271,26,26,26,26,26,26,26,271,271,26,271,26,271,26,271,26,26,26,271,271,271,271,26,26,271,271,26,26,271,26,26,26,26,26,26,271,26,271,271,271,26,26,271,271,26,271,271,26,26,26,271,271,26,26,271,26,271,271,26,271,271,26,26,271,271,26,271,271,26,271,271,271,26,26,26,271,26,271,271,26,271,271,26,26,271,26,271,271,26,26,26,271,26,271,26,26,26,26,271,26,26,271,271,26,271,26,271,26,26,271,26,26,26,26,271,26,271,271,26,271,271,26,26,26,271,271,26,26,271,271,271,26,271,26,271,26,26,26,26,26,271,26,271,26,271,271,271,271,271,26,271,271,26,271,271,271,271,26,26,271,271,271,26,26,271,26,271,271,271,271,26,271,271,26,271],"coherence":1,"opposite_coherence":0,"dot_radius":2,"dot_side_length":1,"dot_life":-1,"move_distance":1,"aperture_width":300,"aperture_height":300,"dot_color":["black","white","white","black","white","white","white","black","black","black","black","white","white","white","black","black","white","white","black","black","black","black","white","black","black","white","white","white","white","white","white","white","black","black","white","black","white","black","white","black","white","white","white","black","black","black","black","white","white","black","black","white","white","black","white","white","white","white","white","white","black","white","black","black","black","white","white","black","black","white","black","black","white","white","white","black","black","white","white","black","white","black","black","white","black","black","white","white","black","black","white","black","black","white","black","black","black","white","white","white","black","white","black","black","white","black","black","white","white","black","white","black","black","white","white","white","black","white","black","white","white","white","white","black","white","white","black","black","white","black","white","black","white","white","black","white","white","white","white","black","white","black","black","white","black","black","white","white","white","black","black","white","white","black","black","black","white","black","white","black","white","white","white","white","white","black","white","black","white","black","black","black","black","black","white","black","black","white","black","black","black","black","white","white","black","black","black","white","white","black","white","black","black","black","black","white","black","black","white","black"],"dot_shape":"circle","background_color":"#AAA","RDK_type":3,"aperture_type":2,"reinsert_type":2,"frame_rate":16.59504132231405,"frame_rate_array":[8,17,16,17,16,17,18,16,17,16,17,17,17,17,15,17,17,17,16,17,16,17,17,17,17,15,18,16,17,17,17,16,16,17,17,18,15,17,17,16,17,17,17,16,17,16,17,17,17,16,17,17,16,16,18,15,17,17,17,17,16,17,16,17,17,17,16,16,18,16,17,16,17,16,17,17,16,18,16,16,18,16,17,16,18,15,17,18,16,17,16,17,16,17,17,17,16,16,18,16,17,17,16,16,18,17,16,17,16,16,17,18,16,16,17,17,17,16,17,17,16],"number_of_frames":121,"aperture_center_x":960,"aperture_center_y":540,"fixation_cross":true,"fixation_cross_width":15,"fixation_cross_height":15,"fixation_cross_color":"#111","fixation_cross_thickness":1,"border":true,"border_thickness":2,"border_color":"transparent","canvas_width":1920,"canvas_height":1080,"trial_type":"rdk","trial_index":80,"plugin_version":"2.0.0","time_elapsed":230894},{"rt":2726,"stimulus":"\n        <div class=\"response-container\">\n          <div class=\"response-instruction\">\n            <p>rotate the bar by using the left and right arrow keys.</p>\n            <p>when you are determined, press the Enter key.</p>\n          </div>\n          <div class=\"response-circle\">\n            <div class=\"response-fixation\"></div>\n            <div id=\"bar\" class=\"rotating-bar\"></div>\n          </div>\n        </div>\n      ","response":"Enter","trial_type":"html-keyboard-response","trial_index":81,"plugin_version":"2.1.0","time_elapsed":233621,"random_initial_angle":77,"response_angle_css":184,"response_angle_rdk":266,"angular_error_target":-120,"angular_error_distractor":-5,"target_direction":26,"target_group":"white","reward_points":0},{"rt":null,"stimulus":"\n          <p style=\"color: #FF3333;\">Your reward: 0 points</p>\n        ","response":null,"trial_type":"html-keyboard-response","trial_index":82,"plugin_version":"2.1.0","time_elapsed":235633},{"rt":null,"stimulus":"<div class=\"fixation\" style=\"font-size: 60px;\">+</div>","response":null,"trial_type":"html-keyboard-response","trial_index":83,"plugin_version":"2.1.0","time_elapsed":236647},{"target_group":"black","condition_label":"B_H_vs_W_L_rep7","target_direction":89,"distractor_direction":189,"session_rotation":352,"rt":-1,"response":"","correct":false,"choices":"ALL_KEYS","correct_choice":["a"],"trial_duration":2000,"flip_timestamps":[],"response_ends_trial":false,"number_of_apertures":200,"number_of_dots":[1,1,1,1,1,1,1,1,1,1,1,1,1,1,1,1,1,1,1,1,1,1,1,1,1,1,1,1,1,1,1,1,1,1,1,1,1,1,1,1,1,1,1,1,1,1,1,1,1,1,1,1,1,1,1,1,1,1,1,1,1,1,1,1,1,1,1,1,1,1,1,1,1,1,1,1,1,1,1,1,1,1,1,1,1,1,1,1,1,1,1,1,1,1,1,1,1,1,1,1,1,1,1,1,1,1,1,1,1,1,1,1,1,1,1,1,1,1,1,1,1,1,1,1,1,1,1,1,1,1,1,1,1,1,1,1,1,1,1,1,1,1,1,1,1,1,1,1,1,1,1,1,1,1,1,1,1,1,1,1,1,1,1,1,1,1,1,1,1,1,1,1,1,1,1,1,1,1,1,1,1,1,1,1,1,1,1,1,1,1,1,1,1,1,1,1,1,1,1,1],"number_of_sets":1,"coherent_direction":[89,89,189,89,189,189,89,89,89,189,189,89,189,189,89,189,89,189,189,89,89,189,89,189,189,189,89,89,89,89,89,189,89,89,89,89,189,89,89,89,189,189,189,89,189,89,89,89,189,189,89,189,89,189,189,189,189,189,189,89,89,89,89,189,189,189,189,189,89,89,89,189,189,89,189,189,89,189,189,89,89,189,189,89,89,89,89,189,89,89,189,89,189,89,189,189,189,89,89,189,189,89,189,189,189,189,89,189,189,89,89,189,89,89,89,89,89,189,189,189,189,189,89,189,89,89,189,189,189,89,89,189,189,89,189,189,189,89,89,89,89,189,89,89,89,189,189,189,89,89,189,89,189,89,89,189,189,89,89,189,189,89,89,189,89,189,89,189,89,89,189,189,189,189,89,89,89,189,189,189,189,89,189,189,189,89,89,189,89,89,89,189,189,89,189,189,89,89,89,89],"coherence":1,"opposite_coherence":0,"dot_radius":2,"dot_side_length":1,"dot_life":-1,"move_distance":1,"aperture_width":300,"aperture_height":300,"dot_color":["black","black","white","black","white","white","black","black","black","white","white","black","white","white","black","white","black","white","white","black","black","white","black","white","white","white","black","black","black","black","black","white","black","black","black","black","white","black","black","black","white","white","white","black","white","black","black","black","white","white","black","white","black","white","white","white","white","white","white","black","black","black","black","white","white","white","white","white","black","black","black","white","white","black","white","white","black","white","white","black","black","white","white","black","black","black","black","white","black","black","white","black","white","black","white","white","white","black","black","white","white","black","white","white","white","white","black","white","white","black","black","white","black","black","black","black","black","white","white","white","white","white","black","white","black","black","white","white","white","black","black","white","white","black","white","white","white","black","black","black","black","white","black","black","black","white","white","white","black","black","white","black","white","black","black","white","white","black","black","white","white","black","black","white","black","white","black","white","black","black","white","white","white","white","black","black","black","white","white","white","white","black","white","white","white","black","black","white","black","black","black","white","white","black","white","white","black","black","black","black"],"dot_shape":"circle","background_color":"#AAA","RDK_type":3,"aperture_type":2,"reinsert_type":2,"frame_rate":16.614754098360656,"frame_rate_array":[10,18,15,17,17,16,16,18,17,16,17,17,16,17,17,16,17,16,17,17,17,16,16,18,16,16,18,16,16,17,17,17,17,16,16,17,17,17,16,17,17,17,16,17,16,17,16,17,17,17,16,17,17,17,15,18,17,16,17,16,17,17,16,16,18,17,16,17,16,17,17,16,17,17,17,16,17,17,16,17,17,16,17,17,16,16,17,17,17,17,16,17,16,17,17,16,18,16,16,17,17,16,17,17,17,17,16,16,18,16,17,16,17,16,16,18,17,16,17,16,17,17],"number_of_frames":122,"aperture_center_x":960,"aperture_center_y":540,"fixation_cross":true,"fixation_cross_width":15,"fixation_cross_height":15,"fixation_cross_color":"#111","fixation_cross_thickness":1,"border":true,"border_thickness":2,"border_color":"transparent","canvas_width":1920,"canvas_height":1080,"trial_type":"rdk","trial_index":84,"plugin_version":"2.0.0","time_elapsed":238678},{"rt":3293,"stimulus":"\n        <div class=\"response-container\">\n          <div class=\"response-instruction\">\n            <p>rotate the bar by using the left and right arrow keys.</p>\n            <p>when you are determined, press the Enter key.</p>\n          </div>\n          <div class=\"response-circle\">\n            <div class=\"response-fixation\"></div>\n            <div id=\"bar\" class=\"rotating-bar\"></div>\n          </div>\n        </div>\n      ","response":"Enter","trial_type":"html-keyboard-response","trial_index":85,"plugin_version":"2.1.0","time_elapsed":241971,"random_initial_angle":146,"response_angle_css":245,"response_angle_rdk":205,"angular_error_target":116,"angular_error_distractor":16,"target_direction":89,"target_group":"black","reward_points":0},{"rt":null,"stimulus":"\n          <p style=\"color: #FF3333;\">Your reward: 0 points</p>\n        ","response":null,"trial_type":"html-keyboard-response","trial_index":86,"plugin_version":"2.1.0","time_elapsed":243974},{"rt":null,"stimulus":"<div class=\"fixation\" style=\"font-size: 60px;\">+</div>","response":null,"trial_type":"html-keyboard-response","trial_index":87,"plugin_version":"2.1.0","time_elapsed":244976},{"target_group":"black","condition_label":"B_H_vs_W_L_rep22","target_direction":111,"distractor_direction":216,"session_rotation":352,"rt":-1,"response":"","correct":false,"choices":"ALL_KEYS","correct_choice":["a"],"trial_duration":2000,"flip_timestamps":[],"response_ends_trial":false,"number_of_apertures":200,"number_of_dots":[1,1,1,1,1,1,1,1,1,1,1,1,1,1,1,1,1,1,1,1,1,1,1,1,1,1,1,1,1,1,1,1,1,1,1,1,1,1,1,1,1,1,1,1,1,1,1,1,1,1,1,1,1,1,1,1,1,1,1,1,1,1,1,1,1,1,1,1,1,1,1,1,1,1,1,1,1,1,1,1,1,1,1,1,1,1,1,1,1,1,1,1,1,1,1,1,1,1,1,1,1,1,1,1,1,1,1,1,1,1,1,1,1,1,1,1,1,1,1,1,1,1,1,1,1,1,1,1,1,1,1,1,1,1,1,1,1,1,1,1,1,1,1,1,1,1,1,1,1,1,1,1,1,1,1,1,1,1,1,1,1,1,1,1,1,1,1,1,1,1,1,1,1,1,1,1,1,1,1,1,1,1,1,1,1,1,1,1,1,1,1,1,1,1,1,1,1,1,1,1],"number_of_sets":1,"coherent_direction":[111,111,111,216,216,111,216,216,111,216,111,216,111,111,111,111,216,111,216,111,216,216,111,216,216,111,216,216,216,111,216,111,111,216,216,216,111,216,111,216,216,111,216,111,216,216,111,111,111,216,111,216,216,216,111,216,111,111,111,111,216,216,216,111,216,111,111,111,216,111,111,216,216,111,216,111,216,216,111,111,216,216,111,216,216,216,216,216,216,111,216,216,111,111,216,111,111,111,216,216,216,216,111,111,111,111,216,216,111,216,216,111,111,216,111,111,111,216,216,216,111,216,111,111,216,216,111,216,111,216,111,111,111,111,111,111,111,111,111,111,111,216,111,216,216,111,111,216,111,111,216,111,111,216,111,216,216,111,216,111,216,216,111,216,216,111,111,216,111,216,216,216,216,216,216,216,216,111,216,216,111,216,216,216,111,111,111,111,216,111,216,111,216,216,111,111,216,111,111,111],"coherence":1,"opposite_coherence":0,"dot_radius":2,"dot_side_length":1,"dot_life":-1,"move_distance":1,"aperture_width":300,"aperture_height":300,"dot_color":["black","black","black","white","white","black","white","white","black","white","black","white","black","black","black","black","white","black","white","black","white","white","black","white","white","black","white","white","white","black","white","black","black","white","white","white","black","white","black","white","white","black","white","black","white","white","black","black","black","white","black","white","white","white","black","white","black","black","black","black","white","white","white","black","white","black","black","black","white","black","black","white","white","black","white","black","white","white","black","black","white","white","black","white","white","white","white","white","white","black","white","white","black","black","white","black","black","black","white","white","white","white","black","black","black","black","white","white","black","white","white","black","black","white","black","black","black","white","white","white","black","white","black","black","white","white","black","white","black","white","black","black","black","black","black","black","black","black","black","black","black","white","black","white","white","black","black","white","black","black","white","black","black","white","black","white","white","black","white","black","white","white","black","white","white","black","black","white","black","white","white","white","white","white","white","white","white","black","white","white","black","white","white","white","black","black","black","black","white","black","white","black","white","white","black","black","white","black","black","black"],"dot_shape":"circle","background_color":"#AAA","RDK_type":3,"aperture_type":2,"reinsert_type":2,"frame_rate":16.641666666666666,"frame_rate_array":[14,18,15,17,17,17,16,17,16,18,16,17,16,17,17,17,17,16,16,17,17,17,16,17,16,17,17,16,16,18,17,17,17,15,17,17,17,15,17,18,16,17,16,17,17,17,17,16,16,17,17,17,16,17,16,17,17,17,16,16,18,15,18,16,17,17,17,16,17,16,17,18,15,17,17,17,15,18,16,17,17,16,17,17,17,16,17,17,15,18,16,17,16,18,16,16,18,16,16,18,16,17,16,17,17,17,15,18,16,17,17,16,17,17,16,17,17,17,16,16],"number_of_frames":120,"aperture_center_x":960,"aperture_center_y":540,"fixation_cross":true,"fixation_cross_width":15,"fixation_cross_height":15,"fixation_cross_color":"#111","fixation_cross_thickness":1,"border":true,"border_thickness":2,"border_color":"transparent","canvas_width":1920,"canvas_height":1080,"trial_type":"rdk","trial_index":88,"plugin_version":"2.0.0","time_elapsed":246994},{"rt":2241,"stimulus":"\n        <div class=\"response-container\">\n          <div class=\"response-instruction\">\n            <p>rotate the bar by using the left and right arrow keys.</p>\n            <p>when you are determined, press the Enter key.</p>\n          </div>\n          <div class=\"response-circle\">\n            <div class=\"response-fixation\"></div>\n            <div id=\"bar\" class=\"rotating-bar\"></div>\n          </div>\n        </div>\n      ","response":"Enter","trial_type":"html-keyboard-response","trial_index":89,"plugin_version":"2.1.0","time_elapsed":249237,"random_initial_angle":293,"response_angle_css":365,"response_angle_rdk":85,"angular_error_target":-26,"angular_error_distractor":-131,"target_direction":111,"target_group":"black","reward_points":4},{"rt":null,"stimulus":"\n          <p style=\"color: #00FF00;\">Your reward: 4 points</p>\n        ","response":null,"trial_type":"html-keyboard-response","trial_index":90,"plugin_version":"2.1.0","time_elapsed":251243},{"rt":null,"stimulus":"<div class=\"fixation\" style=\"font-size: 60px;\">+</div>","response":null,"trial_type":"html-keyboard-response","trial_index":91,"plugin_version":"2.1.0","time_elapsed":252251},{"target_group":"black","condition_label":"B_H_vs_W_L_rep13","target_direction":104,"distractor_direction":200,"session_rotation":352,"rt":-1,"response":"","correct":false,"choices":"ALL_KEYS","correct_choice":["a"],"trial_duration":2000,"flip_timestamps":[],"response_ends_trial":false,"number_of_apertures":200,"number_of_dots":[1,1,1,1,1,1,1,1,1,1,1,1,1,1,1,1,1,1,1,1,1,1,1,1,1,1,1,1,1,1,1,1,1,1,1,1,1,1,1,1,1,1,1,1,1,1,1,1,1,1,1,1,1,1,1,1,1,1,1,1,1,1,1,1,1,1,1,1,1,1,1,1,1,1,1,1,1,1,1,1,1,1,1,1,1,1,1,1,1,1,1,1,1,1,1,1,1,1,1,1,1,1,1,1,1,1,1,1,1,1,1,1,1,1,1,1,1,1,1,1,1,1,1,1,1,1,1,1,1,1,1,1,1,1,1,1,1,1,1,1,1,1,1,1,1,1,1,1,1,1,1,1,1,1,1,1,1,1,1,1,1,1,1,1,1,1,1,1,1,1,1,1,1,1,1,1,1,1,1,1,1,1,1,1,1,1,1,1,1,1,1,1,1,1,1,1,1,1,1,1],"number_of_sets":1,"coherent_direction":[104,200,200,200,104,200,200,200,200,200,104,200,104,200,200,104,104,104,104,104,200,200,104,104,104,200,200,104,104,200,200,104,200,200,104,104,104,200,104,104,200,200,104,200,200,200,104,104,104,104,200,200,200,200,104,104,200,200,200,104,104,200,200,104,104,200,104,104,200,104,200,104,104,104,104,104,104,104,200,200,104,104,200,104,104,104,200,104,200,200,104,104,104,200,104,200,200,200,104,104,104,104,200,200,200,200,104,104,200,104,200,200,200,200,200,200,104,104,200,200,104,104,200,200,200,200,200,200,104,200,200,200,104,200,104,200,200,200,200,200,104,104,200,104,200,104,104,104,104,104,200,200,200,104,200,200,200,200,104,200,200,200,104,104,104,200,104,200,200,200,200,104,104,104,104,104,104,200,104,200,104,104,104,200,104,200,104,104,104,200,104,200,104,104,104,104,104,200,200,104],"coherence":1,"opposite_coherence":0,"dot_radius":2,"dot_side_length":1,"dot_life":-1,"move_distance":1,"aperture_width":300,"aperture_height":300,"dot_color":["black","white","white","white","black","white","white","white","white","white","black","white","black","white","white","black","black","black","black","black","white","white","black","black","black","white","white","black","black","white","white","black","white","white","black","black","black","white","black","black","white","white","black","white","white","white","black","black","black","black","white","white","white","white","black","black","white","white","white","black","black","white","white","black","black","white","black","black","white","black","white","black","black","black","black","black","black","black","white","white","black","black","white","black","black","black","white","black","white","white","black","black","black","white","black","white","white","white","black","black","black","black","white","white","white","white","black","black","white","black","white","white","white","white","white","white","black","black","white","white","black","black","white","white","white","white","white","white","black","white","white","white","black","white","black","white","white","white","white","white","black","black","white","black","white","black","black","black","black","black","white","white","white","black","white","white","white","white","black","white","white","white","black","black","black","white","black","white","white","white","white","black","black","black","black","black","black","white","black","white","black","black","black","white","black","white","black","black","black","white","black","white","black","black","black","black","black","white","white","black"],"dot_shape":"circle","background_color":"#AAA","RDK_type":3,"aperture_type":2,"reinsert_type":2,"frame_rate":16.570247933884296,"frame_rate_array":[5,21,12,17,17,17,16,16,17,17,17,16,18,16,17,16,17,16,17,17,16,17,16,17,17,17,17,16,17,16,17,16,17,17,16,18,16,17,16,18,16,16,17,17,17,15,18,17,16,17,17,16,16,17,17,16,17,17,17,16,17,16,17,17,17,16,17,17,17,16,16,17,17,17,17,16,16,17,17,17,16,17,17,16,17,17,16,17,16,17,17,17,16,18,16,16,17,17,17,16,16,18,17,15,17,17,16,18,16,17,16,17,17,16,18,16,17,16,17,17,16],"number_of_frames":121,"aperture_center_x":960,"aperture_center_y":540,"fixation_cross":true,"fixation_cross_width":15,"fixation_cross_height":15,"fixation_cross_color":"#111","fixation_cross_thickness":1,"border":true,"border_thickness":2,"border_color":"transparent","canvas_width":1920,"canvas_height":1080,"trial_type":"rdk","trial_index":92,"plugin_version":"2.0.0","time_elapsed":254262},{"rt":1294,"stimulus":"\n        <div class=\"response-container\">\n          <div class=\"response-instruction\">\n            <p>rotate the bar by using the left and right arrow keys.</p>\n            <p>when you are determined, press the Enter key.</p>\n          </div>\n          <div class=\"response-circle\">\n            <div class=\"response-fixation\"></div>\n            <div id=\"bar\" class=\"rotating-bar\"></div>\n          </div>\n        </div>\n      ","response":"Enter","trial_type":"html-keyboard-response","trial_index":93,"plugin_version":"2.1.0","time_elapsed":255556,"random_initial_angle":4,"response_angle_css":-7,"response_angle_rdk":97,"angular_error_target":-7,"angular_error_distractor":-103,"target_direction":104,"target_group":"black","reward_points":8},{"rt":null,"stimulus":"\n          <p style=\"color: #00FF00;\">Your reward: 8 points</p>\n        ","response":null,"trial_type":"html-keyboard-response","trial_index":94,"plugin_version":"2.1.0","time_elapsed":257560},{"rt":null,"stimulus":"<div class=\"fixation\" style=\"font-size: 60px;\">+</div>","response":null,"trial_type":"html-keyboard-response","trial_index":95,"plugin_version":"2.1.0","time_elapsed":258566},{"target_group":"black","condition_label":"B_H_vs_W_L_rep12","target_direction":108,"distractor_direction":203,"session_rotation":352,"rt":-1,"response":"","correct":false,"choices":"ALL_KEYS","correct_choice":["a"],"trial_duration":2000,"flip_timestamps":[],"response_ends_trial":false,"number_of_apertures":200,"number_of_dots":[1,1,1,1,1,1,1,1,1,1,1,1,1,1,1,1,1,1,1,1,1,1,1,1,1,1,1,1,1,1,1,1,1,1,1,1,1,1,1,1,1,1,1,1,1,1,1,1,1,1,1,1,1,1,1,1,1,1,1,1,1,1,1,1,1,1,1,1,1,1,1,1,1,1,1,1,1,1,1,1,1,1,1,1,1,1,1,1,1,1,1,1,1,1,1,1,1,1,1,1,1,1,1,1,1,1,1,1,1,1,1,1,1,1,1,1,1,1,1,1,1,1,1,1,1,1,1,1,1,1,1,1,1,1,1,1,1,1,1,1,1,1,1,1,1,1,1,1,1,1,1,1,1,1,1,1,1,1,1,1,1,1,1,1,1,1,1,1,1,1,1,1,1,1,1,1,1,1,1,1,1,1,1,1,1,1,1,1,1,1,1,1,1,1,1,1,1,1,1,1],"number_of_sets":1,"coherent_direction":[108,108,108,108,108,203,108,108,108,108,203,108,203,203,203,108,203,203,108,108,203,203,203,108,203,203,203,203,203,203,203,108,203,203,203,108,108,203,203,203,108,108,203,203,203,203,203,108,108,108,108,108,108,203,108,203,203,108,203,108,203,108,203,108,108,108,203,108,203,108,108,108,203,108,203,108,108,203,108,203,203,203,203,108,203,203,203,108,108,108,108,203,203,203,203,108,108,108,108,203,108,108,203,108,203,203,203,108,203,108,108,108,108,203,108,108,203,108,108,203,108,108,108,108,108,203,108,108,203,108,108,203,108,108,108,203,108,203,203,203,108,108,203,203,203,203,203,108,203,203,203,203,203,203,108,108,203,108,203,108,108,203,108,108,108,108,203,108,203,108,203,203,108,108,203,108,203,108,203,108,203,108,203,203,203,203,203,203,203,203,108,203,203,203,203,108,108,108,108,108],"coherence":1,"opposite_coherence":0,"dot_radius":2,"dot_side_length":1,"dot_life":-1,"move_distance":1,"aperture_width":300,"aperture_height":300,"dot_color":["black","black","black","black","black","white","black","black","black","black","white","black","white","white","white","black","white","white","black","black","white","white","white","black","white","white","white","white","white","white","white","black","white","white","white","black","black","white","white","white","black","black","white","white","white","white","white","black","black","black","black","black","black","white","black","white","white","black","white","black","white","black","white","black","black","black","white","black","white","black","black","black","white","black","white","black","black","white","black","white","white","white","white","black","white","white","white","black","black","black","black","white","white","white","white","black","black","black","black","white","black","black","white","black","white","white","white","black","white","black","black","black","black","white","black","black","white","black","black","white","black","black","black","black","black","white","black","black","white","black","black","white","black","black","black","white","black","white","white","white","black","black","white","white","white","white","white","black","white","white","white","white","white","white","black","black","white","black","white","black","black","white","black","black","black","black","white","black","white","black","white","white","black","black","white","black","white","black","white","black","white","black","white","white","white","white","white","white","white","white","black","white","white","white","white","black","black","black","black","black"],"dot_shape":"circle","background_color":"#AAA","RDK_type":3,"aperture_type":2,"reinsert_type":2,"frame_rate":16.58677685950413,"frame_rate_array":[8,17,16,17,16,17,17,17,16,17,16,16,18,17,16,17,16,17,17,17,15,17,17,17,17,17,15,18,17,16,17,17,16,17,16,18,16,16,17,17,17,16,17,17,16,16,18,16,16,18,16,16,18,16,17,17,17,15,17,17,17,17,16,16,17,17,18,15,17,17,16,17,17,16,17,17,17,15,18,16,16,18,17,16,17,17,16,17,17,16,16,17,17,16,17,16,18,17,16,17,16,17,17,16,17,17,16,17,16,18,16,16,17,17,17,16,17,17,17,16,16],"number_of_frames":121,"aperture_center_x":960,"aperture_center_y":540,"fixation_cross":true,"fixation_cross_width":15,"fixation_cross_height":15,"fixation_cross_color":"#111","fixation_cross_thickness":1,"border":true,"border_thickness":2,"border_color":"transparent","canvas_width":1920,"canvas_height":1080,"trial_type":"rdk","trial_index":96,"plugin_version":"2.0.0","time_elapsed":260578},{"rt":4749,"stimulus":"\n        <div class=\"response-container\">\n          <div class=\"response-instruction\">\n            <p>rotate the bar by using the left and right arrow keys.</p>\n            <p>when you are determined, press the Enter key.</p>\n          </div>\n          <div class=\"response-circle\">\n            <div class=\"response-fixation\"></div>\n            <div id=\"bar\" class=\"rotating-bar\"></div>\n          </div>\n        </div>\n      ","response":"Enter","trial_type":"html-keyboard-response","trial_index":97,"plugin_version":"2.1.0","time_elapsed":265328,"random_initial_angle":196,"response_angle_css":351,"response_angle_rdk":99,"angular_error_target":-9,"angular_error_distractor":-104,"target_direction":108,"target_group":"black","reward_points":8},{"rt":null,"stimulus":"\n          <p style=\"color: #00FF00;\">Your reward: 8 points</p>\n        ","response":null,"trial_type":"html-keyboard-response","trial_index":98,"plugin_version":"2.1.0","time_elapsed":267330},{"rt":null,"stimulus":"<div class=\"fixation\" style=\"font-size: 60px;\">+</div>","response":null,"trial_type":"html-keyboard-response","trial_index":99,"plugin_version":"2.1.0","time_elapsed":268332},{"target_group":"white","condition_label":"W_H_vs_B_L_rep16","target_direction":7,"distractor_direction":274,"session_rotation":352,"rt":-1,"response":"","correct":false,"choices":"ALL_KEYS","correct_choice":["a"],"trial_duration":2000,"flip_timestamps":[],"response_ends_trial":false,"number_of_apertures":200,"number_of_dots":[1,1,1,1,1,1,1,1,1,1,1,1,1,1,1,1,1,1,1,1,1,1,1,1,1,1,1,1,1,1,1,1,1,1,1,1,1,1,1,1,1,1,1,1,1,1,1,1,1,1,1,1,1,1,1,1,1,1,1,1,1,1,1,1,1,1,1,1,1,1,1,1,1,1,1,1,1,1,1,1,1,1,1,1,1,1,1,1,1,1,1,1,1,1,1,1,1,1,1,1,1,1,1,1,1,1,1,1,1,1,1,1,1,1,1,1,1,1,1,1,1,1,1,1,1,1,1,1,1,1,1,1,1,1,1,1,1,1,1,1,1,1,1,1,1,1,1,1,1,1,1,1,1,1,1,1,1,1,1,1,1,1,1,1,1,1,1,1,1,1,1,1,1,1,1,1,1,1,1,1,1,1,1,1,1,1,1,1,1,1,1,1,1,1,1,1,1,1,1,1],"number_of_sets":1,"coherent_direction":[7,7,7,7,7,7,7,7,274,7,274,7,274,7,7,7,274,7,274,274,274,7,274,274,274,274,7,274,7,274,274,274,274,274,274,7,274,7,7,7,7,7,274,7,274,274,274,274,274,274,7,7,7,7,274,7,7,274,7,7,274,7,7,7,7,7,274,7,274,274,7,274,274,7,7,274,274,274,274,274,7,274,7,7,274,274,7,7,7,274,274,274,7,274,274,274,274,274,274,274,274,7,274,274,7,274,7,7,274,274,7,274,7,274,7,7,7,7,7,7,7,274,274,274,7,274,7,7,7,274,274,274,7,274,7,274,7,7,274,274,274,7,7,274,274,274,274,7,7,274,7,274,7,7,7,274,7,7,274,7,274,7,274,7,274,7,7,7,7,274,7,7,274,274,274,7,274,7,274,274,7,274,274,7,274,274,274,274,274,7,7,274,7,7,7,274,7,274,7,7],"coherence":1,"opposite_coherence":0,"dot_radius":2,"dot_side_length":1,"dot_life":-1,"move_distance":1,"aperture_width":300,"aperture_height":300,"dot_color":["white","white","white","white","white","white","white","white","black","white","black","white","black","white","white","white","black","white","black","black","black","white","black","black","black","black","white","black","white","black","black","black","black","black","black","white","black","white","white","white","white","white","black","white","black","black","black","black","black","black","white","white","white","white","black","white","white","black","white","white","black","white","white","white","white","white","black","white","black","black","white","black","black","white","white","black","black","black","black","black","white","black","white","white","black","black","white","white","white","black","black","black","white","black","black","black","black","black","black","black","black","white","black","black","white","black","white","white","black","black","white","black","white","black","white","white","white","white","white","white","white","black","black","black","white","black","white","white","white","black","black","black","white","black","white","black","white","white","black","black","black","white","white","black","black","black","black","white","white","black","white","black","white","white","white","black","white","white","black","white","black","white","black","white","black","white","white","white","white","black","white","white","black","black","black","white","black","white","black","black","white","black","black","white","black","black","black","black","black","white","white","black","white","white","white","black","white","black","white","white"],"dot_shape":"circle","background_color":"#AAA","RDK_type":3,"aperture_type":2,"reinsert_type":2,"frame_rate":16.59504132231405,"frame_rate_array":[8,17,16,18,16,17,16,17,16,17,17,17,16,17,16,17,17,17,16,17,17,17,15,17,17,17,16,17,17,16,17,17,16,17,17,16,17,18,16,16,17,17,16,17,17,16,17,17,17,16,17,17,16,17,17,16,17,16,18,16,16,17,17,16,17,17,16,17,17,16,18,16,16,17,17,16,17,17,17,15,17,17,17,17,17,17,16,16,17,17,16,17,17,16,17,17,17,16,17,17,17,16,16,18,16,16,17,17,17,16,17,17,16,16,17,17,17,17,16,17,16],"number_of_frames":121,"aperture_center_x":960,"aperture_center_y":540,"fixation_cross":true,"fixation_cross_width":15,"fixation_cross_height":15,"fixation_cross_color":"#111","fixation_cross_thickness":1,"border":true,"border_thickness":2,"border_color":"transparent","canvas_width":1920,"canvas_height":1080,"trial_type":"rdk","trial_index":100,"plugin_version":"2.0.0","time_elapsed":270344},{"rt":2965,"stimulus":"\n        <div class=\"response-container\">\n          <div class=\"response-instruction\">\n            <p>rotate the bar by using the left and right arrow keys.</p>\n            <p>when you are determined, press the Enter key.</p>\n          </div>\n          <div class=\"response-circle\">\n            <div class=\"response-fixation\"></div>\n            <div id=\"bar\" class=\"rotating-bar\"></div>\n          </div>\n        </div>\n      ","response":"Enter","trial_type":"html-keyboard-response","trial_index":101,"plugin_version":"2.1.0","time_elapsed":273310,"random_initial_angle":230,"response_angle_css":177,"response_angle_rdk":273,"angular_error_target":-94,"angular_error_distractor":-1,"target_direction":7,"target_group":"white","reward_points":0},{"rt":null,"stimulus":"\n          <p style=\"color: #FF3333;\">Your reward: 0 points</p>\n        ","response":null,"trial_type":"html-keyboard-response","trial_index":102,"plugin_version":"2.1.0","time_elapsed":275318},{"rt":null,"stimulus":"<div class=\"fixation\" style=\"font-size: 60px;\">+</div>","response":null,"trial_type":"html-keyboard-response","trial_index":103,"plugin_version":"2.1.0","time_elapsed":276321},{"target_group":"black","condition_label":"B_H_vs_W_L_rep2","target_direction":88,"distractor_direction":186,"session_rotation":352,"rt":-1,"response":"","correct":false,"choices":"ALL_KEYS","correct_choice":["a"],"trial_duration":2000,"flip_timestamps":[],"response_ends_trial":false,"number_of_apertures":200,"number_of_dots":[1,1,1,1,1,1,1,1,1,1,1,1,1,1,1,1,1,1,1,1,1,1,1,1,1,1,1,1,1,1,1,1,1,1,1,1,1,1,1,1,1,1,1,1,1,1,1,1,1,1,1,1,1,1,1,1,1,1,1,1,1,1,1,1,1,1,1,1,1,1,1,1,1,1,1,1,1,1,1,1,1,1,1,1,1,1,1,1,1,1,1,1,1,1,1,1,1,1,1,1,1,1,1,1,1,1,1,1,1,1,1,1,1,1,1,1,1,1,1,1,1,1,1,1,1,1,1,1,1,1,1,1,1,1,1,1,1,1,1,1,1,1,1,1,1,1,1,1,1,1,1,1,1,1,1,1,1,1,1,1,1,1,1,1,1,1,1,1,1,1,1,1,1,1,1,1,1,1,1,1,1,1,1,1,1,1,1,1,1,1,1,1,1,1,1,1,1,1,1,1],"number_of_sets":1,"coherent_direction":[186,186,186,186,186,186,88,88,186,186,186,186,186,88,186,186,88,88,88,88,88,88,88,186,88,186,186,186,88,186,186,186,186,88,186,88,88,186,186,186,88,186,186,88,186,88,88,186,186,88,88,88,186,88,186,186,186,186,186,88,186,186,186,88,186,186,88,186,88,186,88,186,186,88,88,88,88,186,88,88,186,88,186,186,88,186,88,88,186,88,88,186,88,186,186,186,186,88,88,186,186,88,88,88,186,186,186,88,88,186,88,88,88,186,186,88,186,186,186,88,186,88,186,186,186,88,88,88,186,88,186,88,88,88,88,88,88,186,186,186,186,88,186,186,186,88,88,186,186,186,88,186,186,88,186,186,88,88,88,88,186,186,88,186,88,88,88,186,88,88,186,88,186,88,88,186,88,88,88,186,88,88,88,88,186,186,88,88,88,186,88,88,88,186,88,88,88,186,88,88],"coherence":1,"opposite_coherence":0,"dot_radius":2,"dot_side_length":1,"dot_life":-1,"move_distance":1,"aperture_width":300,"aperture_height":300,"dot_color":["white","white","white","white","white","white","black","black","white","white","white","white","white","black","white","white","black","black","black","black","black","black","black","white","black","white","white","white","black","white","white","white","white","black","white","black","black","white","white","white","black","white","white","black","white","black","black","white","white","black","black","black","white","black","white","white","white","white","white","black","white","white","white","black","white","white","black","white","black","white","black","white","white","black","black","black","black","white","black","black","white","black","white","white","black","white","black","black","white","black","black","white","black","white","white","white","white","black","black","white","white","black","black","black","white","white","white","black","black","white","black","black","black","white","white","black","white","white","white","black","white","black","white","white","white","black","black","black","white","black","white","black","black","black","black","black","black","white","white","white","white","black","white","white","white","black","black","white","white","white","black","white","white","black","white","white","black","black","black","black","white","white","black","white","black","black","black","white","black","black","white","black","white","black","black","white","black","black","black","white","black","black","black","black","white","white","black","black","black","white","black","black","black","white","black","black","black","white","black","black"],"dot_shape":"circle","background_color":"#AAA","RDK_type":3,"aperture_type":2,"reinsert_type":2,"frame_rate":16.553719008264462,"frame_rate_array":[3,21,12,17,17,16,16,17,17,17,16,17,16,17,17,16,18,16,16,17,17,17,16,17,17,16,16,18,16,17,16,17,17,16,17,17,17,16,16,18,17,16,17,17,16,17,17,16,17,17,17,15,17,18,16,16,18,16,17,16,17,16,17,16,17,17,17,16,17,17,17,16,16,18,16,17,16,17,16,17,17,17,16,17,17,17,16,17,17,16,17,16,17,17,17,17,16,17,16,18,15,17,17,17,16,17,17,16,17,17,16,17,17,16,16,17,17,17,17,16,17],"number_of_frames":121,"aperture_center_x":960,"aperture_center_y":540,"fixation_cross":true,"fixation_cross_width":15,"fixation_cross_height":15,"fixation_cross_color":"#111","fixation_cross_thickness":1,"border":true,"border_thickness":2,"border_color":"transparent","canvas_width":1920,"canvas_height":1080,"trial_type":"rdk","trial_index":104,"plugin_version":"2.0.0","time_elapsed":278329},{"rt":3136,"stimulus":"\n        <div class=\"response-container\">\n          <div class=\"response-instruction\">\n            <p>rotate the bar by using the left and right arrow keys.</p>\n            <p>when you are determined, press the Enter key.</p>\n          </div>\n          <div class=\"response-circle\">\n            <div class=\"response-fixation\"></div>\n            <div id=\"bar\" class=\"rotating-bar\"></div>\n          </div>\n        </div>\n      ","response":"Enter","trial_type":"html-keyboard-response","trial_index":105,"plugin_version":"2.1.0","time_elapsed":281467,"random_initial_angle":211,"response_angle_css":370,"response_angle_rdk":80,"angular_error_target":-8,"angular_error_distractor":-106,"target_direction":88,"target_group":"black","reward_points":8},{"rt":null,"stimulus":"\n          <p style=\"color: #00FF00;\">Your reward: 8 points</p>\n        ","response":null,"trial_type":"html-keyboard-response","trial_index":106,"plugin_version":"2.1.0","time_elapsed":283476},{"rt":null,"stimulus":"<div class=\"fixation\" style=\"font-size: 60px;\">+</div>","response":null,"trial_type":"html-keyboard-response","trial_index":107,"plugin_version":"2.1.0","time_elapsed":284484},{"target_group":"black","condition_label":"B_H_vs_W_L_rep3","target_direction":91,"distractor_direction":200,"session_rotation":352,"rt":-1,"response":"","correct":false,"choices":"ALL_KEYS","correct_choice":["a"],"trial_duration":2000,"flip_timestamps":[],"response_ends_trial":false,"number_of_apertures":200,"number_of_dots":[1,1,1,1,1,1,1,1,1,1,1,1,1,1,1,1,1,1,1,1,1,1,1,1,1,1,1,1,1,1,1,1,1,1,1,1,1,1,1,1,1,1,1,1,1,1,1,1,1,1,1,1,1,1,1,1,1,1,1,1,1,1,1,1,1,1,1,1,1,1,1,1,1,1,1,1,1,1,1,1,1,1,1,1,1,1,1,1,1,1,1,1,1,1,1,1,1,1,1,1,1,1,1,1,1,1,1,1,1,1,1,1,1,1,1,1,1,1,1,1,1,1,1,1,1,1,1,1,1,1,1,1,1,1,1,1,1,1,1,1,1,1,1,1,1,1,1,1,1,1,1,1,1,1,1,1,1,1,1,1,1,1,1,1,1,1,1,1