[{"rt":4314,"stimulus":"Welcome to the experiment. Press any key to begin.","response":" ","trial_type":"html-keyboard-response","trial_index":0,"plugin_version":"2.1.0","time_elapsed":4317},{"rt":60290,"stimulus":"\n        <div class=\"instructions-container\">\n          <h2>Instructions</h2>\n\n          <p>\n          In this experiment, you will see <strong>two Random Dot Kinematograms (RDKs)</strong> displayed simultaneously.\n          </p>\n\n          <p>\n          An RDK is a visual stimulus consisting of many small dots that move coherently in a single direction. \n          In this experiment, the dots will be either <strong>white</strong> or <strong>black</strong> \n          (see the short demo below for an example of an RDK stimulus).\n          </p>\n\n          <p>\n          On each trial, the two RDKs will move in different directions. \n          Your task is to decide <strong>which RDK appears to contain more dots</strong>.\n          </p>\n\n          <p>\n          The RDK that you judge to have more dots is called the <strong>target RDK</strong>. \n          For example, if the white RDK appears to have more dots than the black RDK, \n          you should report the motion direction of the white RDK.\n          </p>\n\n          <p>\n          After viewing the RDKs, you will rotate a bar to indicate the perceived direction of the target RDK \n          using the <strong>left</strong> and <strong>right arrow keys</strong>. \n          Press <strong>Enter</strong> when you are satisfied with your response.\n          When the bar is held down, the rotation speed increases.\n          </p>\n\n          <p>\n          You will receive points based on the <strong>accuracy of your response</strong>, \n          and your final <strong>bonus reward</strong> may depend on your overall performance. \n          Please try to respond as accurately as possible.\n          </p>\n\n          <p>\n          You will first complete <strong>16 practice trials</strong>. \n          Press the <strong>Enter</strong> key to start the practice phase.\n          </p>\n\n          <canvas id=\"instruction-demo-rdk\" width=\"200\" height=\"200\"style=\"display:block;margin:12px auto; border-radius: 50%;\"></canvas>\n        </div>\n      ","response":"Enter","trial_type":"html-keyboard-response","trial_index":1,"plugin_version":"2.1.0","time_elapsed":64649},{"rt":null,"stimulus":"<div class=\"fixation\" style=\"font-size: 60px;\">+</div>","response":null,"trial_type":"html-keyboard-response","trial_index":2,"plugin_version":"2.1.0","time_elapsed":65659},{"target_group":"black","target_index":1,"condition_label":"practice","rt":-1,"response":"","correct":false,"choices":"ALL_KEYS","correct_choice":["a"],"trial_duration":2000,"flip_timestamps":[],"response_ends_trial":false,"number_of_apertures":2,"number_of_dots":[74,100],"number_of_sets":1,"coherent_direction":[121,18],"coherence":1,"opposite_coherence":0,"dot_radius":2,"dot_side_length":1,"dot_life":-1,"move_distance":1,"aperture_width":300,"aperture_height":300,"dot_color":["white","black"],"dot_shape":"circle","background_color":"#AAA","RDK_type":3,"aperture_type":2,"reinsert_type":2,"frame_rate":16.61864406779661,"frame_rate_array":[8,10,15,16,17,15,17,16,17,16,17,17,17,17,17,17,16,16,17,17,17,17,17,17,17,16,17,17,17,17,17,17,17,17,17,17,17,16,17,17,17,16,17,17,17,17,17,16,17,17,17,17,17,17,17,17,17,17,17,17,17,17,17,16,18,17,16,20,14,16,17,17,17,17,16,17,17,17,17,16,16,17,17,16,17,18,16,17,19,15,17,17,17,16,17,17,17,16,17,16,17,16,17,17,17,16,17,16,17,17,16,17,16,17,16,16,17,17],"number_of_frames":118,"aperture_center_x":691,"aperture_center_y":432,"fixation_cross":true,"fixation_cross_width":15,"fixation_cross_height":15,"fixation_cross_color":"#111","fixation_cross_thickness":1,"border":true,"border_thickness":2,"border_color":"transparent","canvas_width":1382,"canvas_height":864,"trial_type":"rdk","trial_index":3,"plugin_version":"2.0.0","time_elapsed":67678,"phase":"practice","target_direction":18,"distractor_direction":121},{"rt":8403,"stimulus":"\n        <div class=\"response-container\">\n          <div class=\"response-instruction\">\n            <p>rotate the bar by using the left and right arrow keys.</p>\n            <p>when you are determined, press the Enter key.</p>\n          </div>\n          <div class=\"response-circle\">\n            <div class=\"response-fixation\"></div>\n            <div id=\"bar\" class=\"rotating-bar\"></div>\n          </div>\n        </div>\n      ","response":"Enter","trial_type":"html-keyboard-response","trial_index":4,"plugin_version":"2.1.0","time_elapsed":76084,"random_initial_angle":187,"response_angle_css":154,"response_angle_rdk":296,"angular_error_target":-82,"angular_error_distractor":175,"target_direction":18,"target_group":"black","reward_points":0},{"rt":null,"stimulus":"\n          <p style=\"color: #FF3333;\">Your reward: 0 points</p>\n        ","response":null,"trial_type":"html-keyboard-response","trial_index":5,"plugin_version":"2.1.0","time_elapsed":78087},{"rt":null,"stimulus":"<div class=\"fixation\" style=\"font-size: 60px;\">+</div>","response":null,"trial_type":"html-keyboard-response","trial_index":6,"plugin_version":"2.1.0","time_elapsed":79102},{"target_group":"black","target_index":1,"condition_label":"practice","rt":-1,"response":"","correct":false,"choices":"ALL_KEYS","correct_choice":["a"],"trial_duration":2000,"flip_timestamps":[],"response_ends_trial":false,"number_of_apertures":2,"number_of_dots":[84,100],"number_of_sets":1,"coherent_direction":[122,347],"coherence":1,"opposite_coherence":0,"dot_radius":2,"dot_side_length":1,"dot_life":-1,"move_distance":1,"aperture_width":300,"aperture_height":300,"dot_color":["white","black"],"dot_shape":"circle","background_color":"#AAA","RDK_type":3,"aperture_type":2,"reinsert_type":2,"frame_rate":16.783333333333335,"frame_rate_array":[18,17,16,17,17,17,17,16,17,17,16,17,17,17,16,17,16,16,18,15,17,17,16,17,17,18,15,17,17,16,17,17,17,17,17,17,17,17,17,17,17,16,17,17,17,17,17,17,18,16,16,17,17,16,17,17,17,16,17,17,17,17,17,17,16,17,16,17,17,17,17,17,17,17,17,16,17,17,16,17,16,17,16,17,17,16,17,16,17,17,17,17,16,17,17,17,17,16,17,17,17,16,17,18,15,17,16,17,17,17,17,17,17,17,17,17,17,17,17,17],"number_of_frames":120,"aperture_center_x":691,"aperture_center_y":432,"fixation_cross":true,"fixation_cross_width":15,"fixation_cross_height":15,"fixation_cross_color":"#111","fixation_cross_thickness":1,"border":true,"border_thickness":2,"border_color":"transparent","canvas_width":1382,"canvas_height":864,"trial_type":"rdk","trial_index":7,"plugin_version":"2.0.0","time_elapsed":81108,"phase":"practice","target_direction":347,"distractor_direction":122},{"rt":8397,"stimulus":"\n        <div class=\"response-container\">\n          <div class=\"response-instruction\">\n            <p>rotate the bar by using the left and right arrow keys.</p>\n            <p>when you are determined, press the Enter key.</p>\n          </div>\n          <div class=\"response-circle\">\n            <div class=\"response-fixation\"></div>\n            <div id=\"bar\" class=\"rotating-bar\"></div>\n          </div>\n        </div>\n      ","response":"Enter","trial_type":"html-keyboard-response","trial_index":8,"plugin_version":"2.1.0","time_elapsed":89506,"random_initial_angle":52,"response_angle_css":76,"response_angle_rdk":14,"angular_error_target":27,"angular_error_distractor":-108,"target_direction":347,"target_group":"black","reward_points":4},{"rt":null,"stimulus":"\n          <p style=\"color: #00FF00;\">Your reward: 4 points</p>\n        ","response":null,"trial_type":"html-keyboard-response","trial_index":9,"plugin_version":"2.1.0","time_elapsed":91508},{"rt":null,"stimulus":"<div class=\"fixation\" style=\"font-size: 60px;\">+</div>","response":null,"trial_type":"html-keyboard-response","trial_index":10,"plugin_version":"2.1.0","time_elapsed":92524},{"target_group":"black","target_index":1,"condition_label":"practice","rt":-1,"response":"","correct":false,"choices":"ALL_KEYS","correct_choice":["a"],"trial_duration":2000,"flip_timestamps":[],"response_ends_trial":false,"number_of_apertures":2,"number_of_dots":[54,100],"number_of_sets":1,"coherent_direction":[331,110],"coherence":1,"opposite_coherence":0,"dot_radius":2,"dot_side_length":1,"dot_life":-1,"move_distance":1,"aperture_width":300,"aperture_height":300,"dot_color":["white","black"],"dot_shape":"circle","background_color":"#AAA","RDK_type":3,"aperture_type":2,"reinsert_type":2,"frame_rate":16.808333333333334,"frame_rate_array":[21,16,17,17,17,17,17,16,17,17,17,17,17,17,17,17,17,17,16,17,17,16,17,17,16,17,17,17,17,17,17,17,17,16,17,18,16,17,16,17,17,16,17,17,16,16,17,17,17,16,17,17,17,17,16,17,16,17,16,17,17,17,17,17,17,16,17,17,17,16,17,17,17,17,17,16,17,17,17,16,16,17,17,17,16,17,17,17,16,17,16,17,17,16,17,17,16,16,17,17,17,17,17,17,18,16,17,17,16,17,16,17,17,17,17,17,17,17,17,17],"number_of_frames":120,"aperture_center_x":691,"aperture_center_y":432,"fixation_cross":true,"fixation_cross_width":15,"fixation_cross_height":15,"fixation_cross_color":"#111","fixation_cross_thickness":1,"border":true,"border_thickness":2,"border_color":"transparent","canvas_width":1382,"canvas_height":864,"trial_type":"rdk","trial_index":11,"plugin_version":"2.0.0","time_elapsed":94534,"phase":"practice","target_direction":110,"distractor_direction":331},{"rt":4743,"stimulus":"\n        <div class=\"response-container\">\n          <div class=\"response-instruction\">\n            <p>rotate the bar by using the left and right arrow keys.</p>\n            <p>when you are determined, press the Enter key.</p>\n          </div>\n          <div class=\"response-circle\">\n            <div class=\"response-fixation\"></div>\n            <div id=\"bar\" class=\"rotating-bar\"></div>\n          </div>\n        </div>\n      ","response":"Enter","trial_type":"html-keyboard-response","trial_index":12,"plugin_version":"2.1.0","time_elapsed":99278,"random_initial_angle":240,"response_angle_css":295,"response_angle_rdk":155,"angular_error_target":45,"angular_error_distractor":-176,"target_direction":110,"target_group":"black","reward_points":0},{"rt":null,"stimulus":"\n          <p style=\"color: #FF3333;\">Your reward: 0 points</p>\n        ","response":null,"trial_type":"html-keyboard-response","trial_index":13,"plugin_version":"2.1.0","time_elapsed":101283},{"rt":null,"stimulus":"<div class=\"fixation\" style=\"font-size: 60px;\">+</div>","response":null,"trial_type":"html-keyboard-response","trial_index":14,"plugin_version":"2.1.0","time_elapsed":102295},{"target_group":"black","target_index":1,"condition_label":"practice","rt":-1,"response":"","correct":false,"choices":"ALL_KEYS","correct_choice":["a"],"trial_duration":2000,"flip_timestamps":[],"response_ends_trial":false,"number_of_apertures":2,"number_of_dots":[98,100],"number_of_sets":1,"coherent_direction":[166,48],"coherence":1,"opposite_coherence":0,"dot_radius":2,"dot_side_length":1,"dot_life":-1,"move_distance":1,"aperture_width":300,"aperture_height":300,"dot_color":["white","black"],"dot_shape":"circle","background_color":"#AAA","RDK_type":3,"aperture_type":2,"reinsert_type":2,"frame_rate":16.68595041322314,"frame_rate_array":[10,16,17,16,18,15,17,18,15,17,18,16,17,16,17,17,17,17,17,18,14,20,14,17,15,17,17,17,17,17,17,18,16,17,17,16,16,18,16,16,17,17,17,17,16,17,17,17,17,17,17,17,17,16,17,18,16,16,17,17,16,18,16,17,17,16,17,18,16,17,16,16,17,18,16,16,18,15,18,17,16,17,16,17,17,18,16,16,18,16,18,16,17,17,17,15,17,17,17,16,18,15,17,17,16,17,17,16,16,17,18,16,16,17,17,17,17,17,18,16,17],"number_of_frames":121,"aperture_center_x":691,"aperture_center_y":432,"fixation_cross":true,"fixation_cross_width":15,"fixation_cross_height":15,"fixation_cross_color":"#111","fixation_cross_thickness":1,"border":true,"border_thickness":2,"border_color":"transparent","canvas_width":1382,"canvas_height":864,"trial_type":"rdk","trial_index":15,"plugin_version":"2.0.0","time_elapsed":104308,"phase":"practice","target_direction":48,"distractor_direction":166},{"rt":4060,"stimulus":"\n        <div class=\"response-container\">\n          <div class=\"response-instruction\">\n            <p>rotate the bar by using the left and right arrow keys.</p>\n            <p>when you are determined, press the Enter key.</p>\n          </div>\n          <div class=\"response-circle\">\n            <div class=\"response-fixation\"></div>\n            <div id=\"bar\" class=\"rotating-bar\"></div>\n          </div>\n        </div>\n      ","response":"Enter","trial_type":"html-keyboard-response","trial_index":16,"plugin_version":"2.1.0","time_elapsed":108369,"random_initial_angle":5,"response_angle_css":31,"response_angle_rdk":59,"angular_error_target":11,"angular_error_distractor":-107,"target_direction":48,"target_group":"black","reward_points":7},{"rt":null,"stimulus":"\n          <p style=\"color: #00FF00;\">Your reward: 7 points</p>\n        ","response":null,"trial_type":"html-keyboard-response","trial_index":17,"plugin_version":"2.1.0","time_elapsed":110385},{"rt":null,"stimulus":"<div class=\"fixation\" style=\"font-size: 60px;\">+</div>","response":null,"trial_type":"html-keyboard-response","trial_index":18,"plugin_version":"2.1.0","time_elapsed":111388},{"target_group":"white","target_index":0,"condition_label":"practice","rt":-1,"response":"","correct":false,"choices":"ALL_KEYS","correct_choice":["a"],"trial_duration":2000,"flip_timestamps":[],"response_ends_trial":false,"number_of_apertures":2,"number_of_dots":[100,95],"number_of_sets":1,"coherent_direction":[215,29],"coherence":1,"opposite_coherence":0,"dot_radius":2,"dot_side_length":1,"dot_life":-1,"move_distance":1,"aperture_width":300,"aperture_height":300,"dot_color":["white","black"],"dot_shape":"circle","background_color":"#AAA","RDK_type":3,"aperture_type":2,"reinsert_type":2,"frame_rate":16.84297520661157,"frame_rate_array":[7,17,17,17,17,17,17,17,17,17,17,17,17,17,17,17,17,17,17,17,17,17,17,17,17,17,17,17,17,17,17,17,17,17,17,17,17,17,17,17,16,17,17,17,17,17,17,17,17,17,17,17,17,17,17,17,17,17,17,17,17,17,17,17,17,17,17,17,17,17,17,17,17,17,17,17,17,17,17,17,17,17,17,18,16,17,17,16,17,17,17,17,17,17,17,17,17,17,17,17,16,17,16,17,17,17,17,17,17,17,16,16,17,18,16,16,17,17,16,17,16],"number_of_frames":121,"aperture_center_x":691,"aperture_center_y":432,"fixation_cross":true,"fixation_cross_width":15,"fixation_cross_height":15,"fixation_cross_color":"#111","fixation_cross_thickness":1,"border":true,"border_thickness":2,"border_color":"transparent","canvas_width":1382,"canvas_height":864,"trial_type":"rdk","trial_index":19,"plugin_version":"2.0.0","time_elapsed":113399,"phase":"practice","target_direction":215,"distractor_direction":29},{"rt":7261,"stimulus":"\n        <div class=\"response-container\">\n          <div class=\"response-instruction\">\n            <p>rotate the bar by using the left and right arrow keys.</p>\n            <p>when you are determined, press the Enter key.</p>\n          </div>\n          <div class=\"response-circle\">\n            <div class=\"response-fixation\"></div>\n            <div id=\"bar\" class=\"rotating-bar\"></div>\n          </div>\n        </div>\n      ","response":"Enter","trial_type":"html-keyboard-response","trial_index":20,"plugin_version":"2.1.0","time_elapsed":120661,"random_initial_angle":155,"response_angle_css":234,"response_angle_rdk":216,"angular_error_target":1,"angular_error_distractor":-173,"target_direction":215,"target_group":"white","reward_points":9},{"rt":null,"stimulus":"\n          <p style=\"color: #00FF00;\">Your reward: 9 points</p>\n        ","response":null,"trial_type":"html-keyboard-response","trial_index":21,"plugin_version":"2.1.0","time_elapsed":122676},{"rt":null,"stimulus":"<div class=\"fixation\" style=\"font-size: 60px;\">+</div>","response":null,"trial_type":"html-keyboard-response","trial_index":22,"plugin_version":"2.1.0","time_elapsed":123687},{"target_group":"black","target_index":1,"condition_label":"practice","rt":-1,"response":"","correct":false,"choices":"ALL_KEYS","correct_choice":["a"],"trial_duration":2000,"flip_timestamps":[],"response_ends_trial":false,"number_of_apertures":2,"number_of_dots":[83,100],"number_of_sets":1,"coherent_direction":[184,300],"coherence":1,"opposite_coherence":0,"dot_radius":2,"dot_side_length":1,"dot_life":-1,"move_distance":1,"aperture_width":300,"aperture_height":300,"dot_color":["white","black"],"dot_shape":"circle","background_color":"#AAA","RDK_type":3,"aperture_type":2,"reinsert_type":2,"frame_rate":16.641666666666666,"frame_rate_array":[15,17,17,16,16,17,16,17,18,15,16,17,17,16,17,17,16,17,16,16,18,15,17,16,16,17,18,16,16,17,16,16,18,15,17,17,17,17,18,16,17,18,15,17,17,17,17,18,16,17,18,16,16,17,16,17,18,15,17,17,16,16,18,16,17,18,15,17,18,15,17,17,16,16,17,16,17,18,17,16,17,16,16,17,16,17,17,16,17,17,16,17,18,15,17,17,17,16,18,16,17,17,16,16,18,16,16,17,16,17,17,17,17,17,16,17,17,16,16,17],"number_of_frames":120,"aperture_center_x":691,"aperture_center_y":432,"fixation_cross":true,"fixation_cross_width":15,"fixation_cross_height":15,"fixation_cross_color":"#111","fixation_cross_thickness":1,"border":true,"border_thickness":2,"border_color":"transparent","canvas_width":1382,"canvas_height":864,"trial_type":"rdk","trial_index":23,"plugin_version":"2.0.0","time_elapsed":125715,"phase":"practice","target_direction":300,"distractor_direction":184},{"rt":5002,"stimulus":"\n        <div class=\"response-container\">\n          <div class=\"response-instruction\">\n            <p>rotate the bar by using the left and right arrow keys.</p>\n            <p>when you are determined, press the Enter key.</p>\n          </div>\n          <div class=\"response-circle\">\n            <div class=\"response-fixation\"></div>\n            <div id=\"bar\" class=\"rotating-bar\"></div>\n          </div>\n        </div>\n      ","response":"Enter","trial_type":"html-keyboard-response","trial_index":24,"plugin_version":"2.1.0","time_elapsed":130718,"random_initial_angle":163,"response_angle_css":120,"response_angle_rdk":330,"angular_error_target":30,"angular_error_distractor":146,"target_direction":300,"target_group":"black","reward_points":4},{"rt":null,"stimulus":"\n          <p style=\"color: #00FF00;\">Your reward: 4 points</p>\n        ","response":null,"trial_type":"html-keyboard-response","trial_index":25,"plugin_version":"2.1.0","time_elapsed":132724},{"rt":null,"stimulus":"<div class=\"fixation\" style=\"font-size: 60px;\">+</div>","response":null,"trial_type":"html-keyboard-response","trial_index":26,"plugin_version":"2.1.0","time_elapsed":133740},{"target_group":"white","target_index":0,"condition_label":"practice","rt":-1,"response":"","correct":false,"choices":"ALL_KEYS","correct_choice":["a"],"trial_duration":2000,"flip_timestamps":[],"response_ends_trial":false,"number_of_apertures":2,"number_of_dots":[100,60],"number_of_sets":1,"coherent_direction":[318,53],"coherence":1,"opposite_coherence":0,"dot_radius":2,"dot_side_length":1,"dot_life":-1,"move_distance":1,"aperture_width":300,"aperture_height":300,"dot_color":["white","black"],"dot_shape":"circle","background_color":"#AAA","RDK_type":3,"aperture_type":2,"reinsert_type":2,"frame_rate":16.791666666666668,"frame_rate_array":[12,17,17,16,17,17,17,16,17,17,17,16,17,18,16,17,17,17,17,16,17,17,16,17,17,17,16,17,17,17,17,17,17,17,16,17,17,17,17,17,17,17,17,17,16,17,17,17,17,17,17,17,16,17,17,16,17,17,17,16,17,16,17,17,17,16,17,17,17,17,17,17,17,16,17,17,16,17,17,17,17,17,17,17,17,17,17,17,17,17,17,16,16,20,14,17,17,17,17,17,17,17,17,17,17,17,16,17,16,17,17,17,17,17,17,17,17,17,17,16],"number_of_frames":120,"aperture_center_x":691,"aperture_center_y":432,"fixation_cross":true,"fixation_cross_width":15,"fixation_cross_height":15,"fixation_cross_color":"#111","fixation_cross_thickness":1,"border":true,"border_thickness":2,"border_color":"transparent","canvas_width":1382,"canvas_height":864,"trial_type":"rdk","trial_index":27,"plugin_version":"2.0.0","time_elapsed":135753,"phase":"practice","target_direction":318,"distractor_direction":53},{"rt":5239,"stimulus":"\n        <div class=\"response-container\">\n          <div class=\"response-instruction\">\n            <p>rotate the bar by using the left and right arrow keys.</p>\n            <p>when you are determined, press the Enter key.</p>\n          </div>\n          <div class=\"response-circle\">\n            <div class=\"response-fixation\"></div>\n            <div id=\"bar\" class=\"rotating-bar\"></div>\n          </div>\n        </div>\n      ","response":"Enter","trial_type":"html-keyboard-response","trial_index":28,"plugin_version":"2.1.0","time_elapsed":140994,"random_initial_angle":6,"response_angle_css":136,"response_angle_rdk":314,"angular_error_target":-4,"angular_error_distractor":-99,"target_direction":318,"target_group":"white","reward_points":9},{"rt":null,"stimulus":"\n          <p style=\"color: #00FF00;\">Your reward: 9 points</p>\n        ","response":null,"trial_type":"html-keyboard-response","trial_index":29,"plugin_version":"2.1.0","time_elapsed":142996},{"rt":null,"stimulus":"<div class=\"fixation\" style=\"font-size: 60px;\">+</div>","response":null,"trial_type":"html-keyboard-response","trial_index":30,"plugin_version":"2.1.0","time_elapsed":144008},{"target_group":"white","target_index":0,"condition_label":"practice","rt":-1,"response":"","correct":false,"choices":"ALL_KEYS","correct_choice":["a"],"trial_duration":2000,"flip_timestamps":[],"response_ends_trial":false,"number_of_apertures":2,"number_of_dots":[100,98],"number_of_sets":1,"coherent_direction":[172,347],"coherence":1,"opposite_coherence":0,"dot_radius":2,"dot_side_length":1,"dot_life":-1,"move_distance":1,"aperture_width":300,"aperture_height":300,"dot_color":["white","black"],"dot_shape":"circle","background_color":"#AAA","RDK_type":3,"aperture_type":2,"reinsert_type":2,"frame_rate":16.636363636363637,"frame_rate_array":[6,12,17,19,16,17,16,16,17,18,15,16,18,16,17,19,17,16,17,16,17,18,17,17,17,15,16,18,17,16,18,15,17,17,16,18,17,16,17,18,15,17,18,15,17,18,16,17,17,16,17,15,16,17,17,16,17,18,16,17,17,16,17,18,16,17,16,17,16,17,17,17,17,17,17,17,17,17,17,17,16,17,17,17,17,16,17,18,16,17,17,16,16,18,15,16,17,17,17,18,16,17,17,17,17,17,17,17,17,16,17,17,16,16,18,15,17,17,17,17,16],"number_of_frames":121,"aperture_center_x":691,"aperture_center_y":432,"fixation_cross":true,"fixation_cross_width":15,"fixation_cross_height":15,"fixation_cross_color":"#111","fixation_cross_thickness":1,"border":true,"border_thickness":2,"border_color":"transparent","canvas_width":1382,"canvas_height":864,"trial_type":"rdk","trial_index":31,"plugin_version":"2.0.0","time_elapsed":146016,"phase":"practice","target_direction":172,"distractor_direction":347},{"rt":4613,"stimulus":"\n        <div class=\"response-container\">\n          <div class=\"response-instruction\">\n            <p>rotate the bar by using the left and right arrow keys.</p>\n            <p>when you are determined, press the Enter key.</p>\n          </div>\n          <div class=\"response-circle\">\n            <div class=\"response-fixation\"></div>\n            <div id=\"bar\" class=\"rotating-bar\"></div>\n          </div>\n        </div>\n      ","response":"Enter","trial_type":"html-keyboard-response","trial_index":32,"plugin_version":"2.1.0","time_elapsed":150630,"random_initial_angle":82,"response_angle_css":-54,"response_angle_rdk":144,"angular_error_target":-28,"angular_error_distractor":157,"target_direction":172,"target_group":"white","reward_points":4},{"rt":null,"stimulus":"\n          <p style=\"color: #00FF00;\">Your reward: 4 points</p>\n        ","response":null,"trial_type":"html-keyboard-response","trial_index":33,"plugin_version":"2.1.0","time_elapsed":152640},{"rt":null,"stimulus":"<div class=\"fixation\" style=\"font-size: 60px;\">+</div>","response":null,"trial_type":"html-keyboard-response","trial_index":34,"plugin_version":"2.1.0","time_elapsed":153654},{"target_group":"white","target_index":0,"condition_label":"practice","rt":-1,"response":"","correct":false,"choices":"ALL_KEYS","correct_choice":["a"],"trial_duration":2000,"flip_timestamps":[],"response_ends_trial":false,"number_of_apertures":2,"number_of_dots":[100,100],"number_of_sets":1,"coherent_direction":[58,152],"coherence":1,"opposite_coherence":0,"dot_radius":2,"dot_side_length":1,"dot_life":-1,"move_distance":1,"aperture_width":300,"aperture_height":300,"dot_color":["white","black"],"dot_shape":"circle","background_color":"#AAA","RDK_type":3,"aperture_type":2,"reinsert_type":2,"frame_rate":16.791666666666668,"frame_rate_array":[15,17,17,16,16,17,17,17,16,17,16,17,16,17,16,17,17,17,17,17,17,16,17,17,17,17,16,17,17,17,17,17,17,16,17,17,17,17,16,17,17,17,17,17,17,16,16,17,17,17,17,18,16,17,17,17,17,16,17,17,17,16,17,17,16,17,17,16,16,17,17,17,17,17,17,17,17,17,17,17,17,17,17,17,17,17,18,16,17,17,17,17,17,17,16,17,16,17,16,17,16,18,16,17,17,17,17,17,16,17,16,17,17,17,17,17,17,17,17,17],"number_of_frames":120,"aperture_center_x":691,"aperture_center_y":432,"fixation_cross":true,"fixation_cross_width":15,"fixation_cross_height":15,"fixation_cross_color":"#111","fixation_cross_thickness":1,"border":true,"border_thickness":2,"border_color":"transparent","canvas_width":1382,"canvas_height":864,"trial_type":"rdk","trial_index":35,"plugin_version":"2.0.0","time_elapsed":155666,"phase":"practice","target_direction":58,"distractor_direction":152},{"rt":4226,"stimulus":"\n        <div class=\"response-container\">\n          <div class=\"response-instruction\">\n            <p>rotate the bar by using the left and right arrow keys.</p>\n            <p>when you are determined, press the Enter key.</p>\n          </div>\n          <div class=\"response-circle\">\n            <div class=\"response-fixation\"></div>\n            <div id=\"bar\" class=\"rotating-bar\"></div>\n          </div>\n        </div>\n      ","response":"Enter","trial_type":"html-keyboard-response","trial_index":36,"plugin_version":"2.1.0","time_elapsed":159894,"random_initial_angle":94,"response_angle_css":45,"response_angle_rdk":45,"angular_error_target":-13,"angular_error_distractor":-107,"target_direction":58,"target_group":"white","reward_points":7},{"rt":null,"stimulus":"\n          <p style=\"color: #00FF00;\">Your reward: 7 points</p>\n        ","response":null,"trial_type":"html-keyboard-response","trial_index":37,"plugin_version":"2.1.0","time_elapsed":161901},{"rt":null,"stimulus":"<div class=\"fixation\" style=\"font-size: 60px;\">+</div>","response":null,"trial_type":"html-keyboard-response","trial_index":38,"plugin_version":"2.1.0","time_elapsed":162930},{"target_group":"white","target_index":0,"condition_label":"practice","rt":-1,"response":"","correct":false,"choices":"ALL_KEYS","correct_choice":["a"],"trial_duration":2000,"flip_timestamps":[],"response_ends_trial":false,"number_of_apertures":2,"number_of_dots":[100,74],"number_of_sets":1,"coherent_direction":[40,190],"coherence":1,"opposite_coherence":0,"dot_radius":2,"dot_side_length":1,"dot_life":-1,"move_distance":1,"aperture_width":300,"aperture_height":300,"dot_color":["white","black"],"dot_shape":"circle","background_color":"#AAA","RDK_type":3,"aperture_type":2,"reinsert_type":2,"frame_rate":16.619834710743802,"frame_rate_array":[4,17,17,17,17,17,17,17,17,17,18,16,17,16,17,16,18,16,17,17,16,16,18,16,17,17,16,17,17,16,17,17,17,17,18,15,17,17,16,16,17,16,17,17,16,17,17,16,17,17,17,17,17,16,17,17,16,16,18,16,16,17,17,17,17,17,17,17,17,17,17,16,17,17,17,16,17,17,17,17,17,17,18,15,16,17,17,16,18,16,17,16,17,16,17,16,17,17,16,16,18,16,16,17,17,17,17,16,16,17,16,17,17,16,16,17,16,17,17,17,17],"number_of_frames":121,"aperture_center_x":691,"aperture_center_y":432,"fixation_cross":true,"fixation_cross_width":15,"fixation_cross_height":15,"fixation_cross_color":"#111","fixation_cross_thickness":1,"border":true,"border_thickness":2,"border_color":"transparent","canvas_width":1382,"canvas_height":864,"trial_type":"rdk","trial_index":39,"plugin_version":"2.0.0","time_elapsed":164937,"phase":"practice","target_direction":40,"distractor_direction":190},{"rt":2343,"stimulus":"\n        <div class=\"response-container\">\n          <div class=\"response-instruction\">\n            <p>rotate the bar by using the left and right arrow keys.</p>\n            <p>when you are determined, press the Enter key.</p>\n          </div>\n          <div class=\"response-circle\">\n            <div class=\"response-fixation\"></div>\n            <div id=\"bar\" class=\"rotating-bar\"></div>\n          </div>\n        </div>\n      ","response":"Enter","trial_type":"html-keyboard-response","trial_index":40,"plugin_version":"2.1.0","time_elapsed":167281,"random_initial_angle":29,"response_angle_css":48,"response_angle_rdk":42,"angular_error_target":2,"angular_error_distractor":-148,"target_direction":40,"target_group":"white","reward_points":9},{"rt":null,"stimulus":"\n          <p style=\"color: #00FF00;\">Your reward: 9 points</p>\n        ","response":null,"trial_type":"html-keyboard-response","trial_index":41,"plugin_version":"2.1.0","time_elapsed":169288},{"rt":null,"stimulus":"<div class=\"fixation\" style=\"font-size: 60px;\">+</div>","response":null,"trial_type":"html-keyboard-response","trial_index":42,"plugin_version":"2.1.0","time_elapsed":170304},{"target_group":"black","target_index":1,"condition_label":"practice","rt":-1,"response":"","correct":false,"choices":"ALL_KEYS","correct_choice":["a"],"trial_duration":2000,"flip_timestamps":[],"response_ends_trial":false,"number_of_apertures":2,"number_of_dots":[71,100],"number_of_sets":1,"coherent_direction":[144,28],"coherence":1,"opposite_coherence":0,"dot_radius":2,"dot_side_length":1,"dot_life":-1,"move_distance":1,"aperture_width":300,"aperture_height":300,"dot_color":["white","black"],"dot_shape":"circle","background_color":"#AAA","RDK_type":3,"aperture_type":2,"reinsert_type":2,"frame_rate":16.675,"frame_rate_array":[4,17,17,17,17,17,16,17,17,16,17,17,17,17,16,17,16,17,18,16,17,17,20,14,17,17,16,16,17,17,17,17,16,18,16,16,17,16,17,17,16,16,17,17,16,17,17,17,17,17,17,17,17,16,17,17,17,16,17,16,16,17,17,17,17,17,17,16,17,17,16,17,17,17,16,17,17,16,17,17,17,17,17,17,17,16,17,16,17,16,17,16,17,17,17,16,17,17,16,17,17,17,17,17,17,17,17,17,17,17,17,17,17,17,17,17,17,17,17,17],"number_of_frames":120,"aperture_center_x":691,"aperture_center_y":432,"fixation_cross":true,"fixation_cross_width":15,"fixation_cross_height":15,"fixation_cross_color":"#111","fixation_cross_thickness":1,"border":true,"border_thickness":2,"border_color":"transparent","canvas_width":1382,"canvas_height":864,"trial_type":"rdk","trial_index":43,"plugin_version":"2.0.0","time_elapsed":172308,"phase":"practice","target_direction":28,"distractor_direction":144},{"rt":3722,"stimulus":"\n        <div class=\"response-container\">\n          <div class=\"response-instruction\">\n            <p>rotate the bar by using the left and right arrow keys.</p>\n            <p>when you are determined, press the Enter key.</p>\n          </div>\n          <div class=\"response-circle\">\n            <div class=\"response-fixation\"></div>\n            <div id=\"bar\" class=\"rotating-bar\"></div>\n          </div>\n        </div>\n      ","response":"Enter","trial_type":"html-keyboard-response","trial_index":44,"plugin_version":"2.1.0","time_elapsed":176030,"random_initial_angle":32,"response_angle_css":-57,"response_angle_rdk":147,"angular_error_target":119,"angular_error_distractor":3,"target_direction":28,"target_group":"black","reward_points":0},{"rt":null,"stimulus":"\n          <p style=\"color: #FF3333;\">Your reward: 0 points</p>\n        ","response":null,"trial_type":"html-keyboard-response","trial_index":45,"plugin_version":"2.1.0","time_elapsed":178039},{"rt":null,"stimulus":"<div class=\"fixation\" style=\"font-size: 60px;\">+</div>","response":null,"trial_type":"html-keyboard-response","trial_index":46,"plugin_version":"2.1.0","time_elapsed":179055},{"target_group":"white","target_index":0,"condition_label":"practice","rt":-1,"response":"","correct":false,"choices":"ALL_KEYS","correct_choice":["a"],"trial_duration":2000,"flip_timestamps":[],"response_ends_trial":false,"number_of_apertures":2,"number_of_dots":[100,69],"number_of_sets":1,"coherent_direction":[278,102],"coherence":1,"opposite_coherence":0,"dot_radius":2,"dot_side_length":1,"dot_life":-1,"move_distance":1,"aperture_width":300,"aperture_height":300,"dot_color":["white","black"],"dot_shape":"circle","background_color":"#AAA","RDK_type":3,"aperture_type":2,"reinsert_type":2,"frame_rate":16.716666666666665,"frame_rate_array":[12,17,17,16,17,17,17,17,17,16,17,17,16,17,19,15,16,17,16,17,17,17,17,17,16,17,17,16,17,16,17,17,18,16,17,17,17,17,17,17,16,17,16,17,18,16,17,16,17,16,17,17,17,17,16,17,17,16,16,17,17,17,17,16,17,17,16,17,17,17,18,16,17,17,17,16,17,17,17,17,17,17,17,17,16,17,17,16,17,17,16,17,17,16,17,17,17,17,16,17,17,17,17,17,16,17,16,17,16,17,16,17,16,18,16,16,17,17,17,17],"number_of_frames":120,"aperture_center_x":691,"aperture_center_y":432,"fixation_cross":true,"fixation_cross_width":15,"fixation_cross_height":15,"fixation_cross_color":"#111","fixation_cross_thickness":1,"border":true,"border_thickness":2,"border_color":"transparent","canvas_width":1382,"canvas_height":864,"trial_type":"rdk","trial_index":47,"plugin_version":"2.0.0","time_elapsed":181061,"phase":"practice","target_direction":278,"distractor_direction":102},{"rt":3695,"stimulus":"\n        <div class=\"response-container\">\n          <div class=\"response-instruction\">\n            <p>rotate the bar by using the left and right arrow keys.</p>\n            <p>when you are determined, press the Enter key.</p>\n          </div>\n          <div class=\"response-circle\">\n            <div class=\"response-fixation\"></div>\n            <div id=\"bar\" class=\"rotating-bar\"></div>\n          </div>\n        </div>\n      ","response":"Enter","trial_type":"html-keyboard-response","trial_index":48,"plugin_version":"2.1.0","time_elapsed":184757,"random_initial_angle":35,"response_angle_css":146,"response_angle_rdk":304,"angular_error_target":26,"angular_error_distractor":-158,"target_direction":278,"target_group":"white","reward_points":4},{"rt":null,"stimulus":"\n          <p style=\"color: #00FF00;\">Your reward: 4 points</p>\n        ","response":null,"trial_type":"html-keyboard-response","trial_index":49,"plugin_version":"2.1.0","time_elapsed":186760},{"rt":null,"stimulus":"<div class=\"fixation\" style=\"font-size: 60px;\">+</div>","response":null,"trial_type":"html-keyboard-response","trial_index":50,"plugin_version":"2.1.0","time_elapsed":187773},{"target_group":"black","target_index":1,"condition_label":"practice","rt":-1,"response":"","correct":false,"choices":"ALL_KEYS","correct_choice":["a"],"trial_duration":2000,"flip_timestamps":[],"response_ends_trial":false,"number_of_apertures":2,"number_of_dots":[64,100],"number_of_sets":1,"coherent_direction":[217,7],"coherence":1,"opposite_coherence":0,"dot_radius":2,"dot_side_length":1,"dot_life":-1,"move_distance":1,"aperture_width":300,"aperture_height":300,"dot_color":["white","black"],"dot_shape":"circle","background_color":"#AAA","RDK_type":3,"aperture_type":2,"reinsert_type":2,"frame_rate":16.716666666666665,"frame_rate_array":[17,16,16,17,17,16,17,16,17,16,16,17,17,16,16,18,16,16,17,17,17,18,17,17,17,16,17,17,17,16,17,16,17,17,17,17,17,16,17,17,17,17,17,17,16,17,17,17,17,16,17,17,17,17,17,16,17,17,16,17,17,16,17,18,16,16,18,15,16,18,16,16,18,16,16,17,17,17,17,16,16,17,17,17,17,17,16,17,16,17,17,16,17,17,16,17,17,16,17,17,16,17,16,17,16,18,16,17,17,17,17,17,15,17,17,17,17,18,16,17],"number_of_frames":120,"aperture_center_x":691,"aperture_center_y":432,"fixation_cross":true,"fixation_cross_width":15,"fixation_cross_height":15,"fixation_cross_color":"#111","fixation_cross_thickness":1,"border":true,"border_thickness":2,"border_color":"transparent","canvas_width":1382,"canvas_height":864,"trial_type":"rdk","trial_index":51,"plugin_version":"2.0.0","time_elapsed":189780,"phase":"practice","target_direction":7,"distractor_direction":217},{"rt":2607,"stimulus":"\n        <div class=\"response-container\">\n          <div class=\"response-instruction\">\n            <p>rotate the bar by using the left and right arrow keys.</p>\n            <p>when you are determined, press the Enter key.</p>\n          </div>\n          <div class=\"response-circle\">\n            <div class=\"response-fixation\"></div>\n            <div id=\"bar\" class=\"rotating-bar\"></div>\n          </div>\n        </div>\n      ","response":"Enter","trial_type":"html-keyboard-response","trial_index":52,"plugin_version":"2.1.0","time_elapsed":192388,"random_initial_angle":276,"response_angle_css":235,"response_angle_rdk":215,"angular_error_target":-152,"angular_error_distractor":-2,"target_direction":7,"target_group":"black","reward_points":0},{"rt":null,"stimulus":"\n          <p style=\"color: #FF3333;\">Your reward: 0 points</p>\n        ","response":null,"trial_type":"html-keyboard-response","trial_index":53,"plugin_version":"2.1.0","time_elapsed":194390},{"rt":null,"stimulus":"<div class=\"fixation\" style=\"font-size: 60px;\">+</div>","response":null,"trial_type":"html-keyboard-response","trial_index":54,"plugin_version":"2.1.0","time_elapsed":195393},{"target_group":"black","target_index":1,"condition_label":"practice","rt":-1,"response":"","correct":false,"choices":"ALL_KEYS","correct_choice":["a"],"trial_duration":2000,"flip_timestamps":[],"response_ends_trial":false,"number_of_apertures":2,"number_of_dots":[50,100],"number_of_sets":1,"coherent_direction":[210,55],"coherence":1,"opposite_coherence":0,"dot_radius":2,"dot_side_length":1,"dot_life":-1,"move_distance":1,"aperture_width":300,"aperture_height":300,"dot_color":["white","black"],"dot_shape":"circle","background_color":"#AAA","RDK_type":3,"aperture_type":2,"reinsert_type":2,"frame_rate":16.702479338842974,"frame_rate_array":[10,15,17,18,15,17,18,14,17,18,16,17,16,17,16,17,17,17,16,17,17,18,16,17,17,16,17,18,15,16,18,17,16,18,15,18,18,16,16,16,18,17,17,16,17,17,16,17,18,16,17,18,15,17,20,13,17,18,15,16,19,14,18,16,17,17,20,13,17,18,16,16,16,17,17,17,17,17,17,17,17,17,17,16,18,17,16,16,17,17,18,15,17,18,16,17,19,15,17,16,17,17,17,16,17,18,16,16,19,15,17,18,16,17,16,17,16,17,17,17,18],"number_of_frames":121,"aperture_center_x":691,"aperture_center_y":432,"fixation_cross":true,"fixation_cross_width":15,"fixation_cross_height":15,"fixation_cross_color":"#111","fixation_cross_thickness":1,"border":true,"border_thickness":2,"border_color":"transparent","canvas_width":1382,"canvas_height":864,"trial_type":"rdk","trial_index":55,"plugin_version":"2.0.0","time_elapsed":197405,"phase":"practice","target_direction":55,"distractor_direction":210},{"rt":3675,"stimulus":"\n        <div class=\"response-container\">\n          <div class=\"response-instruction\">\n            <p>rotate the bar by using the left and right arrow keys.</p>\n            <p>when you are determined, press the Enter key.</p>\n          </div>\n          <div class=\"response-circle\">\n            <div class=\"response-fixation\"></div>\n            <div id=\"bar\" class=\"rotating-bar\"></div>\n          </div>\n        </div>\n      ","response":"Enter","trial_type":"html-keyboard-response","trial_index":56,"plugin_version":"2.1.0","time_elapsed":201081,"random_initial_angle":100,"response_angle_css":38,"response_angle_rdk":52,"angular_error_target":-3,"angular_error_distractor":-158,"target_direction":55,"target_group":"black","reward_points":9},{"rt":null,"stimulus":"\n          <p style=\"color: #00FF00;\">Your reward: 9 points</p>\n        ","response":null,"trial_type":"html-keyboard-response","trial_index":57,"plugin_version":"2.1.0","time_elapsed":203095},{"rt":null,"stimulus":"<div class=\"fixation\" style=\"font-size: 60px;\">+</div>","response":null,"trial_type":"html-keyboard-response","trial_index":58,"plugin_version":"2.1.0","time_elapsed":204109},{"target_group":"white","target_index":0,"condition_label":"practice","rt":-1,"response":"","correct":false,"choices":"ALL_KEYS","correct_choice":["a"],"trial_duration":2000,"flip_timestamps":[],"response_ends_trial":false,"number_of_apertures":2,"number_of_dots":[100,82],"number_of_sets":1,"coherent_direction":[157,297],"coherence":1,"opposite_coherence":0,"dot_radius":2,"dot_side_length":1,"dot_life":-1,"move_distance":1,"aperture_width":300,"aperture_height":300,"dot_color":["white","black"],"dot_shape":"circle","background_color":"#AAA","RDK_type":3,"aperture_type":2,"reinsert_type":2,"frame_rate":16.725,"frame_rate_array":[14,18,16,16,18,16,17,18,15,17,17,16,17,18,16,16,17,17,16,17,17,16,17,17,17,18,15,17,17,16,17,18,16,17,17,15,17,17,16,17,17,17,17,18,15,17,17,17,15,18,16,17,18,16,16,17,17,17,17,16,17,17,16,16,17,16,17,16,16,17,17,17,17,17,17,17,17,16,17,17,17,17,17,17,17,17,16,17,17,17,17,17,16,17,17,17,16,17,17,17,18,16,16,16,17,17,17,17,16,17,16,17,17,16,17,17,17,17,17,17],"number_of_frames":120,"aperture_center_x":691,"aperture_center_y":432,"fixation_cross":true,"fixation_cross_width":15,"fixation_cross_height":15,"fixation_cross_color":"#111","fixation_cross_thickness":1,"border":true,"border_thickness":2,"border_color":"transparent","canvas_width":1382,"canvas_height":864,"trial_type":"rdk","trial_index":59,"plugin_version":"2.0.0","time_elapsed":206117,"phase":"practice","target_direction":157,"distractor_direction":297},{"rt":5182,"stimulus":"\n        <div class=\"response-container\">\n          <div class=\"response-instruction\">\n            <p>rotate the bar by using the left and right arrow keys.</p>\n            <p>when you are determined, press the Enter key.</p>\n          </div>\n          <div class=\"response-circle\">\n            <div class=\"response-fixation\"></div>\n            <div id=\"bar\" class=\"rotating-bar\"></div>\n          </div>\n        </div>\n      ","response":"Enter","trial_type":"html-keyboard-response","trial_index":60,"plugin_version":"2.1.0","time_elapsed":211300,"random_initial_angle":294,"response_angle_css":491,"response_angle_rdk":319,"angular_error_target":162,"angular_error_distractor":22,"target_direction":157,"target_group":"white","reward_points":0},{"rt":null,"stimulus":"\n          <p style=\"color: #FF3333;\">Your reward: 0 points</p>\n        ","response":null,"trial_type":"html-keyboard-response","trial_index":61,"plugin_version":"2.1.0","time_elapsed":213308},{"rt":null,"stimulus":"<div class=\"fixation\" style=\"font-size: 60px;\">+</div>","response":null,"trial_type":"html-keyboard-response","trial_index":62,"plugin_version":"2.1.0","time_elapsed":214321},{"target_group":"white","target_index":0,"condition_label":"practice","rt":-1,"response":"","correct":false,"choices":"ALL_KEYS","correct_choice":["a"],"trial_duration":2000,"flip_timestamps":[],"response_ends_trial":false,"number_of_apertures":2,"number_of_dots":[100,92],"number_of_sets":1,"coherent_direction":[37,273],"coherence":1,"opposite_coherence":0,"dot_radius":2,"dot_side_length":1,"dot_life":-1,"move_distance":1,"aperture_width":300,"aperture_height":300,"dot_color":["white","black"],"dot_shape":"circle","background_color":"#AAA","RDK_type":3,"aperture_type":2,"reinsert_type":2,"frame_rate":16.58677685950413,"frame_rate_array":[6,11,17,17,18,16,17,16,16,18,18,16,16,17,16,16,17,17,17,18,16,16,17,16,16,18,16,17,17,16,17,17,16,17,18,16,16,17,17,16,17,17,17,17,16,16,18,16,16,18,16,16,18,15,17,18,16,16,18,17,16,17,16,16,18,16,17,18,16,16,18,15,17,18,16,17,17,16,16,19,16,16,16,17,17,17,17,17,17,17,17,19,14,17,17,17,17,17,16,17,16,18,16,16,17,17,17,17,16,18,16,17,17,16,16,18,16,17,15,17,17],"number_of_frames":121,"aperture_center_x":691,"aperture_center_y":432,"fixation_cross":true,"fixation_cross_width":15,"fixation_cross_height":15,"fixation_cross_color":"#111","fixation_cross_thickness":1,"border":true,"border_thickness":2,"border_color":"transparent","canvas_width":1382,"canvas_height":864,"trial_type":"rdk","trial_index":63,"plugin_version":"2.0.0","time_elapsed":216328,"phase":"practice","target_direction":37,"distractor_direction":273},{"rt":5197,"stimulus":"\n        <div class=\"response-container\">\n          <div class=\"response-instruction\">\n            <p>rotate the bar by using the left and right arrow keys.</p>\n            <p>when you are determined, press the Enter key.</p>\n          </div>\n          <div class=\"response-circle\">\n            <div class=\"response-fixation\"></div>\n            <div id=\"bar\" class=\"rotating-bar\"></div>\n          </div>\n        </div>\n      ","response":"Enter","trial_type":"html-keyboard-response","trial_index":64,"plugin_version":"2.1.0","time_elapsed":221527,"random_initial_angle":170,"response_angle_css":25,"response_angle_rdk":65,"angular_error_target":28,"angular_error_distractor":152,"target_direction":37,"target_group":"white","reward_points":4},{"rt":null,"stimulus":"\n          <p style=\"color: #00FF00;\">Your reward: 4 points</p>\n        ","response":null,"trial_type":"html-keyboard-response","trial_index":65,"plugin_version":"2.1.0","time_elapsed":223533},{"rt":3527,"stimulus":"\n        <div class=\"instructions-container\">\n          <h2>End of Practice</h2>\n          <p>You have completed the practice trials.</p>\n          <p>Press <strong>Enter</strong> key to begin the main experiment.</p>\n        </div>\n      ","response":"Enter","trial_type":"html-keyboard-response","trial_index":66,"plugin_version":"2.1.0","time_elapsed":227062},{"rt":null,"stimulus":"<div class=\"fixation\" style=\"font-size: 60px;\">+</div>","response":null,"trial_type":"html-keyboard-response","trial_index":67,"plugin_version":"2.1.0","time_elapsed":228072},{"phase":"learning-awareness","target_group":"black","condition_label":"B_H_vs_W_L_rep9","target_direction":61,"distractor_direction":170,"session_rotation":324,"rt":-1,"response":"","correct":false,"choices":"ALL_KEYS","correct_choice":["a"],"trial_duration":2000,"flip_timestamps":[],"response_ends_trial":false,"number_of_apertures":200,"number_of_dots":[1,1,1,1,1,1,1,1,1,1,1,1,1,1,1,1,1,1,1,1,1,1,1,1,1,1,1,1,1,1,1,1,1,1,1,1,1,1,1,1,1,1,1,1,1,1,1,1,1,1,1,1,1,1,1,1,1,1,1,1,1,1,1,1,1,1,1,1,1,1,1,1,1,1,1,1,1,1,1,1,1,1,1,1,1,1,1,1,1,1,1,1,1,1,1,1,1,1,1,1,1,1,1,1,1,1,1,1,1,1,1,1,1,1,1,1,1,1,1,1,1,1,1,1,1,1,1,1,1,1,1,1,1,1,1,1,1,1,1,1,1,1,1,1,1,1,1,1,1,1,1,1,1,1,1,1,1,1,1,1,1,1,1,1,1,1,1,1,1,1,1,1,1,1,1,1,1,1,1,1,1,1,1,1,1,1,1,1,1,1,1,1,1,1,1,1,1,1,1,1],"number_of_sets":1,"coherent_direction":[170,170,170,170,170,61,61,170,61,61,61,170,170,61,170,61,61,61,170,170,61,170,170,61,170,61,170,170,170,61,61,61,61,170,61,61,170,170,61,170,61,61,170,61,61,61,61,170,61,61,170,61,170,61,170,170,61,61,61,170,61,61,61,61,170,61,170,61,170,61,170,61,170,170,61,170,170,61,170,170,61,170,170,61,170,61,170,170,61,170,61,170,61,170,170,170,170,170,61,170,61,61,170,170,170,61,61,61,61,170,170,170,170,170,61,61,61,61,61,61,61,170,170,170,61,61,170,61,170,170,61,170,61,61,170,170,61,170,170,170,170,170,61,61,61,170,170,170,61,61,61,61,170,61,61,170,170,61,61,61,170,170,61,61,170,170,61,170,170,170,170,61,170,61,61,61,61,61,170,170,170,61,170,170,170,61,61,61,170,170,170,61,61,61,170,61,170,61,61,170],"coherence":1,"opposite_coherence":0,"dot_radius":2,"dot_side_length":1,"dot_life":-1,"move_distance":1,"aperture_width":300,"aperture_height":300,"dot_color":["white","white","white","white","white","black","black","white","black","black","black","white","white","black","white","black","black","black","white","white","black","white","white","black","white","black","white","white","white","black","black","black","black","white","black","black","white","white","black","white","black","black","white","black","black","black","black","white","black","black","white","black","white","black","white","white","black","black","black","white","black","black","black","black","white","black","white","black","white","black","white","black","white","white","black","white","white","black","white","white","black","white","white","black","white","black","white","white","black","white","black","white","black","white","white","white","white","white","black","white","black","black","white","white","white","black","black","black","black","white","white","white","white","white","black","black","black","black","black","black","black","white","white","white","black","black","white","black","white","white","black","white","black","black","white","white","black","white","white","white","white","white","black","black","black","white","white","white","black","black","black","black","white","black","black","white","white","black","black","black","white","white","black","black","white","white","black","white","white","white","white","black","white","black","black","black","black","black","white","white","white","black","white","white","white","black","black","black","white","white","white","black","black","black","white","black","white","black","black","white"],"dot_shape":"circle","background_color":"#AAA","RDK_type":3,"aperture_type":2,"reinsert_type":2,"frame_rate":16.578512396694215,"frame_rate_array":[7,12,14,17,18,16,17,18,14,16,18,17,17,17,18,14,17,17,16,19,16,15,16,18,16,17,17,16,17,17,15,19,14,18,17,16,17,18,15,15,17,15,18,18,18,16,17,16,16,19,16,17,18,16,16,18,15,17,17,17,17,16,17,17,18,16,17,17,15,16,17,18,15,18,16,18,16,16,17,18,15,17,18,15,17,19,14,17,18,17,16,18,16,16,18,16,17,18,16,17,18,16,16,17,15,18,17,18,16,17,16,17,17,16,16,19,14,17,17,17,17],"number_of_frames":121,"aperture_center_x":691,"aperture_center_y":432,"fixation_cross":true,"fixation_cross_width":15,"fixation_cross_height":15,"fixation_cross_color":"#111","fixation_cross_thickness":1,"border":true,"border_thickness":2,"border_color":"transparent","canvas_width":1382,"canvas_height":864,"trial_type":"rdk","trial_index":68,"plugin_version":"2.0.0","time_elapsed":230078},{"rt":10530,"stimulus":"\n        <div class=\"response-container\">\n          <div class=\"response-instruction\">\n            <p>rotate the bar by using the left and right arrow keys.</p>\n            <p>when you are determined, press the Enter key.</p>\n          </div>\n          <div class=\"response-circle\">\n            <div class=\"response-fixation\"></div>\n            <div id=\"bar\" class=\"rotating-bar\"></div>\n          </div>\n        </div>\n      ","response":"Enter","trial_type":"html-keyboard-response","trial_index":69,"plugin_version":"2.1.0","time_elapsed":240609,"random_initial_angle":183,"response_angle_css":38,"response_angle_rdk":52,"angular_error_target":-9,"angular_error_distractor":-118,"target_direction":61,"target_group":"black","reward_points":8},{"rt":null,"stimulus":"\n          <p style=\"color: #00FF00;\">Your reward: 8 points</p>\n        ","response":null,"trial_type":"html-keyboard-response","trial_index":70,"plugin_version":"2.1.0","time_elapsed":242621},{"rt":null,"stimulus":"<div class=\"fixation\" style=\"font-size: 60px;\">+</div>","response":null,"trial_type":"html-keyboard-response","trial_index":71,"plugin_version":"2.1.0","time_elapsed":243638},{"phase":"learning-awareness","target_group":"white","condition_label":"W_H_vs_B_L_rep24","target_direction":355,"distractor_direction":255,"session_rotation":324,"rt":-1,"response":"","correct":false,"choices":"ALL_KEYS","correct_choice":["a"],"trial_duration":2000,"flip_timestamps":[],"response_ends_trial":false,"number_of_apertures":200,"number_of_dots":[1,1,1,1,1,1,1,1,1,1,1,1,1,1,1,1,1,1,1,1,1,1,1,1,1,1,1,1,1,1,1,1,1,1,1,1,1,1,1,1,1,1,1,1,1,1,1,1,1,1,1,1,1,1,1,1,1,1,1,1,1,1,1,1,1,1,1,1,1,1,1,1,1,1,1,1,1,1,1,1,1,1,1,1,1,1,1,1,1,1,1,1,1,1,1,1,1,1,1,1,1,1,1,1,1,1,1,1,1,1,1,1,1,1,1,1,1,1,1,1,1,1,1,1,1,1,1,1,1,1,1,1,1,1,1,1,1,1,1,1,1,1,1,1,1,1,1,1,1,1,1,1,1,1,1,1,1,1,1,1,1,1,1,1,1,1,1,1,1,1,1,1,1,1,1,1,1,1,1,1,1,1,1,1,1,1,1,1,1,1,1,1,1,1,1,1,1,1,1,1],"number_of_sets":1,"coherent_direction":[355,355,355,255,255,255,255,255,255,355,355,355,255,255,255,255,255,355,255,255,255,355,255,355,255,355,255,355,255,255,255,255,255,355,355,255,355,355,355,255,355,255,255,255,355,355,355,255,255,355,255,255,255,355,355,355,355,255,355,255,355,355,355,255,255,255,355,255,355,255,355,255,355,255,255,255,355,255,255,355,355,255,355,255,255,355,255,255,355,355,355,255,255,355,355,355,255,255,355,355,355,355,355,355,355,355,255,355,355,355,255,255,255,355,355,255,255,355,355,255,255,255,255,355,355,255,255,355,355,355,355,255,255,255,355,355,255,255,255,355,355,355,355,355,255,255,355,255,255,355,255,255,255,255,355,355,255,355,355,255,255,355,255,255,255,355,355,355,355,355,355,255,355,255,255,355,355,255,355,355,255,255,255,255,255,355,355,355,255,255,255,355,355,255,255,355,355,355,355,355],"coherence":1,"opposite_coherence":0,"dot_radius":2,"dot_side_length":1,"dot_life":-1,"move_distance":1,"aperture_width":300,"aperture_height":300,"dot_color":["white","white","white","black","black","black","black","black","black","white","white","white","black","black","black","black","black","white","black","black","black","white","black","white","black","white","black","white","black","black","black","black","black","white","white","black","white","white","white","black","white","black","black","black","white","white","white","black","black","white","black","black","black","white","white","white","white","black","white","black","white","white","white","black","black","black","white","black","white","black","white","black","white","black","black","black","white","black","black","white","white","black","white","black","black","white","black","black","white","white","white","black","black","white","white","white","black","black","white","white","white","white","white","white","white","white","black","white","white","white","black","black","black","white","white","black","black","white","white","black","black","black","black","white","white","black","black","white","white","white","white","black","black","black","white","white","black","black","black","white","white","white","white","white","black","black","white","black","black","white","black","black","black","black","white","white","black","white","white","black","black","white","black","black","black","white","white","white","white","white","white","black","white","black","black","white","white","black","white","white","black","black","black","black","black","white","white","white","black","black","black","white","white","black","black","white","white","white","white","white"],"dot_shape":"circle","background_color":"#AAA","RDK_type":3,"aperture_type":2,"reinsert_type":2,"frame_rate":16.733333333333334,"frame_rate_array":[18,15,19,15,17,18,16,16,17,15,16,20,14,17,18,16,17,18,16,15,19,15,15,18,15,17,18,16,17,19,18,13,17,17,17,18,17,16,18,17,15,17,17,17,18,16,16,18,17,15,18,15,15,18,15,17,17,17,18,18,15,16,19,17,16,18,15,17,18,16,15,18,17,17,17,16,17,19,16,14,18,17,17,17,14,16,17,17,17,19,17,17,17,17,16,18,17,15,17,16,18,17,17,16,17,19,14,18,16,17,17,16,17,17,16,17,16,16,17,17],"number_of_frames":120,"aperture_center_x":691,"aperture_center_y":432,"fixation_cross":true,"fixation_cross_width":15,"fixation_cross_height":15,"fixation_cross_color":"#111","fixation_cross_thickness":1,"border":true,"border_thickness":2,"border_color":"transparent","canvas_width":1382,"canvas_height":864,"trial_type":"rdk","trial_index":72,"plugin_version":"2.0.0","time_elapsed":245644},{"rt":6344,"stimulus":"\n        <div class=\"response-container\">\n          <div class=\"response-instruction\">\n            <p>rotate the bar by using the left and right arrow keys.</p>\n            <p>when you are determined, press the Enter key.</p>\n          </div>\n          <div class=\"response-circle\">\n            <div class=\"response-fixation\"></div>\n            <div id=\"bar\" class=\"rotating-bar\"></div>\n          </div>\n        </div>\n      ","response":"Enter","trial_type":"html-keyboard-response","trial_index":73,"plugin_version":"2.1.0","time_elapsed":251989,"random_initial_angle":70,"response_angle_css":-132,"response_angle_rdk":222,"angular_error_target":-133,"angular_error_distractor":-33,"target_direction":355,"target_group":"white","reward_points":0},{"rt":null,"stimulus":"\n          <p style=\"color: #FF3333;\">Your reward: 0 points</p>\n        ","response":null,"trial_type":"html-keyboard-response","trial_index":74,"plugin_version":"2.1.0","time_elapsed":254001},{"rt":null,"stimulus":"<div class=\"fixation\" style=\"font-size: 60px;\">+</div>","response":null,"trial_type":"html-keyboard-response","trial_index":75,"plugin_version":"2.1.0","time_elapsed":255015},{"phase":"learning-awareness","target_group":"white","condition_label":"W_H_vs_B_L_rep20","target_direction":356,"distractor_direction":255,"session_rotation":324,"rt":-1,"response":"","correct":false,"choices":"ALL_KEYS","correct_choice":["a"],"trial_duration":2000,"flip_timestamps":[],"response_ends_trial":false,"number_of_apertures":200,"number_of_dots":[1,1,1,1,1,1,1,1,1,1,1,1,1,1,1,1,1,1,1,1,1,1,1,1,1,1,1,1,1,1,1,1,1,1,1,1,1,1,1,1,1,1,1,1,1,1,1,1,1,1,1,1,1,1,1,1,1,1,1,1,1,1,1,1,1,1,1,1,1,1,1,1,1,1,1,1,1,1,1,1,1,1,1,1,1,1,1,1,1,1,1,1,1,1,1,1,1,1,1,1,1,1,1,1,1,1,1,1,1,1,1,1,1,1,1,1,1,1,1,1,1,1,1,1,1,1,1,1,1,1,1,1,1,1,1,1,1,1,1,1,1,1,1,1,1,1,1,1,1,1,1,1,1,1,1,1,1,1,1,1,1,1,1,1,1,1,1,1,1,1,1,1,1,1,1,1,1,1,1,1,1,1,1,1,1,1,1,1,1,1,1,1,1,1,1,1,1,1,1,1],"number_of_sets":1,"coherent_direction":[255,356,255,356,356,255,356,255,356,255,356,356,356,255,255,356,255,255,356,356,255,255,356,356,255,255,356,255,356,356,356,255,356,255,255,356,356,356,255,356,255,356,356,356,255,356,255,255,255,356,255,356,255,356,356,356,255,255,255,356,255,356,255,356,356,255,255,356,356,356,356,255,356,255,356,356,356,356,255,255,356,255,356,255,255,255,356,356,255,356,255,356,356,356,255,356,255,255,356,356,255,255,255,255,255,356,255,255,356,356,356,255,255,356,356,356,356,356,356,356,255,255,255,356,255,255,255,255,255,356,255,255,356,255,356,255,255,255,356,255,255,255,356,255,356,356,255,255,255,356,356,356,356,356,255,356,255,255,356,356,255,255,356,356,356,356,255,356,255,356,255,255,255,255,255,356,255,356,356,255,356,255,255,255,356,255,255,356,356,255,255,356,255,255,356,356,356,255,356,255],"coherence":1,"opposite_coherence":0,"dot_radius":2,"dot_side_length":1,"dot_life":-1,"move_distance":1,"aperture_width":300,"aperture_height":300,"dot_color":["black","white","black","white","white","black","white","black","white","black","white","white","white","black","black","white","black","black","white","white","black","black","white","white","black","black","white","black","white","white","white","black","white","black","black","white","white","white","black","white","black","white","white","white","black","white","black","black","black","white","black","white","black","white","white","white","black","black","black","white","black","white","black","white","white","black","black","white","white","white","white","black","white","black","white","white","white","white","black","black","white","black","white","black","black","black","white","white","black","white","black","white","white","white","black","white","black","black","white","white","black","black","black","black","black","white","black","black","white","white","white","black","black","white","white","white","white","white","white","white","black","black","black","white","black","black","black","black","black","white","black","black","white","black","white","black","black","black","white","black","black","black","white","black","white","white","black","black","black","white","white","white","white","white","black","white","black","black","white","white","black","black","white","white","white","white","black","white","black","white","black","black","black","black","black","white","black","white","white","black","white","black","black","black","white","black","black","white","white","black","black","white","black","black","white","white","white","black","white","black"],"dot_shape":"circle","background_color":"#AAA","RDK_type":3,"aperture_type":2,"reinsert_type":2,"frame_rate":16.716666666666665,"frame_rate_array":[14,16,17,17,17,17,17,17,17,18,19,14,18,16,17,17,16,16,17,17,16,18,16,16,17,17,17,18,16,17,17,16,17,17,16,17,17,16,17,16,17,17,18,15,17,18,15,17,17,16,17,17,17,16,18,16,18,18,15,17,16,17,17,17,16,17,17,17,17,17,17,16,18,15,17,18,15,17,16,16,17,18,16,17,16,17,15,18,16,18,17,15,16,18,16,17,16,17,17,18,16,17,19,15,16,18,15,17,17,16,17,17,17,16,18,16,17,17,16,17],"number_of_frames":120,"aperture_center_x":691,"aperture_center_y":432,"fixation_cross":true,"fixation_cross_width":15,"fixation_cross_height":15,"fixation_cross_color":"#111","fixation_cross_thickness":1,"border":true,"border_thickness":2,"border_color":"transparent","canvas_width":1382,"canvas_height":864,"trial_type":"rdk","trial_index":76,"plugin_version":"2.0.0","time_elapsed":257029},{"rt":1945,"stimulus":"\n        <div class=\"response-container\">\n          <div class=\"response-instruction\">\n            <p>rotate the bar by using the left and right arrow keys.</p>\n            <p>when you are determined, press the Enter key.</p>\n          </div>\n          <div class=\"response-circle\">\n            <div class=\"response-fixation\"></div>\n            <div id=\"bar\" class=\"rotating-bar\"></div>\n          </div>\n        </div>\n      ","response":"Enter","trial_type":"html-keyboard-response","trial_index":77,"plugin_version":"2.1.0","time_elapsed":258975,"random_initial_angle":255,"response_angle_css":230,"response_angle_rdk":220,"angular_error_target":-136,"angular_error_distractor":-35,"target_direction":356,"target_group":"white","reward_points":0},{"rt":null,"stimulus":"\n          <p style=\"color: #FF3333;\">Your reward: 0 points</p>\n        ","response":null,"trial_type":"html-keyboard-response","trial_index":78,"plugin_version":"2.1.0","time_elapsed":260983},{"rt":null,"stimulus":"<div class=\"fixation\" style=\"font-size: 60px;\">+</div>","response":null,"trial_type":"html-keyboard-response","trial_index":79,"plugin_version":"2.1.0","time_elapsed":261994},{"phase":"learning-awareness","target_group":"white","condition_label":"W_H_vs_B_L_rep14","target_direction":352,"distractor_direction":250,"session_rotation":324,"rt":-1,"response":"","correct":false,"choices":"ALL_KEYS","correct_choice":["a"],"trial_duration":2000,"flip_timestamps":[],"response_ends_trial":false,"number_of_apertures":200,"number_of_dots":[1,1,1,1,1,1,1,1,1,1,1,1,1,1,1,1,1,1,1,1,1,1,1,1,1,1,1,1,1,1,1,1,1,1,1,1,1,1,1,1,1,1,1,1,1,1,1,1,1,1,1,1,1,1,1,1,1,1,1,1,1,1,1,1,1,1,1,1,1,1,1,1,1,1,1,1,1,1,1,1,1,1,1,1,1,1,1,1,1,1,1,1,1,1,1,1,1,1,1,1,1,1,1,1,1,1,1,1,1,1,1,1,1,1,1,1,1,1,1,1,1,1,1,1,1,1,1,1,1,1,1,1,1,1,1,1,1,1,1,1,1,1,1,1,1,1,1,1,1,1,1,1,1,1,1,1,1,1,1,1,1,1,1,1,1,1,1,1,1,1,1,1,1,1,1,1,1,1,1,1,1,1,1,1,1,1,1,1,1,1,1,1,1,1,1,1,1,1,1,1],"number_of_sets":1,"coherent_direction":[352,352,250,250,250,250,352,352,352,250,352,250,352,352,250,250,352,352,352,250,352,352,352,352,352,352,250,250,352,352,250,352,352,250,250,250,352,352,250,352,250,250,352,352,250,352,250,250,352,250,352,250,250,352,250,250,352,352,352,250,352,250,352,250,250,250,352,250,250,250,352,352,352,250,250,250,352,352,352,352,352,352,352,250,352,250,250,352,250,250,250,250,250,352,250,250,352,352,250,250,250,250,250,352,250,352,250,352,352,352,250,250,352,352,250,250,250,250,352,352,352,250,352,352,352,352,250,352,352,250,250,250,250,352,250,352,352,250,250,352,352,250,250,250,250,250,250,352,250,250,352,352,352,250,352,250,250,250,250,352,352,250,352,250,352,352,352,352,250,352,250,250,250,250,250,352,250,352,250,352,352,250,250,352,352,250,250,352,250,352,250,250,352,352,352,352,250,352,352,352],"coherence":1,"opposite_coherence":0,"dot_radius":2,"dot_side_length":1,"dot_life":-1,"move_distance":1,"aperture_width":300,"aperture_height":300,"dot_color":["white","white","black","black","black","black","white","white","white","black","white","black","white","white","black","black","white","white","white","black","white","white","white","white","white","white","black","black","white","white","black","white","white","black","black","black","white","white","black","white","black","black","white","white","black","white","black","black","white","black","white","black","black","white","black","black","white","white","white","black","white","black","white","black","black","black","white","black","black","black","white","white","white","black","black","black","white","white","white","white","white","white","white","black","white","black","black","white","black","black","black","black","black","white","black","black","white","white","black","black","black","black","black","white","black","white","black","white","white","white","black","black","white","white","black","black","black","black","white","white","white","black","white","white","white","white","black","white","white","black","black","black","black","white","black","white","white","black","black","white","white","black","black","black","black","black","black","white","black","black","white","white","white","black","white","black","black","black","black","white","white","black","white","black","white","white","white","white","black","white","black","black","black","black","black","white","black","white","black","white","white","black","black","white","white","black","black","white","black","white","black","black","white","white","white","white","black","white","white","white"],"dot_shape":"circle","background_color":"#AAA","RDK_type":3,"aperture_type":2,"reinsert_type":2,"frame_rate":16.791666666666668,"frame_rate_array":[18,17,16,17,18,15,17,16,17,17,17,17,17,17,17,17,17,16,17,17,17,16,17,16,17,16,17,17,16,17,17,16,17,17,16,17,17,17,17,17,17,17,17,16,17,17,17,17,17,16,17,16,17,17,17,17,16,17,17,17,17,17,17,17,17,16,17,17,17,17,16,17,17,17,16,17,16,17,17,17,17,16,17,16,17,17,17,16,17,17,17,17,17,17,16,17,17,17,17,16,18,17,17,17,16,17,17,17,16,18,16,17,18,16,16,17,17,17,17,16],"number_of_frames":120,"aperture_center_x":691,"aperture_center_y":432,"fixation_cross":true,"fixation_cross_width":15,"fixation_cross_height":15,"fixation_cross_color":"#111","fixation_cross_thickness":1,"border":true,"border_thickness":2,"border_color":"transparent","canvas_width":1382,"canvas_height":864,"trial_type":"rdk","trial_index":80,"plugin_version":"2.0.0","time_elapsed":264000},{"rt":1526,"stimulus":"\n        <div class=\"response-container\">\n          <div class=\"response-instruction\">\n            <p>rotate the bar by using the left and right arrow keys.</p>\n            <p>when you are determined, press the Enter key.</p>\n          </div>\n          <div class=\"response-circle\">\n            <div class=\"response-fixation\"></div>\n            <div id=\"bar\" class=\"rotating-bar\"></div>\n          </div>\n        </div>\n      ","response":"Enter","trial_type":"html-keyboard-response","trial_index":81,"plugin_version":"2.1.0","time_elapsed":265527,"random_initial_angle":237,"response_angle_css":237,"response_angle_rdk":213,"angular_error_target":-139,"angular_error_distractor":-37,"target_direction":352,"target_group":"white","reward_points":0},{"rt":null,"stimulus":"\n          <p style=\"color: #FF3333;\">Your reward: 0 points</p>\n        ","response":null,"trial_type":"html-keyboard-response","trial_index":82,"plugin_version":"2.1.0","time_elapsed":267531},{"rt":null,"stimulus":"<div class=\"fixation\" style=\"font-size: 60px;\">+</div>","response":null,"trial_type":"html-keyboard-response","trial_index":83,"plugin_version":"2.1.0","time_elapsed":268544},{"phase":"learning-awareness","target_group":"black","condition_label":"B_H_vs_W_L_rep8","target_direction":55,"distractor_direction":171,"session_rotation":324,"rt":-1,"response":"","correct":false,"choices":"ALL_KEYS","correct_choice":["a"],"trial_duration":2000,"flip_timestamps":[],"response_ends_trial":false,"number_of_apertures":200,"number_of_dots":[1,1,1,1,1,1,1,1,1,1,1,1,1,1,1,1,1,1,1,1,1,1,1,1,1,1,1,1,1,1,1,1,1,1,1,1,1,1,1,1,1,1,1,1,1,1,1,1,1,1,1,1,1,1,1,1,1,1,1,1,1,1,1,1,1,1,1,1,1,1,1,1,1,1,1,1,1,1,1,1,1,1,1,1,1,1,1,1,1,1,1,1,1,1,1,1,1,1,1,1,1,1,1,1,1,1,1,1,1,1,1,1,1,1,1,1,1,1,1,1,1,1,1,1,1,1,1,1,1,1,1,1,1,1,1,1,1,1,1,1,1,1,1,1,1,1,1,1,1,1,1,1,1,1,1,1,1,1,1,1,1,1,1,1,1,1,1,1,1,1,1,1,1,1,1,1,1,1,1,1,1,1,1,1,1,1,1,1,1,1,1,1,1,1,1,1,1,1,1,1],"number_of_sets":1,"coherent_direction":[55,55,55,171,171,55,55,171,171,55,171,55,55,55,171,171,171,55,171,171,171,55,171,55,55,171,171,55,171,55,171,55,171,171,171,55,171,55,55,55,171,171,55,171,171,171,171,55,171,55,171,171,55,55,171,171,55,171,55,55,171,171,171,171,171,55,55,55,55,171,55,171,55,55,55,171,55,171,55,55,171,55,171,171,171,55,55,171,55,55,55,171,55,55,171,171,171,171,171,171,171,55,55,171,171,55,55,171,55,171,171,55,55,55,171,171,171,171,171,171,171,171,55,171,55,171,55,55,55,55,55,171,171,55,55,55,171,55,55,55,55,171,171,171,171,55,171,55,55,55,55,55,55,55,171,55,55,55,171,171,171,55,55,55,55,55,55,171,55,171,171,171,171,55,171,55,171,171,171,171,171,55,171,55,171,171,55,55,171,55,171,55,55,55,55,171,55,55,171,171],"coherence":1,"opposite_coherence":0,"dot_radius":2,"dot_side_length":1,"dot_life":-1,"move_distance":1,"aperture_width":300,"aperture_height":300,"dot_color":["black","black","black","white","white","black","black","white","white","black","white","black","black","black","white","white","white","black","white","white","white","black","white","black","black","white","white","black","white","black","white","black","white","white","white","black","white","black","black","black","white","white","black","white","white","white","white","black","white","black","white","white","black","black","white","white","black","white","black","black","white","white","white","white","white","black","black","black","black","white","black","white","black","black","black","white","black","white","black","black","white","black","white","white","white","black","black","white","black","black","black","white","black","black","white","white","white","white","white","white","white","black","black","white","white","black","black","white","black","white","white","black","black","black","white","white","white","white","white","white","white","white","black","white","black","white","black","black","black","black","black","white","white","black","black","black","white","black","black","black","black","white","white","white","white","black","white","black","black","black","black","black","black","black","white","black","black","black","white","white","white","black","black","black","black","black","black","white","black","white","white","white","white","black","white","black","white","white","white","white","white","black","white","black","white","white","black","black","white","black","white","black","black","black","black","white","black","black","white","white"],"dot_shape":"circle","background_color":"#AAA","RDK_type":3,"aperture_type":2,"reinsert_type":2,"frame_rate":16.570247933884296,"frame_rate_array":[7,10,19,15,17,17,16,17,17,16,17,17,17,16,17,17,17,17,16,17,19,15,17,16,18,15,19,15,17,16,18,15,17,17,16,19,15,17,18,16,16,17,16,16,16,17,17,18,16,17,18,16,15,17,17,16,19,14,19,15,18,16,18,15,18,18,15,16,17,16,17,19,14,17,16,17,17,16,17,17,17,17,17,18,16,17,17,16,17,17,16,17,18,16,17,16,17,16,18,16,17,17,16,16,20,15,16,16,18,15,19,15,17,16,18,16,17,16,16,18,15],"number_of_frames":121,"aperture_center_x":691,"aperture_center_y":432,"fixation_cross":true,"fixation_cross_width":15,"fixation_cross_height":15,"fixation_cross_color":"#111","fixation_cross_thickness":1,"border":true,"border_thickness":2,"border_color":"transparent","canvas_width":1382,"canvas_height":864,"trial_type":"rdk","trial_index":84,"plugin_version":"2.0.0","time_elapsed":270550},{"rt":2660,"stimulus":"\n        <div class=\"response-container\">\n          <div class=\"response-instruction\">\n            <p>rotate the bar by using the left and right arrow keys.</p>\n            <p>when you are determined, press the Enter key.</p>\n          </div>\n          <div class=\"response-circle\">\n            <div class=\"response-fixation\"></div>\n            <div id=\"bar\" class=\"rotating-bar\"></div>\n          </div>\n        </div>\n      ","response":"Enter","trial_type":"html-keyboard-response","trial_index":85,"plugin_version":"2.1.0","time_elapsed":273211,"random_initial_angle":302,"response_angle_css":296,"response_angle_rdk":154,"angular_error_target":99,"angular_error_distractor":-17,"target_direction":55,"target_group":"black","reward_points":0},{"rt":null,"stimulus":"\n          <p style=\"color: #FF3333;\">Your reward: 0 points</p>\n        ","response":null,"trial_type":"html-keyboard-response","trial_index":86,"plugin_version":"2.1.0","time_elapsed":275227},{"rt":null,"stimulus":"<div class=\"fixation\" style=\"font-size: 60px;\">+</div>","response":null,"trial_type":"html-keyboard-response","trial_index":87,"plugin_version":"2.1.0","time_elapsed":276244},{"phase":"learning-awareness","target_group":"white","condition_label":"W_H_vs_B_L_rep8","target_direction":338,"distractor_direction":238,"session_rotation":324,"rt":-1,"response":"","correct":false,"choices":"ALL_KEYS","correct_choice":["a"],"trial_duration":2000,"flip_timestamps":[],"response_ends_trial":false,"number_of_apertures":200,"number_of_dots":[1,1,1,1,1,1,1,1,1,1,1,1,1,1,1,1,1,1,1,1,1,1,1,1,1,1,1,1,1,1,1,1,1,1,1,1,1,1,1,1,1,1,1,1,1,1,1,1,1,1,1,1,1,1,1,1,1,1,1,1,1,1,1,1,1,1,1,1,1,1,1,1,1,1,1,1,1,1,1,1,1,1,1,1,1,1,1,1,1,1,1,1,1,1,1,1,1,1,1,1,1,1,1,1,1,1,1,1,1,1,1,1,1,1,1,1,1,1,1,1,1,1,1,1,1,1,1,1,1,1,1,1,1,1,1,1,1,1,1,1,1,1,1,1,1,1,1,1,1,1,1,1,1,1,1,1,1,1,1,1,1,1,1,1,1,1,1,1,1,1,1,1,1,1,1,1,1,1,1,1,1,1,1,1,1,1,1,1,1,1,1,1,1,1,1,1,1,1,1,1],"number_of_sets":1,"coherent_direction":[238,338,338,338,338,238,238,238,238,238,238,238,338,238,338,338,238,338,338,338,238,338,238,338,238,338,238,338,238,238,338,238,338,238,338,238,238,338,338,238,338,238,238,238,238,238,338,338,338,238,338,238,238,238,338,338,238,338,338,338,238,338,238,238,238,338,338,338,238,338,338,238,238,238,338,238,338,338,338,338,338,238,238,238,238,338,238,238,238,338,338,338,338,338,238,338,338,338,338,238,338,338,238,338,338,238,238,338,238,338,238,238,238,238,238,338,238,238,238,338,338,338,338,338,238,238,238,338,238,338,338,238,238,338,238,338,238,238,338,338,238,338,238,338,338,338,338,238,338,238,338,338,238,238,338,338,238,238,338,338,238,338,238,238,338,238,238,338,238,338,238,338,338,338,238,238,338,238,338,238,338,338,238,338,238,238,238,238,238,338,238,238,338,338,338,338,338,238,238,238],"coherence":1,"opposite_coherence":0,"dot_radius":2,"dot_side_length":1,"dot_life":-1,"move_distance":1,"aperture_width":300,"aperture_height":300,"dot_color":["black","white","white","white","white","black","black","black","black","black","black","black","white","black","white","white","black","white","white","white","black","white","black","white","black","white","black","white","black","black","white","black","white","black","white","black","black","white","white","black","white","black","black","black","black","black","white","white","white","black","white","black","black","black","white","white","black","white","white","white","black","white","black","black","black","white","white","white","black","white","white","black","black","black","white","black","white","white","white","white","white","black","black","black","black","white","black","black","black","white","white","white","white","white","black","white","white","white","white","black","white","white","black","white","white","black","black","white","black","white","black","black","black","black","black","white","black","black","black","white","white","white","white","white","black","black","black","white","black","white","white","black","black","white","black","white","black","black","white","white","black","white","black","white","white","white","white","black","white","black","white","white","black","black","white","white","black","black","white","white","black","white","black","black","white","black","black","white","black","white","black","white","white","white","black","black","white","black","white","black","white","white","black","white","black","black","black","black","black","white","black","black","white","white","white","white","white","black","black","black"],"dot_shape":"circle","background_color":"#AAA","RDK_type":3,"aperture_type":2,"reinsert_type":2,"frame_rate":16.708333333333332,"frame_rate_array":[18,16,17,17,17,17,17,17,16,17,16,17,16,16,17,16,17,17,17,17,16,16,17,17,17,17,17,17,16,17,17,15,17,16,17,17,18,16,17,16,17,16,18,16,17,16,17,16,17,16,17,16,16,17,17,17,17,17,19,14,17,17,17,16,17,17,17,17,17,17,18,17,17,16,17,17,16,17,16,17,17,17,17,16,16,17,17,17,16,16,17,16,17,17,17,16,17,17,16,18,16,17,17,16,17,17,17,17,17,16,17,16,17,17,16,17,17,16,17,16],"number_of_frames":120,"aperture_center_x":691,"aperture_center_y":432,"fixation_cross":true,"fixation_cross_width":15,"fixation_cross_height":15,"fixation_cross_color":"#111","fixation_cross_thickness":1,"border":true,"border_thickness":2,"border_color":"transparent","canvas_width":1382,"canvas_height":864,"trial_type":"rdk","trial_index":88,"plugin_version":"2.0.0","time_elapsed":278249},{"rt":3086,"stimulus":"\n        <div class=\"response-container\">\n          <div class=\"response-instruction\">\n            <p>rotate the bar by using the left and right arrow keys.</p>\n            <p>when you are determined, press the Enter key.</p>\n          </div>\n          <div class=\"response-circle\">\n            <div class=\"response-fixation\"></div>\n            <div id=\"bar\" class=\"rotating-bar\"></div>\n          </div>\n        </div>\n      ","response":"Enter","trial_type":"html-keyboard-response","trial_index":89,"plugin_version":"2.1.0","time_elapsed":281335,"random_initial_angle":298,"response_angle_css":226,"response_angle_rdk":224,"angular_error_target":-114,"angular_error_distractor":-14,"target_direction":338,"target_group":"white","reward_points":0},{"rt":null,"stimulus":"\n          <p style=\"color: #FF3333;\">Your reward: 0 points</p>\n        ","response":null,"trial_type":"html-keyboard-response","trial_index":90,"plugin_version":"2.1.0","time_elapsed":283350},{"rt":null,"stimulus":"<div class=\"fixation\" style=\"font-size: 60px;\">+</div>","response":null,"trial_type":"html-keyboard-response","trial_index":91,"plugin_version":"2.1.0","time_elapsed":284365},{"phase":"learning-awareness","target_group":"black","condition_label":"B_H_vs_W_L_rep22","target_direction":55,"distractor_direction":164,"session_rotation":324,"rt":-1,"response":"","correct":false,"choices":"ALL_KEYS","correct_choice":["a"],"trial_duration":2000,"flip_timestamps":[],"response_ends_trial":false,"number_of_apertures":200,"number_of_dots":[1,1,1,1,1,1,1,1,1,1,1,1,1,1,1,1,1,1,1,1,1,1,1,1,1,1,1,1,1,1,1,1,1,1,1,1,1,1,1,1,1,1,1,1,1,1,1,1,1,1,1,1,1,1,1,1,1,1,1,1,1,1,1,1,1,1,1,1,1,1,1,1,1,1,1,1,1,1,1,1,1,1,1,1,1,1,1,1,1,1,1,1,1,1,1,1,1,1,1,1,1,1,1,1,1,1,1,1,1,1,1,1,1,1,1,1,1,1,1,1,1,1,1,1,1,1,1,1,1,1,1,1,1,1,1,1,1,1,1,1,1,1,1,1,1,1,1,1,1,1,1,1,1,1,1,1,1,1,1,1,1,1,1,1,1,1,1,1,1,1,1,1,1,1,1,1,1,1,1,1,1,1,1,1,1,1,1,1,1,1,1,1,1,1,1,1,1,1,1,1],"number_of_sets":1,"coherent_direction":[164,55,55,164,164,55,55,55,55,55,164,55,164,164,164,55,55,55,164,55,164,164,164,55,164,55,55,164,55,55,164,164,164,55,164,55,164,55,55,164,55,164,164,164,164,55,55,164,164,164,164,164,55,55,164,55,55,164,164,55,55,55,164,55,164,164,55,164,164,55,55,164,55,55,164,55,164,55,164,164,164,164,55,164,55,164,55,164,164,164,164,164,164,55,55,164,55,55,164,55,55,55,55,164,164,164,164,164,164,55,55,164,164,55,55,164,164,55,55,164,55,55,55,164,55,164,55,55,164,55,164,164,55,164,55,164,164,55,164,164,55,164,55,164,164,55,164,55,164,164,55,55,164,164,55,55,164,55,164,55,55,55,164,55,55,55,55,55,55,164,164,164,55,55,164,55,55,164,55,164,164,55,55,55,164,55,164,164,55,55,164,164,55,164,164,55,55,55,55,164],"coherence":1,"opposite_coherence":0,"dot_radius":2,"dot_side_length":1,"dot_life":-1,"move_distance":1,"aperture_width":300,"aperture_height":300,"dot_color":["white","black","black","white","white","black","black","black","black","black","white","black","white","white","white","black","black","black","white","black","white","white","white","black","white","black","black","white","black","black","white","white","white","black","white","black","white","black","black","white","black","white","white","white","white","black","black","white","white","white","white","white","black","black","white","black","black","white","white","black","black","black","white","black","white","white","black","white","white","black","black","white","black","black","white","black","white","black","white","white","white","white","black","white","black","white","black","white","white","white","white","white","white","black","black","white","black","black","white","black","black","black","black","white","white","white","white","white","white","black","black","white","white","black","black","white","white","black","black","white","black","black","black","white","black","white","black","black","white","black","white","white","black","white","black","white","white","black","white","white","black","white","black","white","white","black","white","black","white","white","black","black","white","white","black","black","white","black","white","black","black","black","white","black","black","black","black","black","black","white","white","white","black","black","white","black","black","white","black","white","white","black","black","black","white","black","white","white","black","black","white","white","black","white","white","black","black","black","black","white"],"dot_shape":"circle","background_color":"#AAA","RDK_type":3,"aperture_type":2,"reinsert_type":2,"frame_rate":16.68595041322314,"frame_rate_array":[12,17,17,17,17,17,17,16,17,17,16,18,17,16,17,17,16,16,17,16,17,16,17,16,18,17,17,18,17,16,17,16,17,17,17,17,17,16,16,16,17,18,17,15,17,17,16,16,18,16,16,17,17,17,16,18,16,18,16,17,16,17,17,16,18,16,18,16,17,17,16,16,17,16,17,17,16,17,17,17,16,16,17,16,18,16,16,17,17,16,17,18,15,18,17,16,18,16,17,17,17,16,16,17,17,17,16,16,17,17,16,18,16,17,16,18,16,17,17,17,17],"number_of_frames":121,"aperture_center_x":691,"aperture_center_y":432,"fixation_cross":true,"fixation_cross_width":15,"fixation_cross_height":15,"fixation_cross_color":"#111","fixation_cross_thickness":1,"border":true,"border_thickness":2,"border_color":"transparent","canvas_width":1382,"canvas_height":864,"trial_type":"rdk","trial_index":92,"plugin_version":"2.0.0","time_elapsed":286384},{"rt":2125,"stimulus":"\n        <div class=\"response-container\">\n          <div class=\"response-instruction\">\n            <p>rotate the bar by using the left and right arrow keys.</p>\n            <p>when you are determined, press the Enter key.</p>\n          </div>\n          <div class=\"response-circle\">\n            <div class=\"response-fixation\"></div>\n            <div id=\"bar\" class=\"rotating-bar\"></div>\n          </div>\n        </div>\n      ","response":"Enter","trial_type":"html-keyboard-response","trial_index":93,"plugin_version":"2.1.0","time_elapsed":288510,"random_initial_angle":87,"response_angle_css":51,"response_angle_rdk":39,"angular_error_target":-16,"angular_error_distractor":-125,"target_direction":55,"target_group":"black","reward_points":6},{"rt":null,"stimulus":"\n          <p style=\"color: #00FF00;\">Your reward: 6 points</p>\n        ","response":null,"trial_type":"html-keyboard-response","trial_index":94,"plugin_version":"2.1.0","time_elapsed":290512},{"rt":null,"stimulus":"<div class=\"fixation\" style=\"font-size: 60px;\">+</div>","response":null,"trial_type":"html-keyboard-response","trial_index":95,"plugin_version":"2.1.0","time_elapsed":291525},{"phase":"learning-awareness","target_group":"white","condition_label":"W_H_vs_B_L_rep5","target_direction":357,"distractor_direction":236,"session_rotation":324,"rt":-1,"response":"","correct":false,"choices":"ALL_KEYS","correct_choice":["a"],"trial_duration":2000,"flip_timestamps":[],"response_ends_trial":false,"number_of_apertures":200,"number_of_dots":[1,1,1,1,1,1,1,1,1,1,1,1,1,1,1,1,1,1,1,1,1,1,1,1,1,1,1,1,1,1,1,1,1,1,1,1,1,1,1,1,1,1,1,1,1,1,1,1,1,1,1,1,1,1,1,1,1,1,1,1,1,1,1,1,1,1,1,1,1,1,1,1,1,1,1,1,1,1,1,1,1,1,1,1,1,1,1,1,1,1,1,1,1,1,1,1,1,1,1,1,1,1,1,1,1,1,1,1,1,1,1,1,1,1,1,1,1,1,1,1,1,1,1,1,1,1,1,1,1,1,1,1,1,1,1,1,1,1,1,1,1,1,1,1,1,1,1,1,1,1,1,1,1,1,1,1,1,1,1,1,1,1,1,1,1,1,1,1,1,1,1,1,1,1,1,1,1,1,1,1,1,1,1,1,1,1,1,1,1,1,1,1,1,1,1,1,1,1,1,1],"number_of_sets":1,"coherent_direction":[357,236,236,236,236,236,236,357,357,357,236,236,236,357,236,357,357,357,357,236,357,236,357,236,236,357,357,357,236,357,357,236,357,357,236,236,357,357,357,236,357,357,357,236,236,357,357,357,357,357,236,357,357,236,236,236,357,236,357,357,357,357,236,236,357,236,236,236,236,236,236,357,236,236,236,357,236,357,357,236,236,236,357,357,357,236,357,236,357,236,236,357,357,357,236,357,236,236,236,236,236,236,357,236,236,357,236,357,236,357,236,357,236,236,357,357,236,236,357,236,357,236,236,236,236,357,357,236,357,236,357,236,236,357,357,357,236,236,236,357,357,236,357,357,357,236,236,357,357,236,357,236,236,357,357,236,236,236,357,357,236,236,357,357,236,357,357,236,236,236,236,357,357,357,357,357,357,236,357,357,236,357,357,236,357,236,357,357,236,236,357,236,357,236,236,357,357,357,236,236],"coherence":1,"opposite_coherence":0,"dot_radius":2,"dot_side_length":1,"dot_life":-1,"move_distance":1,"aperture_width":300,"aperture_height":300,"dot_color":["white","black","black","black","black","black","black","white","white","white","black","black","black","white","black","white","white","white","white","black","white","black","white","black","black","white","white","white","black","white","white","black","white","white","black","black","white","white","white","black","white","white","white","black","black","white","white","white","white","white","black","white","white","black","black","black","white","black","white","white","white","white","black","black","white","black","black","black","black","black","black","white","black","black","black","white","black","white","white","black","black","black","white","white","white","black","white","black","white","black","black","white","white","white","black","white","black","black","black","black","black","black","white","black","black","white","black","white","black","white","black","white","black","black","white","white","black","black","white","black","white","black","black","black","black","white","white","black","white","black","white","black","black","white","white","white","black","black","black","white","white","black","white","white","white","black","black","white","white","black","white","black","black","white","white","black","black","black","white","white","black","black","white","white","black","white","white","black","black","black","black","white","white","white","white","white","white","black","white","white","black","white","white","black","white","black","white","white","black","black","white","black","white","black","black","white","white","white","black","black"],"dot_shape":"circle","background_color":"#AAA","RDK_type":3,"aperture_type":2,"reinsert_type":2,"frame_rate":16.683333333333334,"frame_rate_array":[10,17,17,16,17,17,17,17,16,17,17,18,16,17,17,16,17,18,17,16,18,15,17,16,16,17,17,17,16,18,16,17,17,16,18,16,15,17,16,17,16,18,16,17,17,16,17,17,17,17,17,16,16,17,16,16,17,17,17,17,17,17,16,17,17,17,17,16,17,17,17,17,17,17,17,17,16,17,17,17,17,17,17,17,17,17,17,16,16,17,17,17,17,17,16,17,16,17,17,16,17,17,17,16,17,16,17,17,16,17,17,16,17,17,16,16,17,17,17,17],"number_of_frames":120,"aperture_center_x":691,"aperture_center_y":432,"fixation_cross":true,"fixation_cross_width":15,"fixation_cross_height":15,"fixation_cross_color":"#111","fixation_cross_thickness":1,"border":true,"border_thickness":2,"border_color":"transparent","canvas_width":1382,"canvas_height":864,"trial_type":"rdk","trial_index":96,"plugin_version":"2.0.0","time_elapsed":293531},{"rt":4346,"stimulus":"\n        <div class=\"response-container\">\n          <div class=\"response-instruction\">\n            <p>rotate the bar by using the left and right arrow keys.</p>\n            <p>when you are determined, press the Enter key.</p>\n          </div>\n          <div class=\"response-circle\">\n            <div class=\"response-fixation\"></div>\n            <div id=\"bar\" class=\"rotating-bar\"></div>\n          </div>\n        </div>\n      ","response":"Enter","trial_type":"html-keyboard-response","trial_index":97,"plugin_version":"2.1.0","time_elapsed":297878,"random_initial_angle":306,"response_angle_css":398,"response_angle_rdk":52,"angular_error_target":55,"angular_error_distractor":176,"target_direction":357,"target_group":"white","reward_points":0},{"rt":null,"stimulus":"\n          <p style=\"color: #FF3333;\">Your reward: 0 points</p>\n        ","response":null,"trial_type":"html-keyboard-response","trial_index":98,"plugin_version":"2.1.0","time_elapsed":299891},{"rt":null,"stimulus":"<div class=\"fixation\" style=\"font-size: 60px;\">+</div>","response":null,"trial_type":"html-keyboard-response","trial_index":99,"plugin_version":"2.1.0","time_elapsed":300907},{"phase":"learning-awareness","target_group":"black","condition_label":"B_H_vs_W_L_rep23","target_direction":79,"distractor_direction":178,"session_rotation":324,"rt":-1,"response":"","correct":false,"choices":"ALL_KEYS","correct_choice":["a"],"trial_duration":2000,"flip_timestamps":[],"response_ends_trial":false,"number_of_apertures":200,"number_of_dots":[1,1,1,1,1,1,1,1,1,1,1,1,1,1,1,1,1,1,1,1,1,1,1,1,1,1,1,1,1,1,1,1,1,1,1,1,1,1,1,1,1,1,1,1,1,1,1,1,1,1,1,1,1,1,1,1,1,1,1,1,1,1,1,1,1,1,1,1,1,1,1,1,1,1,1,1,1,1,1,1,1,1,1,1,1,1,1,1,1,1,1,1,1,1,1,1,1,1,1,1,1,1,1,1,1,1,1,1,1,1,1,1,1,1,1,1,1,1,1,1,1,1,1,1,1,1,1,1,1,1,1,1,1,1,1,1,1,1,1,1,1,1,1,1,1,1,1,1,1,1,1,1,1,1,1,1,1,1,1,1,1,1,1,1,1,1,1,1,1,1,1,1,1,1,1,1,1,1,1,1,1,1,1,1,1,1,1,1,1,1,1,1,1,1,1,1,1,1,1,1],"number_of_sets":1,"coherent_direction":[178,178,178,178,178,178,79,79,178,79,178,79,79,79,178,79,178,79,79,79,178,178,178,178,79,79,178,79,79,178,178,178,79,79,79,178,79,178,178,79,178,79,178,79,79,79,79,79,79,79,79,79,79,178,79,79,178,79,79,178,178,178,178,79,178,178,178,178,79,178,79,178,178,178,178,178,79,178,178,178,79,178,79,79,79,79,178,79,79,79,178,79,79,178,178,178,178,178,178,79,178,79,79,178,79,178,79,178,178,178,178,178,79,178,178,178,79,178,178,79,79,79,79,79,79,178,79,79,178,79,178,79,178,178,79,178,178,79,178,178,178,79,79,79,79,79,178,178,79,79,178,178,178,79,79,79,79,79,178,178,79,79,178,79,178,178,178,79,79,178,178,79,178,79,79,79,79,178,178,178,178,79,79,178,178,79,79,178,178,79,178,79,79,178,79,79,178,79,178,79],"coherence":1,"opposite_coherence":0,"dot_radius":2,"dot_side_length":1,"dot_life":-1,"move_distance":1,"aperture_width":300,"aperture_height":300,"dot_color":["white","white","white","white","white","white","black","black","white","black","white","black","black","black","white","black","white","black","black","black","white","white","white","white","black","black","white","black","black","white","white","white","black","black","black","white","black","white","white","black","white","black","white","black","black","black","black","black","black","black","black","black","black","white","black","black","white","black","black","white","white","white","white","black","white","white","white","white","black","white","black","white","white","white","white","white","black","white","white","white","black","white","black","black","black","black","white","black","black","black","white","black","black","white","white","white","white","white","white","black","white","black","black","white","black","white","black","white","white","white","white","white","black","white","white","white","black","white","white","black","black","black","black","black","black","white","black","black","white","black","white","black","white","white","black","white","white","black","white","white","white","black","black","black","black","black","white","white","black","black","white","white","white","black","black","black","black","black","white","white","black","black","white","black","white","white","white","black","black","white","white","black","white","black","black","black","black","white","white","white","white","black","black","white","white","black","black","white","white","black","white","black","black","white","black","black","white","black","white","black"],"dot_shape":"circle","background_color":"#AAA","RDK_type":3,"aperture_type":2,"reinsert_type":2,"frame_rate":16.710743801652892,"frame_rate_array":[13,17,16,17,17,17,18,15,17,17,15,17,17,16,16,18,16,17,17,16,17,16,16,18,17,16,17,17,16,17,18,15,16,18,16,17,18,15,17,17,17,16,17,17,17,17,16,17,17,15,17,17,17,17,16,17,17,17,17,17,17,17,17,17,17,17,17,17,17,17,18,17,17,17,17,17,16,16,19,15,16,18,15,17,17,16,17,16,17,18,16,17,16,18,17,15,16,17,16,17,17,16,18,16,17,18,17,17,16,16,17,17,16,17,18,16,16,17,17,17,17],"number_of_frames":121,"aperture_center_x":691,"aperture_center_y":432,"fixation_cross":true,"fixation_cross_width":15,"fixation_cross_height":15,"fixation_cross_color":"#111","fixation_cross_thickness":1,"border":true,"border_thickness":2,"border_color":"transparent","canvas_width":1382,"canvas_height":864,"trial_type":"rdk","trial_index":100,"plugin_version":"2.0.0","time_elapsed":302924},{"rt":4797,"stimulus":"\n        <div class=\"response-container\">\n          <div class=\"response-instruction\">\n            <p>rotate the bar by using the left and right arrow keys.</p>\n            <p>when you are determined, press the Enter key.</p>\n          </div>\n          <div class=\"response-circle\">\n            <div class=\"response-fixation\"></div>\n            <div id=\"bar\" class=\"rotating-bar\"></div>\n          </div>\n        </div>\n      ","response":"Enter","trial_type":"html-keyboard-response","trial_index":101,"plugin_version":"2.1.0","time_elapsed":307723,"random_initial_angle":197,"response_angle_css":315,"response_angle_rdk":135,"angular_error_target":56,"angular_error_distractor":-43,"target_direction":79,"target_group":"black","reward_points":0},{"rt":null,"stimulus":"\n          <p style=\"color: #FF3333;\">Your reward: 0 points</p>\n        ","response":null,"trial_type":"html-keyboard-response","trial_index":102,"plugin_version":"2.1.0","time_elapsed":309729},{"rt":null,"stimulus":"<div class=\"fixation\" style=\"font-size: 60px;\">+</div>","response":null,"trial_type":"html-keyboard-response","trial_index":103,"plugin_version":"2.1.0","time_elapsed":310743},{"phase":"learning-awareness","target_group":"white","condition_label":"W_H_vs_B_L_rep2","target_direction":337,"distractor_direction":235,"session_rotation":324,"rt":-1,"response":"","correct":false,"choices":"ALL_KEYS","correct_choice":["a"],"trial_duration":2000,"flip_timestamps":[],"response_ends_trial":false,"number_of_apertures":200,"number_of_dots":[1,1,1,1,1,1,1,1,1,1,1,1,1,1,1,1,1,1,1,1,1,1,1,1,1,1,1,1,1,1,1,1,1,1,1,1,1,1,1,1,1,1,1,1,1,1,1,1,1,1,1,1,1,1,1,1,1,1,1,1,1,1,1,1,1,1,1,1,1,1,1,1,1,1,1,1,1,1,1,1,1,1,1,1,1,1,1,1,1,1,1,1,1,1,1,1,1,1,1,1,1,1,1,1,1,1,1,1,1,1,1,1,1,1,1,1,1,1,1,1,1,1,1,1,1,1,1,1,1,1,1,1,1,1,1,1,1,1,1,1,1,1,1,1,1,1,1,1,1,1,1,1,1,1,1,1,1,1,1,1,1,1,1,1,1,1,1,1,1,1,1,1,1,1,1,1,1,1,1,1,1,1,1,1,1,1,1,1,1,1,1,1,1,1,1,1,1,1,1,1],"number_of_sets":1,"coherent_direction":[235,337,235,337,337,337,235,235,337,337,337,337,235,337,337,337,337,235,235,337,235,337,337,235,337,235,337,235,337,235,337,235,337,235,337,337,337,337,235,235,235,235,337,337,337,235,235,235,235,337,235,235,235,235,235,235,337,235,337,337,337,235,337,235,235,235,337,337,235,337,337,337,337,235,337,337,337,235,235,337,337,235,235,337,235,337,337,235,235,235,337,337,337,337,235,337,235,235,337,337,337,235,337,337,235,235,235,337,235,235,337,235,337,235,337,235,235,235,235,337,337,235,337,235,235,235,235,337,337,337,337,235,235,337,235,235,337,337,337,337,235,235,337,337,235,235,235,337,337,235,337,337,235,235,337,337,337,235,235,337,235,235,235,235,235,337,235,337,337,235,337,337,235,235,337,235,337,235,235,235,337,235,235,235,235,337,235,337,337,235,337,235,337,235,235,337,337,337,235,337],"coherence":1,"opposite_coherence":0,"dot_radius":2,"dot_side_length":1,"dot_life":-1,"move_distance":1,"aperture_width":300,"aperture_height":300,"dot_color":["black","white","black","white","white","white","black","black","white","white","white","white","black","white","white","white","white","black","black","white","black","white","white","black","white","black","white","black","white","black","white","black","white","black","white","white","white","white","black","black","black","black","white","white","white","black","black","black","black","white","black","black","black","black","black","black","white","black","white","white","white","black","white","black","black","black","white","white","black","white","white","white","white","black","white","white","white","black","black","white","white","black","black","white","black","white","white","black","black","black","white","white","white","white","black","white","black","black","white","white","white","black","white","white","black","black","black","white","black","black","white","black","white","black","white","black","black","black","black","white","white","black","white","black","black","black","black","white","white","white","white","black","black","white","black","black","white","white","white","white","black","black","white","white","black","black","black","white","white","black","white","white","black","black","white","white","white","black","black","white","black","black","black","black","black","white","black","white","white","black","white","white","black","black","white","black","white","black","black","black","white","black","black","black","black","white","black","white","white","black","white","black","white","black","black","white","white","white","black","white"],"dot_shape":"circle","background_color":"#AAA","RDK_type":3,"aperture_type":2,"reinsert_type":2,"frame_rate":16.578512396694215,"frame_rate_array":[6,13,19,14,18,16,17,17,17,15,16,17,16,17,17,16,17,17,16,17,16,17,17,17,17,20,12,17,17,15,17,18,15,25,8,16,16,17,17,16,18,17,16,17,17,18,18,16,16,17,17,15,18,16,15,18,17,16,18,17,17,16,17,17,18,16,16,18,18,16,17,15,17,17,16,17,17,17,17,17,16,17,17,16,16,18,16,17,17,16,17,16,17,16,17,18,14,17,16,18,17,17,16,17,15,17,18,17,16,19,15,17,18,17,16,17,16,17,17,17,17],"number_of_frames":121,"aperture_center_x":691,"aperture_center_y":432,"fixation_cross":true,"fixation_cross_width":15,"fixation_cross_height":15,"fixation_cross_color":"#111","fixation_cross_thickness":1,"border":true,"border_thickness":2,"border_color":"transparent","canvas_width":1382,"canvas_height":864,"trial_type":"rdk","trial_index":104,"plugin_version":"2.0.0","time_elapsed":312748},{"rt":2257,"stimulus":"\n        <div class=\"response-container\">\n          <div class=\"response-instruction\">\n            <p>rotate the bar by using the left and right arrow keys.</p>\n            <p>when you are determined, press the Enter key.</p>\n          </div>\n          <div class=\"response-circle\">\n            <div class=\"response-fixation\"></div>\n            <div id=\"bar\" class=\"rotating-bar\"></div>\n          </div>\n        </div>\n      ","response":"Enter","trial_type":"html-keyboard-response","trial_index":105,"plugin_version":"2.1.0","time_elapsed":315006,"random_initial_angle":24,"response_angle_css":58,"response_angle_rdk":32,"angular_error_target":55,"angular_error_distractor":157,"target_direction":337,"target_group":"white","reward_points":0},{"rt":null,"stimulus":"\n          <p style=\"color: #FF3333;\">Your reward: 0 points</p>\n        ","response":null,