[{"rt":2765,"stimulus":"Welcome to the experiment. Press any key to begin.","response":"g","trial_type":"html-keyboard-response","trial_index":0,"plugin_version":"2.1.0","time_elapsed":2768},{"rt":58139,"stimulus":"\n        <div class=\"instructions-container\">\n          <h2>Instructions</h2>\n\n          <p>\n          In this experiment, you will see <strong>two Random Dot Kinematograms (RDKs)</strong> displayed simultaneously.\n          </p>\n\n          <p>\n          An RDK is a visual stimulus consisting of many small dots that move coherently in a single direction. \n          In this experiment, the dots will be either <strong>white</strong> or <strong>black</strong> \n          (see the short demo below for an example of an RDK stimulus).\n          </p>\n\n          <p>\n          On each trial, the two RDKs will move in different directions. \n          Your task is to decide <strong>which RDK appears to contain more dots</strong>.\n          </p>\n\n          <p>\n          The RDK that you judge to have more dots is called the <strong>target RDK</strong>. \n          For example, if the white RDK appears to have more dots than the black RDK, \n          you should report the motion direction of the white RDK.\n          </p>\n\n          <p>\n          After viewing the RDKs, you will rotate a bar to indicate the perceived direction of the target RDK \n          using the <strong>left</strong> and <strong>right arrow keys</strong>. \n          Press <strong>Enter</strong> when you are satisfied with your response.\n          When the bar is held down, the rotation speed increases.\n          </p>\n\n          <p>\n          You will receive points based on the <strong>accuracy of your response</strong>, \n          and your final <strong>bonus reward</strong> may depend on your overall performance. \n          Please try to respond as accurately as possible.\n          </p>\n\n          <p>\n          You will first complete <strong>16 practice trials</strong>. \n          Press the <strong>Enter</strong> key to start the practice phase.\n          </p>\n\n          <canvas id=\"instruction-demo-rdk\" width=\"200\" height=\"200\"style=\"display:block;margin:12px auto; border-radius: 50%;\"></canvas>\n        </div>\n      ","response":"Enter","trial_type":"html-keyboard-response","trial_index":1,"plugin_version":"2.1.0","time_elapsed":60911},{"rt":null,"stimulus":"<div class=\"fixation\" style=\"font-size: 60px;\">+</div>","response":null,"trial_type":"html-keyboard-response","trial_index":2,"plugin_version":"2.1.0","time_elapsed":61919},{"target_group":"white","target_index":0,"condition_label":"practice","rt":-1,"response":"","correct":false,"choices":"ALL_KEYS","correct_choice":["a"],"trial_duration":2000,"flip_timestamps":[],"response_ends_trial":false,"number_of_apertures":2,"number_of_dots":[100,82],"number_of_sets":1,"coherent_direction":[3,250],"coherence":1,"opposite_coherence":0,"dot_radius":2,"dot_side_length":1,"dot_life":-1,"move_distance":1,"aperture_width":300,"aperture_height":300,"dot_color":["white","black"],"dot_shape":"circle","background_color":"#AAA","RDK_type":3,"aperture_type":2,"reinsert_type":2,"frame_rate":16.691666666666666,"frame_rate_array":[5,17,16,17,16,18,17,17,17,17,16,17,17,17,16,16,17,16,17,17,17,17,17,16,17,17,17,17,17,17,16,17,17,17,17,15,17,18,17,17,16,17,17,17,16,17,17,17,17,17,17,17,17,16,17,17,16,17,17,17,17,16,16,16,17,16,16,17,17,16,18,17,16,17,17,16,17,18,16,17,17,17,17,16,17,16,17,17,17,17,17,17,17,17,17,17,16,17,16,16,18,17,17,17,17,17,17,17,16,17,17,17,17,17,16,17,17,17,17,17],"number_of_frames":120,"aperture_center_x":960,"aperture_center_y":540,"fixation_cross":true,"fixation_cross_width":15,"fixation_cross_height":15,"fixation_cross_color":"#111","fixation_cross_thickness":1,"border":true,"border_thickness":2,"border_color":"transparent","canvas_width":1920,"canvas_height":1080,"trial_type":"rdk","trial_index":3,"plugin_version":"2.0.0","time_elapsed":63937,"phase":"practice","target_direction":3,"distractor_direction":250},{"rt":22733,"stimulus":"\n        <div class=\"response-container\">\n          <div class=\"response-instruction\">\n            <p>rotate the bar by using the left and right arrow keys.</p>\n            <p>when you are determined, press the Enter key.</p>\n          </div>\n          <div class=\"response-circle\">\n            <div class=\"response-fixation\"></div>\n            <div id=\"bar\" class=\"rotating-bar\"></div>\n          </div>\n        </div>\n      ","response":"Enter","trial_type":"html-keyboard-response","trial_index":4,"plugin_version":"2.1.0","time_elapsed":86673,"random_initial_angle":230,"response_angle_css":208,"response_angle_rdk":242,"angular_error_target":-121,"angular_error_distractor":-8,"target_direction":3,"target_group":"white","reward_points":0},{"rt":null,"stimulus":"\n          <p style=\"color: #FF3333;\">Your reward: 0 points</p>\n        ","response":null,"trial_type":"html-keyboard-response","trial_index":5,"plugin_version":"2.1.0","time_elapsed":88691},{"rt":null,"stimulus":"<div class=\"fixation\" style=\"font-size: 60px;\">+</div>","response":null,"trial_type":"html-keyboard-response","trial_index":6,"plugin_version":"2.1.0","time_elapsed":89699},{"target_group":"white","target_index":0,"condition_label":"practice","rt":-1,"response":"","correct":false,"choices":"ALL_KEYS","correct_choice":["a"],"trial_duration":2000,"flip_timestamps":[],"response_ends_trial":false,"number_of_apertures":2,"number_of_dots":[100,95],"number_of_sets":1,"coherent_direction":[22,265],"coherence":1,"opposite_coherence":0,"dot_radius":2,"dot_side_length":1,"dot_life":-1,"move_distance":1,"aperture_width":300,"aperture_height":300,"dot_color":["white","black"],"dot_shape":"circle","background_color":"#AAA","RDK_type":3,"aperture_type":2,"reinsert_type":2,"frame_rate":16.553719008264462,"frame_rate_array":[4,10,17,16,17,16,17,17,17,16,18,15,17,16,19,14,18,18,15,16,17,17,17,17,18,16,17,17,17,17,17,17,16,17,16,16,16,17,17,17,17,17,16,17,18,16,16,18,15,17,17,17,15,17,17,17,18,18,16,17,16,18,16,17,17,16,16,18,16,16,17,17,16,17,17,15,18,17,16,17,17,15,17,16,17,16,17,17,16,17,16,17,17,17,17,17,17,18,16,17,17,16,16,18,16,17,18,16,16,16,18,16,17,17,16,17,17,16,16,17,18],"number_of_frames":121,"aperture_center_x":960,"aperture_center_y":540,"fixation_cross":true,"fixation_cross_width":15,"fixation_cross_height":15,"fixation_cross_color":"#111","fixation_cross_thickness":1,"border":true,"border_thickness":2,"border_color":"transparent","canvas_width":1920,"canvas_height":1080,"trial_type":"rdk","trial_index":7,"plugin_version":"2.0.0","time_elapsed":91705,"phase":"practice","target_direction":22,"distractor_direction":265},{"rt":2920,"stimulus":"\n        <div class=\"response-container\">\n          <div class=\"response-instruction\">\n            <p>rotate the bar by using the left and right arrow keys.</p>\n            <p>when you are determined, press the Enter key.</p>\n          </div>\n          <div class=\"response-circle\">\n            <div class=\"response-fixation\"></div>\n            <div id=\"bar\" class=\"rotating-bar\"></div>\n          </div>\n        </div>\n      ","response":"Enter","trial_type":"html-keyboard-response","trial_index":8,"plugin_version":"2.1.0","time_elapsed":94627,"random_initial_angle":341,"response_angle_css":416,"response_angle_rdk":34,"angular_error_target":12,"angular_error_distractor":129,"target_direction":22,"target_group":"white","reward_points":7},{"rt":null,"stimulus":"\n          <p style=\"color: #00FF00;\">Your reward: 7 points</p>\n        ","response":null,"trial_type":"html-keyboard-response","trial_index":9,"plugin_version":"2.1.0","time_elapsed":96633},{"rt":null,"stimulus":"<div class=\"fixation\" style=\"font-size: 60px;\">+</div>","response":null,"trial_type":"html-keyboard-response","trial_index":10,"plugin_version":"2.1.0","time_elapsed":97641},{"target_group":"white","target_index":0,"condition_label":"practice","rt":-1,"response":"","correct":false,"choices":"ALL_KEYS","correct_choice":["a"],"trial_duration":2000,"flip_timestamps":[],"response_ends_trial":false,"number_of_apertures":2,"number_of_dots":[100,67],"number_of_sets":1,"coherent_direction":[290,142],"coherence":1,"opposite_coherence":0,"dot_radius":2,"dot_side_length":1,"dot_life":-1,"move_distance":1,"aperture_width":300,"aperture_height":300,"dot_color":["white","black"],"dot_shape":"circle","background_color":"#AAA","RDK_type":3,"aperture_type":2,"reinsert_type":2,"frame_rate":16.691666666666666,"frame_rate_array":[9,16,17,17,17,17,16,17,17,17,17,17,16,17,17,16,17,17,17,16,17,17,16,17,17,17,16,17,17,16,17,17,17,16,17,17,16,17,17,16,17,17,17,16,17,18,17,17,17,17,17,17,17,15,17,17,17,16,17,17,17,17,17,17,16,18,17,16,17,17,17,16,17,17,16,17,17,16,17,17,17,16,17,18,15,17,16,17,16,17,17,17,17,17,17,16,17,17,17,16,17,18,15,17,17,17,17,17,18,16,17,17,17,16,17,17,16,16,16,17],"number_of_frames":120,"aperture_center_x":960,"aperture_center_y":540,"fixation_cross":true,"fixation_cross_width":15,"fixation_cross_height":15,"fixation_cross_color":"#111","fixation_cross_thickness":1,"border":true,"border_thickness":2,"border_color":"transparent","canvas_width":1920,"canvas_height":1080,"trial_type":"rdk","trial_index":11,"plugin_version":"2.0.0","time_elapsed":99651,"phase":"practice","target_direction":290,"distractor_direction":142},{"rt":4089,"stimulus":"\n        <div class=\"response-container\">\n          <div class=\"response-instruction\">\n            <p>rotate the bar by using the left and right arrow keys.</p>\n            <p>when you are determined, press the Enter key.</p>\n          </div>\n          <div class=\"response-circle\">\n            <div class=\"response-fixation\"></div>\n            <div id=\"bar\" class=\"rotating-bar\"></div>\n          </div>\n        </div>\n      ","response":"Enter","trial_type":"html-keyboard-response","trial_index":12,"plugin_version":"2.1.0","time_elapsed":103741,"random_initial_angle":10,"response_angle_css":131,"response_angle_rdk":319,"angular_error_target":29,"angular_error_distractor":177,"target_direction":290,"target_group":"white","reward_points":4},{"rt":null,"stimulus":"\n          <p style=\"color: #00FF00;\">Your reward: 4 points</p>\n        ","response":null,"trial_type":"html-keyboard-response","trial_index":13,"plugin_version":"2.1.0","time_elapsed":105751},{"rt":null,"stimulus":"<div class=\"fixation\" style=\"font-size: 60px;\">+</div>","response":null,"trial_type":"html-keyboard-response","trial_index":14,"plugin_version":"2.1.0","time_elapsed":106759},{"target_group":"black","target_index":1,"condition_label":"practice","rt":-1,"response":"","correct":false,"choices":"ALL_KEYS","correct_choice":["a"],"trial_duration":2000,"flip_timestamps":[],"response_ends_trial":false,"number_of_apertures":2,"number_of_dots":[74,100],"number_of_sets":1,"coherent_direction":[70,248],"coherence":1,"opposite_coherence":0,"dot_radius":2,"dot_side_length":1,"dot_life":-1,"move_distance":1,"aperture_width":300,"aperture_height":300,"dot_color":["white","black"],"dot_shape":"circle","background_color":"#AAA","RDK_type":3,"aperture_type":2,"reinsert_type":2,"frame_rate":16.65,"frame_rate_array":[8,15,17,17,17,17,17,17,17,18,16,17,17,16,16,17,18,16,16,17,17,17,16,17,17,16,16,17,17,16,16,18,16,16,17,17,17,17,17,18,17,16,17,17,16,16,17,17,17,16,17,17,16,16,17,18,16,16,18,17,16,17,18,16,16,16,17,17,16,17,17,17,17,16,18,16,17,18,17,17,17,16,17,16,17,17,16,16,17,17,16,16,17,18,16,17,17,17,16,17,17,17,17,16,17,17,17,17,16,17,17,18,15,17,17,16,22,11,18,15],"number_of_frames":120,"aperture_center_x":960,"aperture_center_y":540,"fixation_cross":true,"fixation_cross_width":15,"fixation_cross_height":15,"fixation_cross_color":"#111","fixation_cross_thickness":1,"border":true,"border_thickness":2,"border_color":"transparent","canvas_width":1920,"canvas_height":1080,"trial_type":"rdk","trial_index":15,"plugin_version":"2.0.0","time_elapsed":108769,"phase":"practice","target_direction":248,"distractor_direction":70},{"rt":3022,"stimulus":"\n        <div class=\"response-container\">\n          <div class=\"response-instruction\">\n            <p>rotate the bar by using the left and right arrow keys.</p>\n            <p>when you are determined, press the Enter key.</p>\n          </div>\n          <div class=\"response-circle\">\n            <div class=\"response-fixation\"></div>\n            <div id=\"bar\" class=\"rotating-bar\"></div>\n          </div>\n        </div>\n      ","response":"Enter","trial_type":"html-keyboard-response","trial_index":16,"plugin_version":"2.1.0","time_elapsed":111792,"random_initial_angle":334,"response_angle_css":214,"response_angle_rdk":236,"angular_error_target":-12,"angular_error_distractor":166,"target_direction":248,"target_group":"black","reward_points":7},{"rt":null,"stimulus":"\n          <p style=\"color: #00FF00;\">Your reward: 7 points</p>\n        ","response":null,"trial_type":"html-keyboard-response","trial_index":17,"plugin_version":"2.1.0","time_elapsed":113807},{"rt":null,"stimulus":"<div class=\"fixation\" style=\"font-size: 60px;\">+</div>","response":null,"trial_type":"html-keyboard-response","trial_index":18,"plugin_version":"2.1.0","time_elapsed":114810},{"target_group":"black","target_index":1,"condition_label":"practice","rt":-1,"response":"","correct":false,"choices":"ALL_KEYS","correct_choice":["a"],"trial_duration":2000,"flip_timestamps":[],"response_ends_trial":false,"number_of_apertures":2,"number_of_dots":[70,100],"number_of_sets":1,"coherent_direction":[223,121],"coherence":1,"opposite_coherence":0,"dot_radius":2,"dot_side_length":1,"dot_life":-1,"move_distance":1,"aperture_width":300,"aperture_height":300,"dot_color":["white","black"],"dot_shape":"circle","background_color":"#AAA","RDK_type":3,"aperture_type":2,"reinsert_type":2,"frame_rate":16.628099173553718,"frame_rate_array":[8,17,17,16,17,17,17,16,17,17,16,17,17,17,16,17,16,17,17,17,17,16,17,17,16,17,17,16,17,17,16,17,16,17,17,16,17,17,17,17,17,17,16,17,17,17,16,17,17,16,17,16,17,16,17,17,16,16,17,17,16,16,17,16,18,17,17,16,17,17,16,17,18,15,16,17,17,16,17,17,17,16,17,17,17,16,17,17,16,16,17,17,17,17,17,17,17,17,17,16,17,17,16,17,17,16,17,17,18,16,17,17,17,16,16,17,17,16,17,17,16],"number_of_frames":121,"aperture_center_x":960,"aperture_center_y":540,"fixation_cross":true,"fixation_cross_width":15,"fixation_cross_height":15,"fixation_cross_color":"#111","fixation_cross_thickness":1,"border":true,"border_thickness":2,"border_color":"transparent","canvas_width":1920,"canvas_height":1080,"trial_type":"rdk","trial_index":19,"plugin_version":"2.0.0","time_elapsed":116822,"phase":"practice","target_direction":121,"distractor_direction":223},{"rt":2491,"stimulus":"\n        <div class=\"response-container\">\n          <div class=\"response-instruction\">\n            <p>rotate the bar by using the left and right arrow keys.</p>\n            <p>when you are determined, press the Enter key.</p>\n          </div>\n          <div class=\"response-circle\">\n            <div class=\"response-fixation\"></div>\n            <div id=\"bar\" class=\"rotating-bar\"></div>\n          </div>\n        </div>\n      ","response":"Enter","trial_type":"html-keyboard-response","trial_index":20,"plugin_version":"2.1.0","time_elapsed":119316,"random_initial_angle":54,"response_angle_css":-39,"response_angle_rdk":129,"angular_error_target":8,"angular_error_distractor":-94,"target_direction":121,"target_group":"black","reward_points":8},{"rt":null,"stimulus":"\n          <p style=\"color: #00FF00;\">Your reward: 8 points</p>\n        ","response":null,"trial_type":"html-keyboard-response","trial_index":21,"plugin_version":"2.1.0","time_elapsed":121318},{"rt":null,"stimulus":"<div class=\"fixation\" style=\"font-size: 60px;\">+</div>","response":null,"trial_type":"html-keyboard-response","trial_index":22,"plugin_version":"2.1.0","time_elapsed":122326},{"target_group":"black","target_index":1,"condition_label":"practice","rt":-1,"response":"","correct":false,"choices":"ALL_KEYS","correct_choice":["a"],"trial_duration":2000,"flip_timestamps":[],"response_ends_trial":false,"number_of_apertures":2,"number_of_dots":[75,100],"number_of_sets":1,"coherent_direction":[16,244],"coherence":1,"opposite_coherence":0,"dot_radius":2,"dot_side_length":1,"dot_life":-1,"move_distance":1,"aperture_width":300,"aperture_height":300,"dot_color":["white","black"],"dot_shape":"circle","background_color":"#AAA","RDK_type":3,"aperture_type":2,"reinsert_type":2,"frame_rate":16.644628099173552,"frame_rate_array":[7,14,13,17,18,15,18,15,17,16,18,17,16,17,17,16,17,17,17,16,19,16,16,17,18,15,16,18,18,16,17,18,16,16,18,17,15,17,17,16,17,18,17,16,18,17,15,17,18,16,16,18,17,15,18,17,16,17,17,16,16,19,16,17,16,18,19,13,18,17,16,17,15,19,17,18,16,16,17,18,16,16,18,16,16,17,18,16,17,19,15,15,17,18,16,17,18,15,16,17,17,17,17,18,17,16,18,16,17,17,17,16,17,17,16,16,17,18,15,17,17],"number_of_frames":121,"aperture_center_x":960,"aperture_center_y":540,"fixation_cross":true,"fixation_cross_width":15,"fixation_cross_height":15,"fixation_cross_color":"#111","fixation_cross_thickness":1,"border":true,"border_thickness":2,"border_color":"transparent","canvas_width":1920,"canvas_height":1080,"trial_type":"rdk","trial_index":23,"plugin_version":"2.0.0","time_elapsed":124342,"phase":"practice","target_direction":244,"distractor_direction":16},{"rt":2952,"stimulus":"\n        <div class=\"response-container\">\n          <div class=\"response-instruction\">\n            <p>rotate the bar by using the left and right arrow keys.</p>\n            <p>when you are determined, press the Enter key.</p>\n          </div>\n          <div class=\"response-circle\">\n            <div class=\"response-fixation\"></div>\n            <div id=\"bar\" class=\"rotating-bar\"></div>\n          </div>\n        </div>\n      ","response":"Enter","trial_type":"html-keyboard-response","trial_index":24,"plugin_version":"2.1.0","time_elapsed":127296,"random_initial_angle":173,"response_angle_css":227,"response_angle_rdk":223,"angular_error_target":-21,"angular_error_distractor":-153,"target_direction":244,"target_group":"black","reward_points":5},{"rt":null,"stimulus":"\n          <p style=\"color: #00FF00;\">Your reward: 5 points</p>\n        ","response":null,"trial_type":"html-keyboard-response","trial_index":25,"plugin_version":"2.1.0","time_elapsed":129309},{"rt":null,"stimulus":"<div class=\"fixation\" style=\"font-size: 60px;\">+</div>","response":null,"trial_type":"html-keyboard-response","trial_index":26,"plugin_version":"2.1.0","time_elapsed":130318},{"target_group":"black","target_index":1,"condition_label":"practice","rt":-1,"response":"","correct":false,"choices":"ALL_KEYS","correct_choice":["a"],"trial_duration":2000,"flip_timestamps":[],"response_ends_trial":false,"number_of_apertures":2,"number_of_dots":[91,100],"number_of_sets":1,"coherent_direction":[94,343],"coherence":1,"opposite_coherence":0,"dot_radius":2,"dot_side_length":1,"dot_life":-1,"move_distance":1,"aperture_width":300,"aperture_height":300,"dot_color":["white","black"],"dot_shape":"circle","background_color":"#AAA","RDK_type":3,"aperture_type":2,"reinsert_type":2,"frame_rate":16.644628099173552,"frame_rate_array":[2,16,18,16,17,17,17,16,17,17,16,17,17,17,16,17,17,16,17,17,17,17,17,16,17,17,17,18,16,18,15,18,16,17,18,16,17,17,16,17,17,17,16,17,17,17,17,17,17,16,17,17,17,16,17,17,16,17,17,17,16,16,17,16,17,17,17,17,18,18,16,17,17,17,16,17,17,17,16,17,16,17,17,17,17,16,17,17,17,18,17,17,16,17,16,16,17,17,17,16,17,17,17,16,17,17,16,17,17,17,16,17,17,16,16,17,17,16,16,17,17],"number_of_frames":121,"aperture_center_x":960,"aperture_center_y":540,"fixation_cross":true,"fixation_cross_width":15,"fixation_cross_height":15,"fixation_cross_color":"#111","fixation_cross_thickness":1,"border":true,"border_thickness":2,"border_color":"transparent","canvas_width":1920,"canvas_height":1080,"trial_type":"rdk","trial_index":27,"plugin_version":"2.0.0","time_elapsed":132322,"phase":"practice","target_direction":343,"distractor_direction":94},{"rt":3490,"stimulus":"\n        <div class=\"response-container\">\n          <div class=\"response-instruction\">\n            <p>rotate the bar by using the left and right arrow keys.</p>\n            <p>when you are determined, press the Enter key.</p>\n          </div>\n          <div class=\"response-circle\">\n            <div class=\"response-fixation\"></div>\n            <div id=\"bar\" class=\"rotating-bar\"></div>\n          </div>\n        </div>\n      ","response":"Enter","trial_type":"html-keyboard-response","trial_index":28,"plugin_version":"2.1.0","time_elapsed":135813,"random_initial_angle":50,"response_angle_css":-30,"response_angle_rdk":120,"angular_error_target":137,"angular_error_distractor":26,"target_direction":343,"target_group":"black","reward_points":0},{"rt":null,"stimulus":"\n          <p style=\"color: #FF3333;\">Your reward: 0 points</p>\n        ","response":null,"trial_type":"html-keyboard-response","trial_index":29,"plugin_version":"2.1.0","time_elapsed":137828},{"rt":null,"stimulus":"<div class=\"fixation\" style=\"font-size: 60px;\">+</div>","response":null,"trial_type":"html-keyboard-response","trial_index":30,"plugin_version":"2.1.0","time_elapsed":138840},{"target_group":"white","target_index":0,"condition_label":"practice","rt":-1,"response":"","correct":false,"choices":"ALL_KEYS","correct_choice":["a"],"trial_duration":2000,"flip_timestamps":[],"response_ends_trial":false,"number_of_apertures":2,"number_of_dots":[100,99],"number_of_sets":1,"coherent_direction":[111,315],"coherence":1,"opposite_coherence":0,"dot_radius":2,"dot_side_length":1,"dot_life":-1,"move_distance":1,"aperture_width":300,"aperture_height":300,"dot_color":["white","black"],"dot_shape":"circle","background_color":"#AAA","RDK_type":3,"aperture_type":2,"reinsert_type":2,"frame_rate":16.658333333333335,"frame_rate_array":[13,16,17,16,17,17,17,17,17,17,16,16,17,17,16,17,17,16,16,17,17,16,17,17,16,16,17,17,16,16,17,18,16,17,16,16,17,16,17,17,18,17,17,16,17,17,16,17,17,17,16,17,17,16,16,17,17,16,17,17,17,16,17,17,16,17,17,18,16,17,17,16,17,17,17,17,17,17,17,16,17,17,17,16,17,17,16,16,17,17,16,17,17,17,15,17,17,16,17,17,17,16,17,17,17,16,17,17,16,16,17,17,16,17,18,15,18,17,17,16],"number_of_frames":120,"aperture_center_x":960,"aperture_center_y":540,"fixation_cross":true,"fixation_cross_width":15,"fixation_cross_height":15,"fixation_cross_color":"#111","fixation_cross_thickness":1,"border":true,"border_thickness":2,"border_color":"transparent","canvas_width":1920,"canvas_height":1080,"trial_type":"rdk","trial_index":31,"plugin_version":"2.0.0","time_elapsed":140845,"phase":"practice","target_direction":111,"distractor_direction":315},{"rt":2377,"stimulus":"\n        <div class=\"response-container\">\n          <div class=\"response-instruction\">\n            <p>rotate the bar by using the left and right arrow keys.</p>\n            <p>when you are determined, press the Enter key.</p>\n          </div>\n          <div class=\"response-circle\">\n            <div class=\"response-fixation\"></div>\n            <div id=\"bar\" class=\"rotating-bar\"></div>\n          </div>\n        </div>\n      ","response":"Enter","trial_type":"html-keyboard-response","trial_index":32,"plugin_version":"2.1.0","time_elapsed":143224,"random_initial_angle":281,"response_angle_css":327,"response_angle_rdk":123,"angular_error_target":12,"angular_error_distractor":168,"target_direction":111,"target_group":"white","reward_points":7},{"rt":null,"stimulus":"\n          <p style=\"color: #00FF00;\">Your reward: 7 points</p>\n        ","response":null,"trial_type":"html-keyboard-response","trial_index":33,"plugin_version":"2.1.0","time_elapsed":145237},{"rt":null,"stimulus":"<div class=\"fixation\" style=\"font-size: 60px;\">+</div>","response":null,"trial_type":"html-keyboard-response","trial_index":34,"plugin_version":"2.1.0","time_elapsed":146252},{"target_group":"white","target_index":0,"condition_label":"practice","rt":-1,"response":"","correct":false,"choices":"ALL_KEYS","correct_choice":["a"],"trial_duration":2000,"flip_timestamps":[],"response_ends_trial":false,"number_of_apertures":2,"number_of_dots":[100,75],"number_of_sets":1,"coherent_direction":[342,221],"coherence":1,"opposite_coherence":0,"dot_radius":2,"dot_side_length":1,"dot_life":-1,"move_distance":1,"aperture_width":300,"aperture_height":300,"dot_color":["white","black"],"dot_shape":"circle","background_color":"#AAA","RDK_type":3,"aperture_type":2,"reinsert_type":2,"frame_rate":16.58677685950413,"frame_rate_array":[1,16,17,17,17,16,17,17,16,16,17,17,17,17,16,18,16,17,17,16,17,17,18,16,16,17,18,16,16,17,17,16,16,16,17,17,17,18,16,16,16,17,17,17,18,17,17,16,17,18,16,17,17,17,16,16,17,17,16,16,17,17,15,17,17,17,16,17,17,17,17,17,17,17,16,17,17,17,16,17,18,15,16,17,17,16,17,17,18,16,16,17,17,16,16,17,17,16,16,16,17,17,17,17,18,16,17,17,17,16,17,18,16,16,17,18,16,16,17,18,16],"number_of_frames":121,"aperture_center_x":960,"aperture_center_y":540,"fixation_cross":true,"fixation_cross_width":15,"fixation_cross_height":15,"fixation_cross_color":"#111","fixation_cross_thickness":1,"border":true,"border_thickness":2,"border_color":"transparent","canvas_width":1920,"canvas_height":1080,"trial_type":"rdk","trial_index":35,"plugin_version":"2.0.0","time_elapsed":148258,"phase":"practice","target_direction":342,"distractor_direction":221},{"rt":1410,"stimulus":"\n        <div class=\"response-container\">\n          <div class=\"response-instruction\">\n            <p>rotate the bar by using the left and right arrow keys.</p>\n            <p>when you are determined, press the Enter key.</p>\n          </div>\n          <div class=\"response-circle\">\n            <div class=\"response-fixation\"></div>\n            <div id=\"bar\" class=\"rotating-bar\"></div>\n          </div>\n        </div>\n      ","response":"Enter","trial_type":"html-keyboard-response","trial_index":36,"plugin_version":"2.1.0","time_elapsed":149672,"random_initial_angle":239,"response_angle_css":239,"response_angle_rdk":211,"angular_error_target":-131,"angular_error_distractor":-10,"target_direction":342,"target_group":"white","reward_points":0},{"rt":null,"stimulus":"\n          <p style=\"color: #FF3333;\">Your reward: 0 points</p>\n        ","response":null,"trial_type":"html-keyboard-response","trial_index":37,"plugin_version":"2.1.0","time_elapsed":151687},{"rt":null,"stimulus":"<div class=\"fixation\" style=\"font-size: 60px;\">+</div>","response":null,"trial_type":"html-keyboard-response","trial_index":38,"plugin_version":"2.1.0","time_elapsed":152690},{"target_group":"black","target_index":1,"condition_label":"practice","rt":-1,"response":"","correct":false,"choices":"ALL_KEYS","correct_choice":["a"],"trial_duration":2000,"flip_timestamps":[],"response_ends_trial":false,"number_of_apertures":2,"number_of_dots":[51,100],"number_of_sets":1,"coherent_direction":[195,323],"coherence":1,"opposite_coherence":0,"dot_radius":2,"dot_side_length":1,"dot_life":-1,"move_distance":1,"aperture_width":300,"aperture_height":300,"dot_color":["white","black"],"dot_shape":"circle","background_color":"#AAA","RDK_type":3,"aperture_type":2,"reinsert_type":2,"frame_rate":16.675,"frame_rate_array":[12,17,17,16,17,16,18,16,16,17,17,17,17,16,17,16,16,17,17,17,16,17,17,17,17,16,17,16,17,17,18,17,16,17,17,17,17,17,17,17,17,17,17,17,17,16,17,17,17,16,17,17,16,16,17,17,17,16,17,18,14,17,17,17,16,16,17,17,16,17,17,17,17,16,17,17,16,16,17,17,17,16,17,17,17,16,17,17,16,17,17,17,16,17,16,17,16,17,17,18,16,17,17,17,16,16,17,17,16,16,17,17,16,17,17,17,17,16,17,17],"number_of_frames":120,"aperture_center_x":960,"aperture_center_y":540,"fixation_cross":true,"fixation_cross_width":15,"fixation_cross_height":15,"fixation_cross_color":"#111","fixation_cross_thickness":1,"border":true,"border_thickness":2,"border_color":"transparent","canvas_width":1920,"canvas_height":1080,"trial_type":"rdk","trial_index":39,"plugin_version":"2.0.0","time_elapsed":154695,"phase":"practice","target_direction":323,"distractor_direction":195},{"rt":1276,"stimulus":"\n        <div class=\"response-container\">\n          <div class=\"response-instruction\">\n            <p>rotate the bar by using the left and right arrow keys.</p>\n            <p>when you are determined, press the Enter key.</p>\n          </div>\n          <div class=\"response-circle\">\n            <div class=\"response-fixation\"></div>\n            <div id=\"bar\" class=\"rotating-bar\"></div>\n          </div>\n        </div>\n      ","response":"Enter","trial_type":"html-keyboard-response","trial_index":40,"plugin_version":"2.1.0","time_elapsed":155974,"random_initial_angle":131,"response_angle_css":131,"response_angle_rdk":319,"angular_error_target":-4,"angular_error_distractor":124,"target_direction":323,"target_group":"black","reward_points":9},{"rt":null,"stimulus":"\n          <p style=\"color: #00FF00;\">Your reward: 9 points</p>\n        ","response":null,"trial_type":"html-keyboard-response","trial_index":41,"plugin_version":"2.1.0","time_elapsed":157976},{"rt":null,"stimulus":"<div class=\"fixation\" style=\"font-size: 60px;\">+</div>","response":null,"trial_type":"html-keyboard-response","trial_index":42,"plugin_version":"2.1.0","time_elapsed":158981},{"target_group":"white","target_index":0,"condition_label":"practice","rt":-1,"response":"","correct":false,"choices":"ALL_KEYS","correct_choice":["a"],"trial_duration":2000,"flip_timestamps":[],"response_ends_trial":false,"number_of_apertures":2,"number_of_dots":[100,65],"number_of_sets":1,"coherent_direction":[158,349],"coherence":1,"opposite_coherence":0,"dot_radius":2,"dot_side_length":1,"dot_life":-1,"move_distance":1,"aperture_width":300,"aperture_height":300,"dot_color":["white","black"],"dot_shape":"circle","background_color":"#AAA","RDK_type":3,"aperture_type":2,"reinsert_type":2,"frame_rate":16.669421487603305,"frame_rate_array":[8,16,17,17,17,16,17,17,17,16,17,17,17,17,17,17,17,16,17,17,18,16,17,17,16,17,17,17,17,17,17,17,16,16,16,18,15,17,18,17,16,17,17,17,16,17,17,18,15,17,17,17,16,17,17,17,16,17,16,17,16,16,17,17,17,16,16,17,17,17,17,17,17,17,17,16,17,17,17,15,17,17,17,16,17,16,17,17,17,17,17,16,17,17,17,16,17,17,17,16,17,17,17,17,17,17,17,16,17,17,17,16,17,17,17,16,17,17,17,16,16],"number_of_frames":121,"aperture_center_x":960,"aperture_center_y":540,"fixation_cross":true,"fixation_cross_width":15,"fixation_cross_height":15,"fixation_cross_color":"#111","fixation_cross_thickness":1,"border":true,"border_thickness":2,"border_color":"transparent","canvas_width":1920,"canvas_height":1080,"trial_type":"rdk","trial_index":43,"plugin_version":"2.0.0","time_elapsed":160990,"phase":"practice","target_direction":158,"distractor_direction":349},{"rt":2985,"stimulus":"\n        <div class=\"response-container\">\n          <div class=\"response-instruction\">\n            <p>rotate the bar by using the left and right arrow keys.</p>\n            <p>when you are determined, press the Enter key.</p>\n          </div>\n          <div class=\"response-circle\">\n            <div class=\"response-fixation\"></div>\n            <div id=\"bar\" class=\"rotating-bar\"></div>\n          </div>\n        </div>\n      ","response":"Enter","trial_type":"html-keyboard-response","trial_index":44,"plugin_version":"2.1.0","time_elapsed":163976,"random_initial_angle":47,"response_angle_css":-47,"response_angle_rdk":137,"angular_error_target":-21,"angular_error_distractor":148,"target_direction":158,"target_group":"white","reward_points":5},{"rt":null,"stimulus":"\n          <p style=\"color: #00FF00;\">Your reward: 5 points</p>\n        ","response":null,"trial_type":"html-keyboard-response","trial_index":45,"plugin_version":"2.1.0","time_elapsed":165982},{"rt":null,"stimulus":"<div class=\"fixation\" style=\"font-size: 60px;\">+</div>","response":null,"trial_type":"html-keyboard-response","trial_index":46,"plugin_version":"2.1.0","time_elapsed":166996},{"target_group":"white","target_index":0,"condition_label":"practice","rt":-1,"response":"","correct":false,"choices":"ALL_KEYS","correct_choice":["a"],"trial_duration":2000,"flip_timestamps":[],"response_ends_trial":false,"number_of_apertures":2,"number_of_dots":[100,84],"number_of_sets":1,"coherent_direction":[129,276],"coherence":1,"opposite_coherence":0,"dot_radius":2,"dot_side_length":1,"dot_life":-1,"move_distance":1,"aperture_width":300,"aperture_height":300,"dot_color":["white","black"],"dot_shape":"circle","background_color":"#AAA","RDK_type":3,"aperture_type":2,"reinsert_type":2,"frame_rate":16.66115702479339,"frame_rate_array":[9,16,17,17,17,16,17,17,17,17,17,17,16,16,17,16,17,17,17,17,16,17,17,16,17,17,17,17,16,17,17,17,15,17,17,18,16,17,17,17,16,17,16,17,16,17,17,17,16,17,17,16,16,17,17,16,16,17,17,17,17,17,17,16,16,16,17,16,17,17,17,17,17,16,17,16,17,17,17,17,17,17,17,16,17,17,17,17,17,17,17,16,17,17,16,17,17,17,16,17,18,16,16,17,17,17,17,17,17,17,16,17,17,17,16,16,17,17,16,17,17],"number_of_frames":121,"aperture_center_x":960,"aperture_center_y":540,"fixation_cross":true,"fixation_cross_width":15,"fixation_cross_height":15,"fixation_cross_color":"#111","fixation_cross_thickness":1,"border":true,"border_thickness":2,"border_color":"transparent","canvas_width":1920,"canvas_height":1080,"trial_type":"rdk","trial_index":47,"plugin_version":"2.0.0","time_elapsed":169010,"phase":"practice","target_direction":129,"distractor_direction":276},{"rt":3348,"stimulus":"\n        <div class=\"response-container\">\n          <div class=\"response-instruction\">\n            <p>rotate the bar by using the left and right arrow keys.</p>\n            <p>when you are determined, press the Enter key.</p>\n          </div>\n          <div class=\"response-circle\">\n            <div class=\"response-fixation\"></div>\n            <div id=\"bar\" class=\"rotating-bar\"></div>\n          </div>\n        </div>\n      ","response":"Enter","trial_type":"html-keyboard-response","trial_index":48,"plugin_version":"2.1.0","time_elapsed":172360,"random_initial_angle":238,"response_angle_css":323,"response_angle_rdk":127,"angular_error_target":-2,"angular_error_distractor":-149,"target_direction":129,"target_group":"white","reward_points":9},{"rt":null,"stimulus":"\n          <p style=\"color: #00FF00;\">Your reward: 9 points</p>\n        ","response":null,"trial_type":"html-keyboard-response","trial_index":49,"plugin_version":"2.1.0","time_elapsed":174362},{"rt":null,"stimulus":"<div class=\"fixation\" style=\"font-size: 60px;\">+</div>","response":null,"trial_type":"html-keyboard-response","trial_index":50,"plugin_version":"2.1.0","time_elapsed":175376},{"target_group":"black","target_index":1,"condition_label":"practice","rt":-1,"response":"","correct":false,"choices":"ALL_KEYS","correct_choice":["a"],"trial_duration":2000,"flip_timestamps":[],"response_ends_trial":false,"number_of_apertures":2,"number_of_dots":[79,100],"number_of_sets":1,"coherent_direction":[286,46],"coherence":1,"opposite_coherence":0,"dot_radius":2,"dot_side_length":1,"dot_life":-1,"move_distance":1,"aperture_width":300,"aperture_height":300,"dot_color":["white","black"],"dot_shape":"circle","background_color":"#AAA","RDK_type":3,"aperture_type":2,"reinsert_type":2,"frame_rate":16.768595041322314,"frame_rate_array":[10,18,17,16,17,18,16,17,16,18,17,16,17,17,16,17,17,17,16,17,17,16,16,17,16,18,17,16,18,14,17,18,17,17,17,17,16,17,17,17,17,17,16,16,17,17,17,17,17,17,17,17,17,17,17,17,17,17,17,16,17,17,17,17,16,17,17,17,17,17,17,17,17,16,17,16,16,17,18,16,17,17,16,17,17,17,16,17,17,17,17,17,17,17,17,17,17,17,17,17,17,17,17,17,17,17,17,16,16,16,17,17,17,17,16,18,16,17,17,17,17],"number_of_frames":121,"aperture_center_x":960,"aperture_center_y":540,"fixation_cross":true,"fixation_cross_width":15,"fixation_cross_height":15,"fixation_cross_color":"#111","fixation_cross_thickness":1,"border":true,"border_thickness":2,"border_color":"transparent","canvas_width":1920,"canvas_height":1080,"trial_type":"rdk","trial_index":51,"plugin_version":"2.0.0","time_elapsed":177393,"phase":"practice","target_direction":46,"distractor_direction":286},{"rt":5548,"stimulus":"\n        <div class=\"response-container\">\n          <div class=\"response-instruction\">\n            <p>rotate the bar by using the left and right arrow keys.</p>\n            <p>when you are determined, press the Enter key.</p>\n          </div>\n          <div class=\"response-circle\">\n            <div class=\"response-fixation\"></div>\n            <div id=\"bar\" class=\"rotating-bar\"></div>\n          </div>\n        </div>\n      ","response":"Enter","trial_type":"html-keyboard-response","trial_index":52,"plugin_version":"2.1.0","time_elapsed":182945,"random_initial_angle":199,"response_angle_css":398,"response_angle_rdk":52,"angular_error_target":6,"angular_error_distractor":126,"target_direction":46,"target_group":"black","reward_points":8},{"rt":null,"stimulus":"\n          <p style=\"color: #00FF00;\">Your reward: 8 points</p>\n        ","response":null,"trial_type":"html-keyboard-response","trial_index":53,"plugin_version":"2.1.0","time_elapsed":184962},{"rt":null,"stimulus":"<div class=\"fixation\" style=\"font-size: 60px;\">+</div>","response":null,"trial_type":"html-keyboard-response","trial_index":54,"plugin_version":"2.1.0","time_elapsed":185975},{"target_group":"black","target_index":1,"condition_label":"practice","rt":-1,"response":"","correct":false,"choices":"ALL_KEYS","correct_choice":["a"],"trial_duration":2000,"flip_timestamps":[],"response_ends_trial":false,"number_of_apertures":2,"number_of_dots":[55,100],"number_of_sets":1,"coherent_direction":[148,28],"coherence":1,"opposite_coherence":0,"dot_radius":2,"dot_side_length":1,"dot_life":-1,"move_distance":1,"aperture_width":300,"aperture_height":300,"dot_color":["white","black"],"dot_shape":"circle","background_color":"#AAA","RDK_type":3,"aperture_type":2,"reinsert_type":2,"frame_rate":16.666666666666668,"frame_rate_array":[14,15,15,17,17,16,16,18,17,16,17,17,17,16,17,17,18,17,16,18,15,18,16,16,18,14,19,18,15,17,17,16,18,16,16,17,16,18,17,17,18,16,16,18,17,15,16,17,18,18,15,18,17,16,17,18,15,19,15,17,18,16,16,17,16,19,16,16,18,15,17,17,15,17,18,16,17,16,16,17,17,16,17,17,17,17,15,17,17,16,17,16,17,18,16,17,17,16,17,17,17,18,15,17,17,16,17,17,15,16,17,16,21,14,16,18,16,16,17,16],"number_of_frames":120,"aperture_center_x":960,"aperture_center_y":540,"fixation_cross":true,"fixation_cross_width":15,"fixation_cross_height":15,"fixation_cross_color":"#111","fixation_cross_thickness":1,"border":true,"border_thickness":2,"border_color":"transparent","canvas_width":1920,"canvas_height":1080,"trial_type":"rdk","trial_index":55,"plugin_version":"2.0.0","time_elapsed":187980,"phase":"practice","target_direction":28,"distractor_direction":148},{"rt":3325,"stimulus":"\n        <div class=\"response-container\">\n          <div class=\"response-instruction\">\n            <p>rotate the bar by using the left and right arrow keys.</p>\n            <p>when you are determined, press the Enter key.</p>\n          </div>\n          <div class=\"response-circle\">\n            <div class=\"response-fixation\"></div>\n            <div id=\"bar\" class=\"rotating-bar\"></div>\n          </div>\n        </div>\n      ","response":"Enter","trial_type":"html-keyboard-response","trial_index":56,"plugin_version":"2.1.0","time_elapsed":191306,"random_initial_angle":115,"response_angle_css":-41,"response_angle_rdk":131,"angular_error_target":103,"angular_error_distractor":-17,"target_direction":28,"target_group":"black","reward_points":0},{"rt":null,"stimulus":"\n          <p style=\"color: #FF3333;\">Your reward: 0 points</p>\n        ","response":null,"trial_type":"html-keyboard-response","trial_index":57,"plugin_version":"2.1.0","time_elapsed":193317},{"rt":null,"stimulus":"<div class=\"fixation\" style=\"font-size: 60px;\">+</div>","response":null,"trial_type":"html-keyboard-response","trial_index":58,"plugin_version":"2.1.0","time_elapsed":194333},{"target_group":"white","target_index":0,"condition_label":"practice","rt":-1,"response":"","correct":false,"choices":"ALL_KEYS","correct_choice":["a"],"trial_duration":2000,"flip_timestamps":[],"response_ends_trial":false,"number_of_apertures":2,"number_of_dots":[100,97],"number_of_sets":1,"coherent_direction":[291,100],"coherence":1,"opposite_coherence":0,"dot_radius":2,"dot_side_length":1,"dot_life":-1,"move_distance":1,"aperture_width":300,"aperture_height":300,"dot_color":["white","black"],"dot_shape":"circle","background_color":"#AAA","RDK_type":3,"aperture_type":2,"reinsert_type":2,"frame_rate":16.641666666666666,"frame_rate_array":[5,16,17,17,16,17,17,16,17,16,17,17,17,17,17,16,17,17,16,17,17,17,17,17,17,16,17,17,18,16,17,17,17,18,15,17,17,16,17,17,17,17,17,16,17,17,17,17,16,17,17,16,17,16,17,16,17,16,18,16,17,18,16,17,17,16,17,16,17,17,16,18,16,17,16,17,16,17,17,17,17,17,17,17,16,17,17,16,17,16,17,17,18,16,17,16,17,17,16,17,17,17,17,16,16,17,16,17,17,16,17,17,17,17,16,17,17,16,17,17],"number_of_frames":120,"aperture_center_x":960,"aperture_center_y":540,"fixation_cross":true,"fixation_cross_width":15,"fixation_cross_height":15,"fixation_cross_color":"#111","fixation_cross_thickness":1,"border":true,"border_thickness":2,"border_color":"transparent","canvas_width":1920,"canvas_height":1080,"trial_type":"rdk","trial_index":59,"plugin_version":"2.0.0","time_elapsed":196342,"phase":"practice","target_direction":291,"distractor_direction":100},{"rt":2546,"stimulus":"\n        <div class=\"response-container\">\n          <div class=\"response-instruction\">\n            <p>rotate the bar by using the left and right arrow keys.</p>\n            <p>when you are determined, press the Enter key.</p>\n          </div>\n          <div class=\"response-circle\">\n            <div class=\"response-fixation\"></div>\n            <div id=\"bar\" class=\"rotating-bar\"></div>\n          </div>\n        </div>\n      ","response":"Enter","trial_type":"html-keyboard-response","trial_index":60,"plugin_version":"2.1.0","time_elapsed":198890,"random_initial_angle":336,"response_angle_css":366,"response_angle_rdk":84,"angular_error_target":153,"angular_error_distractor":-16,"target_direction":291,"target_group":"white","reward_points":0},{"rt":null,"stimulus":"\n          <p style=\"color: #FF3333;\">Your reward: 0 points</p>\n        ","response":null,"trial_type":"html-keyboard-response","trial_index":61,"plugin_version":"2.1.0","time_elapsed":200906},{"rt":null,"stimulus":"<div class=\"fixation\" style=\"font-size: 60px;\">+</div>","response":null,"trial_type":"html-keyboard-response","trial_index":62,"plugin_version":"2.1.0","time_elapsed":201923},{"target_group":"black","target_index":1,"condition_label":"practice","rt":-1,"response":"","correct":false,"choices":"ALL_KEYS","correct_choice":["a"],"trial_duration":2000,"flip_timestamps":[],"response_ends_trial":false,"number_of_apertures":2,"number_of_dots":[90,100],"number_of_sets":1,"coherent_direction":[123,242],"coherence":1,"opposite_coherence":0,"dot_radius":2,"dot_side_length":1,"dot_life":-1,"move_distance":1,"aperture_width":300,"aperture_height":300,"dot_color":["white","black"],"dot_shape":"circle","background_color":"#AAA","RDK_type":3,"aperture_type":2,"reinsert_type":2,"frame_rate":16.59504132231405,"frame_rate_array":[1,16,16,17,17,17,17,17,16,17,17,17,17,17,16,16,16,17,17,17,16,17,18,16,17,17,17,16,17,16,17,17,16,17,17,17,17,16,17,17,15,18,17,17,17,17,17,16,16,17,16,17,17,17,17,17,17,17,17,17,17,17,16,17,17,16,17,17,16,17,16,17,17,17,16,17,16,16,17,17,18,16,16,16,17,17,17,17,18,17,16,17,17,17,17,16,17,16,17,17,16,16,17,17,16,17,17,17,17,17,16,17,17,16,16,17,16,17,18,17,16],"number_of_frames":121,"aperture_center_x":960,"aperture_center_y":540,"fixation_cross":true,"fixation_cross_width":15,"fixation_cross_height":15,"fixation_cross_color":"#111","fixation_cross_thickness":1,"border":true,"border_thickness":2,"border_color":"transparent","canvas_width":1920,"canvas_height":1080,"trial_type":"rdk","trial_index":63,"plugin_version":"2.0.0","time_elapsed":203929,"phase":"practice","target_direction":242,"distractor_direction":123},{"rt":4591,"stimulus":"\n        <div class=\"response-container\">\n          <div class=\"response-instruction\">\n            <p>rotate the bar by using the left and right arrow keys.</p>\n            <p>when you are determined, press the Enter key.</p>\n          </div>\n          <div class=\"response-circle\">\n            <div class=\"response-fixation\"></div>\n            <div id=\"bar\" class=\"rotating-bar\"></div>\n          </div>\n        </div>\n      ","response":"Enter","trial_type":"html-keyboard-response","trial_index":64,"plugin_version":"2.1.0","time_elapsed":208522,"random_initial_angle":213,"response_angle_css":-44,"response_angle_rdk":134,"angular_error_target":-108,"angular_error_distractor":11,"target_direction":242,"target_group":"black","reward_points":0},{"rt":null,"stimulus":"\n          <p style=\"color: #FF3333;\">Your reward: 0 points</p>\n        ","response":null,"trial_type":"html-keyboard-response","trial_index":65,"plugin_version":"2.1.0","time_elapsed":210535},{"rt":97332,"stimulus":"\n        <div class=\"instructions-container\">\n          <h2>End of Practice</h2>\n          <p>You have completed the practice trials.</p>\n          <p>Press <strong>Enter</strong> key to begin the main experiment.</p>\n        </div>\n      ","response":"Enter","trial_type":"html-keyboard-response","trial_index":66,"plugin_version":"2.1.0","time_elapsed":307870},{"rt":null,"stimulus":"<div class=\"fixation\" style=\"font-size: 60px;\">+</div>","response":null,"trial_type":"html-keyboard-response","trial_index":67,"plugin_version":"2.1.0","time_elapsed":308872},{"phase":"learning-awareness","target_group":"white","condition_label":"W_H_vs_B_L_rep18","target_direction":231,"distractor_direction":112,"session_rotation":197,"rt":-1,"response":"","correct":false,"choices":"ALL_KEYS","correct_choice":["a"],"trial_duration":2000,"flip_timestamps":[],"response_ends_trial":false,"number_of_apertures":200,"number_of_dots":[1,1,1,1,1,1,1,1,1,1,1,1,1,1,1,1,1,1,1,1,1,1,1,1,1,1,1,1,1,1,1,1,1,1,1,1,1,1,1,1,1,1,1,1,1,1,1,1,1,1,1,1,1,1,1,1,1,1,1,1,1,1,1,1,1,1,1,1,1,1,1,1,1,1,1,1,1,1,1,1,1,1,1,1,1,1,1,1,1,1,1,1,1,1,1,1,1,1,1,1,1,1,1,1,1,1,1,1,1,1,1,1,1,1,1,1,1,1,1,1,1,1,1,1,1,1,1,1,1,1,1,1,1,1,1,1,1,1,1,1,1,1,1,1,1,1,1,1,1,1,1,1,1,1,1,1,1,1,1,1,1,1,1,1,1,1,1,1,1,1,1,1,1,1,1,1,1,1,1,1,1,1,1,1,1,1,1,1,1,1,1,1,1,1,1,1,1,1,1,1],"number_of_sets":1,"coherent_direction":[112,231,231,112,231,231,231,112,231,112,112,231,112,231,112,112,231,112,112,112,231,112,112,231,112,231,231,112,112,231,112,231,112,231,231,112,112,231,231,112,231,231,112,112,231,112,112,231,231,112,231,231,231,231,112,231,112,231,231,231,112,231,112,231,231,112,231,231,231,231,231,112,231,112,231,112,112,112,112,231,112,231,231,112,112,112,112,231,112,231,112,112,112,112,231,112,231,112,231,231,112,112,231,112,112,231,112,231,231,231,112,112,112,112,112,112,231,112,231,231,112,112,231,231,112,231,112,231,231,231,231,112,112,112,231,112,112,112,112,231,231,112,112,231,231,231,231,231,112,231,112,231,112,231,112,112,231,112,112,231,112,231,231,112,112,231,231,112,112,112,231,231,112,231,112,231,112,231,231,112,231,231,112,231,231,112,112,112,112,231,112,231,231,231,112,112,231,112,231,231],"coherence":1,"opposite_coherence":0,"dot_radius":2,"dot_side_length":1,"dot_life":-1,"move_distance":1,"aperture_width":300,"aperture_height":300,"dot_color":["black","white","white","black","white","white","white","black","white","black","black","white","black","white","black","black","white","black","black","black","white","black","black","white","black","white","white","black","black","white","black","white","black","white","white","black","black","white","white","black","white","white","black","black","white","black","black","white","white","black","white","white","white","white","black","white","black","white","white","white","black","white","black","white","white","black","white","white","white","white","white","black","white","black","white","black","black","black","black","white","black","white","white","black","black","black","black","white","black","white","black","black","black","black","white","black","white","black","white","white","black","black","white","black","black","white","black","white","white","white","black","black","black","black","black","black","white","black","white","white","black","black","white","white","black","white","black","white","white","white","white","black","black","black","white","black","black","black","black","white","white","black","black","white","white","white","white","white","black","white","black","white","black","white","black","black","white","black","black","white","black","white","white","black","black","white","white","black","black","black","white","white","black","white","black","white","black","white","white","black","white","white","black","white","white","black","black","black","black","white","black","white","white","white","black","black","white","black","white","white"],"dot_shape":"circle","background_color":"#AAA","RDK_type":3,"aperture_type":2,"reinsert_type":2,"frame_rate":16.7,"frame_rate_array":[15,17,16,17,18,17,16,17,17,17,16,17,17,17,16,17,17,17,16,16,17,17,16,17,17,17,16,18,16,17,16,17,17,17,16,17,17,17,17,16,17,17,16,17,17,16,16,17,16,17,16,17,17,16,16,17,17,16,16,17,17,16,16,17,16,18,16,17,17,17,17,16,17,17,18,15,16,17,17,17,16,17,17,17,17,16,17,17,17,17,16,17,17,17,17,16,17,17,16,17,17,17,17,17,16,17,17,17,16,16,17,17,17,16,17,17,18,16,17,17],"number_of_frames":120,"aperture_center_x":960,"aperture_center_y":540,"fixation_cross":true,"fixation_cross_width":15,"fixation_cross_height":15,"fixation_cross_color":"#111","fixation_cross_thickness":1,"border":true,"border_thickness":2,"border_color":"transparent","canvas_width":1920,"canvas_height":1080,"trial_type":"rdk","trial_index":68,"plugin_version":"2.0.0","time_elapsed":310883},{"rt":3933,"stimulus":"\n        <div class=\"response-container\">\n          <div class=\"response-instruction\">\n            <p>rotate the bar by using the left and right arrow keys.</p>\n            <p>when you are determined, press the Enter key.</p>\n          </div>\n          <div class=\"response-circle\">\n            <div class=\"response-fixation\"></div>\n            <div id=\"bar\" class=\"rotating-bar\"></div>\n          </div>\n        </div>\n      ","response":"Enter","trial_type":"html-keyboard-response","trial_index":69,"plugin_version":"2.1.0","time_elapsed":314816,"random_initial_angle":213,"response_angle_css":342,"response_angle_rdk":108,"angular_error_target":-123,"angular_error_distractor":-4,"target_direction":231,"target_group":"white","reward_points":0},{"rt":null,"stimulus":"\n          <p style=\"color: #FF3333;\">Your reward: 0 points</p>\n        ","response":null,"trial_type":"html-keyboard-response","trial_index":70,"plugin_version":"2.1.0","time_elapsed":316827},{"rt":null,"stimulus":"<div class=\"fixation\" style=\"font-size: 60px;\">+</div>","response":null,"trial_type":"html-keyboard-response","trial_index":71,"plugin_version":"2.1.0","time_elapsed":317842},{"phase":"learning-awareness","target_group":"black","condition_label":"B_H_vs_W_L_rep14","target_direction":296,"distractor_direction":53,"session_rotation":197,"rt":-1,"response":"","correct":false,"choices":"ALL_KEYS","correct_choice":["a"],"trial_duration":2000,"flip_timestamps":[],"response_ends_trial":false,"number_of_apertures":200,"number_of_dots":[1,1,1,1,1,1,1,1,1,1,1,1,1,1,1,1,1,1,1,1,1,1,1,1,1,1,1,1,1,1,1,1,1,1,1,1,1,1,1,1,1,1,1,1,1,1,1,1,1,1,1,1,1,1,1,1,1,1,1,1,1,1,1,1,1,1,1,1,1,1,1,1,1,1,1,1,1,1,1,1,1,1,1,1,1,1,1,1,1,1,1,1,1,1,1,1,1,1,1,1,1,1,1,1,1,1,1,1,1,1,1,1,1,1,1,1,1,1,1,1,1,1,1,1,1,1,1,1,1,1,1,1,1,1,1,1,1,1,1,1,1,1,1,1,1,1,1,1,1,1,1,1,1,1,1,1,1,1,1,1,1,1,1,1,1,1,1,1,1,1,1,1,1,1,1,1,1,1,1,1,1,1,1,1,1,1,1,1,1,1,1,1,1,1,1,1,1,1,1,1],"number_of_sets":1,"coherent_direction":[53,296,296,296,53,53,296,53,53,296,53,296,53,296,53,53,53,53,296,53,296,53,296,53,296,296,53,53,53,296,296,53,53,53,296,53,53,296,296,53,296,53,296,296,53,53,53,296,53,53,53,296,53,53,53,53,296,53,296,53,296,296,296,53,296,296,53,296,296,53,53,296,296,53,296,296,53,296,53,296,296,296,296,296,296,53,296,53,296,53,53,53,53,53,53,53,53,53,296,296,296,296,53,53,53,296,53,296,296,53,53,296,53,296,296,53,296,296,296,296,296,296,296,296,53,296,53,296,53,53,296,53,53,296,296,296,53,53,53,53,53,53,296,296,53,296,53,53,53,296,53,53,53,53,53,296,53,296,296,296,296,296,53,296,296,296,53,296,296,296,296,53,53,53,296,296,53,53,296,53,296,53,296,296,53,53,296,296,296,296,296,53,296,296,296,296,53,53,53,53],"coherence":1,"opposite_coherence":0,"dot_radius":2,"dot_side_length":1,"dot_life":-1,"move_distance":1,"aperture_width":300,"aperture_height":300,"dot_color":["white","black","black","black","white","white","black","white","white","black","white","black","white","black","white","white","white","white","black","white","black","white","black","white","black","black","white","white","white","black","black","white","white","white","black","white","white","black","black","white","black","white","black","black","white","white","white","black","white","white","white","black","white","white","white","white","black","white","black","white","black","black","black","white","black","black","white","black","black","white","white","black","black","white","black","black","white","black","white","black","black","black","black","black","black","white","black","white","black","white","white","white","white","white","white","white","white","white","black","black","black","black","white","white","white","black","white","black","black","white","white","black","white","black","black","white","black","black","black","black","black","black","black","black","white","black","white","black","white","white","black","white","white","black","black","black","white","white","white","white","white","white","black","black","white","black","white","white","white","black","white","white","white","white","white","black","white","black","black","black","black","black","white","black","black","black","white","black","black","black","black","white","white","white","black","black","white","white","black","white","black","white","black","black","white","white","black","black","black","black","black","white","black","black","black","black","white","white","white","white"],"dot_shape":"circle","background_color":"#AAA","RDK_type":3,"aperture_type":2,"reinsert_type":2,"frame_rate":16.633333333333333,"frame_rate_array":[5,12,18,16,17,17,16,16,18,16,17,17,17,16,17,17,17,16,18,16,17,17,18,16,16,16,18,16,17,16,15,17,17,17,17,17,18,16,18,15,17,17,18,18,17,16,18,15,17,19,15,15,17,17,17,17,17,18,16,21,15,15,17,15,18,17,17,17,16,16,16,17,17,17,17,17,16,18,18,16,18,18,15,17,16,16,16,16,17,18,16,18,17,16,16,17,16,17,17,17,17,16,17,16,17,17,17,18,16,17,18,16,16,17,17,17,17,16,16,17],"number_of_frames":120,"aperture_center_x":960,"aperture_center_y":540,"fixation_cross":true,"fixation_cross_width":15,"fixation_cross_height":15,"fixation_cross_color":"#111","fixation_cross_thickness":1,"border":true,"border_thickness":2,"border_color":"transparent","canvas_width":1920,"canvas_height":1080,"trial_type":"rdk","trial_index":72,"plugin_version":"2.0.0","time_elapsed":319849},{"rt":2409,"stimulus":"\n        <div class=\"response-container\">\n          <div class=\"response-instruction\">\n            <p>rotate the bar by using the left and right arrow keys.</p>\n            <p>when you are determined, press the Enter key.</p>\n          </div>\n          <div class=\"response-circle\">\n            <div class=\"response-fixation\"></div>\n            <div id=\"bar\" class=\"rotating-bar\"></div>\n          </div>\n        </div>\n      ","response":"Enter","trial_type":"html-keyboard-response","trial_index":73,"plugin_version":"2.1.0","time_elapsed":322260,"random_initial_angle":85,"response_angle_css":159,"response_angle_rdk":291,"angular_error_target":-5,"angular_error_distractor":-122,"target_direction":296,"target_group":"black","reward_points":9},{"rt":null,"stimulus":"\n          <p style=\"color: #00FF00;\">Your reward: 9 points</p>\n        ","response":null,"trial_type":"html-keyboard-response","trial_index":74,"plugin_version":"2.1.0","time_elapsed":324276},{"rt":null,"stimulus":"<div class=\"fixation\" style=\"font-size: 60px;\">+</div>","response":null,"trial_type":"html-keyboard-response","trial_index":75,"plugin_version":"2.1.0","time_elapsed":325285},{"phase":"learning-awareness","target_group":"white","condition_label":"W_H_vs_B_L_rep17","target_direction":235,"distractor_direction":141,"session_rotation":197,"rt":-1,"response":"","correct":false,"choices":"ALL_KEYS","correct_choice":["a"],"trial_duration":2000,"flip_timestamps":[],"response_ends_trial":false,"number_of_apertures":200,"number_of_dots":[1,1,1,1,1,1,1,1,1,1,1,1,1,1,1,1,1,1,1,1,1,1,1,1,1,1,1,1,1,1,1,1,1,1,1,1,1,1,1,1,1,1,1,1,1,1,1,1,1,1,1,1,1,1,1,1,1,1,1,1,1,1,1,1,1,1,1,1,1,1,1,1,1,1,1,1,1,1,1,1,1,1,1,1,1,1,1,1,1,1,1,1,1,1,1,1,1,1,1,1,1,1,1,1,1,1,1,1,1,1,1,1,1,1,1,1,1,1,1,1,1,1,1,1,1,1,1,1,1,1,1,1,1,1,1,1,1,1,1,1,1,1,1,1,1,1,1,1,1,1,1,1,1,1,1,1,1,1,1,1,1,1,1,1,1,1,1,1,1,1,1,1,1,1,1,1,1,1,1,1,1,1,1,1,1,1,1,1,1,1,1,1,1,1,1,1,1,1,1,1],"number_of_sets":1,"coherent_direction":[141,235,235,141,141,235,141,141,141,141,235,141,141,235,141,141,141,141,235,235,235,141,141,235,141,141,235,235,235,235,235,141,141,235,141,141,235,235,141,235,235,235,235,141,235,141,235,235,235,141,235,235,141,141,141,235,235,141,141,141,235,235,235,141,141,141,141,235,235,235,141,141,235,235,141,235,235,141,141,235,235,235,141,235,141,141,235,141,141,141,235,235,141,235,141,235,235,141,141,141,141,235,141,235,141,141,235,141,141,141,141,235,235,235,235,141,235,141,141,235,235,235,235,141,235,235,235,235,235,235,141,235,141,235,141,141,235,141,141,141,235,141,235,235,235,141,141,141,141,235,141,141,141,235,235,141,141,141,235,235,141,235,141,141,141,235,235,235,141,141,235,235,235,235,141,141,235,235,141,235,235,235,141,235,141,141,141,141,141,235,141,141,235,235,235,235,141,141,235,235],"coherence":1,"opposite_coherence":0,"dot_radius":2,"dot_side_length":1,"dot_life":-1,"move_distance":1,"aperture_width":300,"aperture_height":300,"dot_color":["black","white","white","black","black","white","black","black","black","black","white","black","black","white","black","black","black","black","white","white","white","black","black","white","black","black","white","white","white","white","white","black","black","white","black","black","white","white","black","white","white","white","white","black","white","black","white","white","white","black","white","white","black","black","black","white","white","black","black","black","white","white","white","black","black","black","black","white","white","white","black","black","white","white","black","white","white","black","black","white","white","white","black","white","black","black","white","black","black","black","white","white","black","white","black","white","white","black","black","black","black","white","black","white","black","black","white","black","black","black","black","white","white","white","white","black","white","black","black","white","white","white","white","black","white","white","white","white","white","white","black","white","black","white","black","black","white","black","black","black","white","black","white","white","white","black","black","black","black","white","black","black","black","white","white","black","black","black","white","white","black","white","black","black","black","white","white","white","black","black","white","white","white","white","black","black","white","white","black","white","white","white","black","white","black","black","black","black","black","white","black","black","white","white","white","white","black","black","white","white"],"dot_shape":"circle","background_color":"#AAA","RDK_type":3,"aperture_type":2,"reinsert_type":2,"frame_rate":16.694214876033058,"frame_rate_array":[11,18,16,17,16,17,16,17,17,17,17,17,17,17,17,17,17,16,17,16,17,16,17,17,17,16,17,17,17,16,17,17,17,16,17,17,17,16,17,18,16,16,17,17,16,17,16,17,16,16,17,17,16,17,16,17,16,17,17,17,17,17,17,16,17,17,18,16,17,17,17,16,18,17,17,16,17,18,15,17,17,17,16,17,17,18,16,17,17,17,16,17,17,17,16,17,17,16,17,17,17,16,16,17,17,16,16,17,18,15,17,17,17,16,17,17,17,16,17,17,17],"number_of_frames":121,"aperture_center_x":960,"aperture_center_y":540,"fixation_cross":true,"fixation_cross_width":15,"fixation_cross_height":15,"fixation_cross_color":"#111","fixation_cross_thickness":1,"border":true,"border_thickness":2,"border_color":"transparent","canvas_width":1920,"canvas_height":1080,"trial_type":"rdk","trial_index":76,"plugin_version":"2.0.0","time_elapsed":327300},{"rt":3920,"stimulus":"\n        <div class=\"response-container\">\n          <div class=\"response-instruction\">\n            <p>rotate the bar by using the left and right arrow keys.</p>\n            <p>when you are determined, press the Enter key.</p>\n          </div>\n          <div class=\"response-circle\">\n            <div class=\"response-fixation\"></div>\n            <div id=\"bar\" class=\"rotating-bar\"></div>\n          </div>\n        </div>\n      ","response":"Enter","trial_type":"html-keyboard-response","trial_index":77,"plugin_version":"2.1.0","time_elapsed":331222,"random_initial_angle":139,"response_angle_css":-52,"response_angle_rdk":142,"angular_error_target":-93,"angular_error_distractor":1,"target_direction":235,"target_group":"white","reward_points":0},{"rt":null,"stimulus":"\n          <p style=\"color: #FF3333;\">Your reward: 0 points</p>\n        ","response":null,"trial_type":"html-keyboard-response","trial_index":78,"plugin_version":"2.1.0","time_elapsed":333235},{"rt":null,"stimulus":"<div class=\"fixation\" style=\"font-size: 60px;\">+</div>","response":null,"trial_type":"html-keyboard-response","trial_index":79,"plugin_version":"2.1.0","time_elapsed":334243},{"phase":"learning-awareness","target_group":"white","condition_label":"W_H_vs_B_L_rep3","target_direction":239,"distractor_direction":135,"session_rotation":197,"rt":-1,"response":"","correct":false,"choices":"ALL_KEYS","correct_choice":["a"],"trial_duration":2000,"flip_timestamps":[],"response_ends_trial":false,"number_of_apertures":200,"number_of_dots":[1,1,1,1,1,1,1,1,1,1,1,1,1,1,1,1,1,1,1,1,1,1,1,1,1,1,1,1,1,1,1,1,1,1,1,1,1,1,1,1,1,1,1,1,1,1,1,1,1,1,1,1,1,1,1,1,1,1,1,1,1,1,1,1,1,1,1,1,1,1,1,1,1,1,1,1,1,1,1,1,1,1,1,1,1,1,1,1,1,1,1,1,1,1,1,1,1,1,1,1,1,1,1,1,1,1,1,1,1,1,1,1,1,1,1,1,1,1,1,1,1,1,1,1,1,1,1,1,1,1,1,1,1,1,1,1,1,1,1,1,1,1,1,1,1,1,1,1,1,1,1,1,1,1,1,1,1,1,1,1,1,1,1,1,1,1,1,1,1,1,1,1,1,1,1,1,1,1,1,1,1,1,1,1,1,1,1,1,1,1,1,1,1,1,1,1,1,1,1,1],"number_of_sets":1,"coherent_direction":[135,135,135,239,239,239,239,239,135,135,239,239,239,135,135,135,135,239,135,239,239,135,239,239,239,135,239,239,135,239,239,239,135,239,135,135,135,239,135,135,135,239,135,239,135,135,135,239,135,135,135,239,239,135,239,239,135,239,239,135,135,135,135,135,239,239,239,239,135,239,135,239,239,135,239,239,239,135,239,239,135,135,135,135,135,135,239,135,135,239,135,135,135,239,239,135,135,135,239,135,239,135,135,239,239,239,239,135,239,239,135,239,135,239,239,135,239,239,135,135,135,239,239,135,239,135,239,239,239,135,135,239,239,239,135,239,239,135,135,135,239,239,135,239,135,135,135,135,135,135,239,135,135,135,239,239,135,239,239,135,239,135,135,239,239,135,239,135,239,239,135,239,135,135,135,239,135,239,135,135,135,239,239,135,239,239,239,135,239,135,135,239,239,239,135,135,239,239,239,239],"coherence":1,"opposite_coherence":0,"dot_radius":2,"dot_side_length":1,"dot_life":-1,"move_distance":1,"aperture_width":300,"aperture_height":300,"dot_color":["black","black","black","white","white","white","white","white","black","black","white","white","white","black","black","black","black","white","black","white","white","black","white","white","white","black","white","white","black","white","white","white","black","white","black","black","black","white","black","black","black","white","black","white","black","black","black","white","black","black","black","white","white","black","white","white","black","white","white","black","black","black","black","black","white","white","white","white","black","white","black","white","white","black","white","white","white","black","white","white","black","black","black","black","black","black","white","black","black","white","black","black","black","white","white","black","black","black","white","black","white","black","black","white","white","white","white","black","white","white","black","white","black","white","white","black","white","white","black","black","black","white","white","black","white","black","white","white","white","black","black","white","white","white","black","white","white","black","black","black","white","white","black","white","black","black","black","black","black","black","white","black","black","black","white","white","black","white","white","black","white","black","black","white","white","black","white","black","white","white","black","white","black","black","black","white","black","white","black","black","black","white","white","black","white","white","white","black","white","black","black","white","white","white","black","black","white","white","white","white"],"dot_shape":"circle","background_color":"#AAA","RDK_type":3,"aperture_type":2,"reinsert_type":2,"frame_rate":16.644628099173552,"frame_rate_array":[4,16,17,17,17,17,17,16,17,17,16,17,17,16,17,17,17,16,17,17,16,17,17,16,17,17,17,17,16,18,16,17,17,17,17,17,16,17,17,17,16,17,18,16,17,18,16,17,17,17,16,17,17,16,17,17,16,16,17,17,16,17,17,16,17,17,17,16,17,17,16,17,18,15,17,17,16,17,17,17,16,17,17,16,17,17,16,17,17,17,16,17,17,16,17,17,17,17,17,17,16,17,17,16,17,17,16,17,17,17,17,17,17,16,17,18,16,17,17,16,17],"number_of_frames":121,"aperture_center_x":960,"aperture_center_y":540,"fixation_cross":true,"fixation_cross_width":15,"fixation_cross_height":15,"fixation_cross_color":"#111","fixation_cross_thickness":1,"border":true,"border_thickness":2,"border_color":"transparent","canvas_width":1920,"canvas_height":1080,"trial_type":"rdk","trial_index":80,"plugin_version":"2.0.0","time_elapsed":336251},{"rt":2801,"stimulus":"\n        <div class=\"response-container\">\n          <div class=\"response-instruction\">\n            <p>rotate the bar by using the left and right arrow keys.</p>\n            <p>when you are determined, press the Enter key.</p>\n          </div>\n          <div class=\"response-circle\">\n            <div class=\"response-fixation\"></div>\n            <div id=\"bar\" class=\"rotating-bar\"></div>\n          </div>\n        </div>\n      ","response":"Enter","trial_type":"html-keyboard-response","trial_index":81,"plugin_version":"2.1.0","time_elapsed":339053,"random_initial_angle":263,"response_angle_css":321,"response_angle_rdk":129,"angular_error_target":-110,"angular_error_distractor":-6,"target_direction":239,"target_group":"white","reward_points":0},{"rt":null,"stimulus":"\n          <p style=\"color: #FF3333;\">Your reward: 0 points</p>\n        ","response":null,"trial_type":"html-keyboard-response","trial_index":82,"plugin_version":"2.1.0","time_elapsed":341056},{"rt":null,"stimulus":"<div class=\"fixation\" style=\"font-size: 60px;\">+</div>","response":null,"trial_type":"html-keyboard-response","trial_index":83,"plugin_version":"2.1.0","time_elapsed":342066},{"phase":"learning-awareness","target_group":"black","condition_label":"B_H_vs_W_L_rep24","target_direction":303,"distractor_direction":34,"session_rotation":197,"rt":-1,"response":"","correct":false,"choices":"ALL_KEYS","correct_choice":["a"],"trial_duration":2000,"flip_timestamps":[],"response_ends_trial":false,"number_of_apertures":200,"number_of_dots":[1,1,1,1,1,1,1,1,1,1,1,1,1,1,1,1,1,1,1,1,1,1,1,1,1,1,1,1,1,1,1,1,1,1,1,1,1,1,1,1,1,1,1,1,1,1,1,1,1,1,1,1,1,1,1,1,1,1,1,1,1,1,1,1,1,1,1,1,1,1,1,1,1,1,1,1,1,1,1,1,1,1,1,1,1,1,1,1,1,1,1,1,1,1,1,1,1,1,1,1,1,1,1,1,1,1,1,1,1,1,1,1,1,1,1,1,1,1,1,1,1,1,1,1,1,1,1,1,1,1,1,1,1,1,1,1,1,1,1,1,1,1,1,1,1,1,1,1,1,1,1,1,1,1,1,1,1,1,1,1,1,1,1,1,1,1,1,1,1,1,1,1,1,1,1,1,1,1,1,1,1,1,1,1,1,1,1,1,1,1,1,1,1,1,1,1,1,1,1,1],"number_of_sets":1,"coherent_direction":[303,303,303,34,303,303,34,34,303,34,34,34,34,34,34,34,34,303,303,303,34,303,303,34,303,303,303,303,303,34,303,303,34,34,34,34,303,34,303,303,303,303,34,303,34,34,303,303,34,303,34,34,303,34,34,303,34,34,34,34,303,34,303,34,34,303,303,303,303,34,303,34,34,303,303,34,34,303,34,303,303,34,303,303,34,303,303,34,34,303,303,34,303,303,303,34,303,34,34,303,34,34,303,303,34,303,34,303,34,34,34,303,34,34,34,34,34,303,34,303,34,303,303,303,303,34,303,303,303,303,303,303,303,303,303,303,34,303,303,34,303,34,303,303,303,34,34,303,303,34,34,34,34,34,34,303,303,303,303,303,34,34,303,303,34,303,303,303,34,34,34,303,34,34,34,34,34,34,34,303,34,34,34,303,303,34,34,34,34,303,34,303,303,34,303,34,303,34,34,34],"coherence":1,"opposite_coherence":0,"dot_radius":2,"dot_side_length":1,"dot_life":-1,"move_distance":1,"aperture_width":300,"aperture_height":300,"dot_color":["black","black","black","white","black","black","white","white","black","white","white","white","white","white","white","white","white","black","black","black","white","black","black","white","black","black","black","black","black","white","black","black","white","white","white","white","black","white","black","black","black","black","white","black","white","white","black","black","white","black","white","white","black","white","white","black","white","white","white","white","black","white","black","white","white","black","black","black","black","white","black","white","white","black","black","white","white","black","white","black","black","white","black","black","white","black","black","white","white","black","black","white","black","black","black","white","black","white","white","black","white","white","black","black","white","black","white","black","white","white","white","black","white","white","white","white","white","black","white","black","white","black","black","black","black","white","black","black","black","black","black","black","black","black","black","black","white","black","black","white","black","white","black","black","black","white","white","black","black","white","white","white","white","white","white","black","black","black","black","black","white","white","black","black","white","black","black","black","white","white","white","black","white","white","white","white","white","white","white","black","white","white","white","black","black","white","white","white","white","black","white","black","black","white","black","white","black","white","white","white"],"dot_shape":"circle","background_color":"#AAA","RDK_type":3,"aperture_type":2,"reinsert_type":2,"frame_rate":16.725,"frame_rate_array":[14,16,17,18,16,17,17,17,18,17,16,17,17,16,17,17,16,17,17,16,17,17,16,16,17,16,17,17,16,17,18,16,16,17,17,16,17,17,17,17,17,16,17,17,16,17,17,16,17,18,16,17,17,16,17,17,16,17,17,16,17,17,16,17,17,17,17,17,17,17,17,17,16,17,17,16,17,17,16,17,16,17,17,17,16,17,17,16,17,17,16,17,17,16,17,17,17,17,17,16,17,17,17,17,17,17,16,17,16,17,18,17,16,17,17,16,17,17,16,17],"number_of_frames":120,"aperture_center_x":960,"aperture_center_y":540,"fixation_cross":true,"fixation_cross_width":15,"fixation_cross_height":15,"fixation_cross_color":"#111","fixation_cross_thickness":1,"border":true,"border_thickness":2,"border_color":"transparent","canvas_width":1920,"canvas_height":1080,"trial_type":"rdk","trial_index":84,"plugin_version":"2.0.0","time_elapsed":344071},{"rt":2378,"stimulus":"\n        <div class=\"response-container\">\n          <div class=\"response-instruction\">\n            <p>rotate the bar by using the left and right arrow keys.</p>\n            <p>when you are determined, press the Enter key.</p>\n          </div>\n          <div class=\"response-circle\">\n            <div class=\"response-fixation\"></div>\n            <div id=\"bar\" class=\"rotating-bar\"></div>\n          </div>\n        </div>\n      ","response":"Enter","trial_type":"html-keyboard-response","trial_index":85,"plugin_version":"2.1.0","time_elapsed":346451,"random_initial_angle":78,"response_angle_css":52,"response_angle_rdk":38,"angular_error_target":95,"angular_error_distractor":4,"target_direction":303,"target_group":"black","reward_points":0},{"rt":null,"stimulus":"\n          <p style=\"color: #FF3333;\">Your reward: 0 points</p>\n        ","response":null,"trial_type":"html-keyboard-response","trial_index":86,"plugin_version":"2.1.0","time_elapsed":348457},{"rt":null,"stimulus":"<div class=\"fixation\" style=\"font-size: 60px;\">+</div>","response":null,"trial_type":"html-keyboard-response","trial_index":87,"plugin_version":"2.1.0","time_elapsed":349467},{"phase":"learning-awareness","target_group":"black","condition_label":"B_H_vs_W_L_rep16","target_direction":320,"distractor_direction":55,"session_rotation":197,"rt":-1,"response":"","correct":false,"choices":"ALL_KEYS","correct_choice":["a"],"trial_duration":2000,"flip_timestamps":[],"response_ends_trial":false,"number_of_apertures":200,"number_of_dots":[1,1,1,1,1,1,1,1,1,1,1,1,1,1,1,1,1,1,1,1,1,1,1,1,1,1,1,1,1,1,1,1,1,1,1,1,1,1,1,1,1,1,1,1,1,1,1,1,1,1,1,1,1,1,1,1,1,1,1,1,1,1,1,1,1,1,1,1,1,1,1,1,1,1,1,1,1,1,1,1,1,1,1,1,1,1,1,1,1,1,1,1,1,1,1,1,1,1,1,1,1,1,1,1,1,1,1,1,1,1,1,1,1,1,1,1,1,1,1,1,1,1,1,1,1,1,1,1,1,1,1,1,1,1,1,1,1,1,1,1,1,1,1,1,1,1,1,1,1,1,1,1,1,1,1,1,1,1,1,1,1,1,1,1,1,1,1,1,1,1,1,1,1,1,1,1,1,1,1,1,1,1,1,1,1,1,1,1,1,1,1,1,1,1,1,1,1,1,1,1],"number_of_sets":1,"coherent_direction":[320,320,320,320,320,55,320,320,55,320,55,55,320,55,55,320,320,320,55,55,55,55,55,55,320,320,320,55,320,55,320,55,55,320,55,320,320,55,55,55,320,320,320,320,55,320,55,320,320,55,55,55,55,320,55,320,320,55,55,320,55,55,55,320,320,55,55,55,55,55,320,320,320,320,55,55,320,55,55,320,320,55,55,320,320,55,55,55,320,320,55,55,320,55,55,320,55,55,320,55,320,55,320,320,55,55,320,55,320,320,320,55,320,55,55,55,320,320,55,55,55,320,55,320,55,55,55,320,55,55,320,320,320,55,320,55,320,55,320,55,55,55,55,320,320,320,55,320,320,55,320,55,55,320,320,55,55,55,55,55,320,320,320,55,55,320,55,320,55,55,320,320,55,320,320,55,320,320,320,320,320,55,55,55,320,55,55,320,320,320,320,320,320,320,320,320,320,55,320,55],"coherence":1,"opposite_coherence":0,"dot_radius":2,"dot_side_length":1,"dot_life":-1,"move_distance":1,"aperture_width":300,"aperture_height":300,"dot_color":["black","black","black","black","black","white","black","black","white","black","white","white","black","white","white","black","black","black","white","white","white","white","white","white","black","black","black","white","black","white","black","white","white","black","white","black","black","white","white","white","black","black","black","black","white","black","white","black","black","white","white","white","white","black","white","black","black","white","white","black","white","white","white","black","black","white","white","white","white","white","black","black","black","black","white","white","black","white","white","black","black","white","white","black","black","white","white","white","black","black","white","white","black","white","white","black","white","white","black","white","black","white","black","black","white","white","black","white","black","black","black","white","black","white","white","white","black","black","white","white","white","black","white","black","white","white","white","black","white","white","black","black","black","white","black","white","black","white","black","white","white","white","white","black","black","black","white","black","black","white","black","white","white","black","black","white","white","white","white","white","black","black","black","white","white","black","white","black","white","white","black","black","white","black","black","white","black","black","black","black","black","white","white","white","black","white","white","black","black","black","black","black","black","black","black","black","black","white","black","white"],"dot_shape":"circle","background_color":"#AAA","RDK_type":3,"aperture_type":2,"reinsert_type":2,"frame_rate":16.675,"frame_rate_array":[13,16,16,17,18,16,17,17,16,16,17,16,17,17,16,17,17,16,16,18,16,18,16,16,17,17,17,17,17,16,18,16,17,18,16,17,18,16,16,18,16,15,19,16,17,19,14,19,16,16,15,18,17,16,18,16,17,17,16,17,17,16,17,16,16,18,16,17,17,16,16,17,17,18,16,16,17,17,16,17,18,15,15,18,16,17,17,16,17,17,16,17,18,16,17,17,16,17,17,16,17,16,17,18,16,17,16,17,17,17,17,16,17,16,16,18,16,17,17,17],"number_of_frames":120,"aperture_center_x":960,"aperture_center_y":540,"fixation_cross":true,"fixation_cross_width":15,"fixation_cross_height":15,"fixation_cross_color":"#111","fixation_cross_thickness":1,"border":true,"border_thickness":2,"border_color":"transparent","canvas_width":1920,"canvas_height":1080,"trial_type":"rdk","trial_index":88,"plugin_version":"2.0.0","time_elapsed":351471},{"rt":1826,"stimulus":"\n        <div class=\"response-container\">\n          <div class=\"response-instruction\">\n            <p>rotate the bar by using the left and right arrow keys.</p>\n            <p>when you are determined, press the Enter key.</p>\n          </div>\n          <div class=\"response-circle\">\n            <div class=\"response-fixation\"></div>\n            <div id=\"bar\" class=\"rotating-bar\"></div>\n          </div>\n        </div>\n      ","response":"Enter","trial_type":"html-keyboard-response","trial_index":89,"plugin_version":"2.1.0","time_elapsed":353299,"random_initial_angle":118,"response_angle_css":140,"response_angle_rdk":310,"angular_error_target":-10,"angular_error_distractor":-105,"target_direction":320,"target_group":"black","reward_points":8},{"rt":null,"stimulus":"\n          <p style=\"color: #00FF00;\">Your reward: 8 points</p>\n        ","response":null,"trial_type":"html-keyboard-response","trial_index":90,"plugin_version":"2.1.0","time_elapsed":355313},{"rt":null,"stimulus":"<div class=\"fixation\" style=\"font-size: 60px;\">+</div>","response":null,"trial_type":"html-keyboard-response","trial_index":91,"plugin_version":"2.1.0","time_elapsed":356316},{"phase":"learning-awareness","target_group":"black","condition_label":"B_H_vs_W_L_rep22","target_direction":312,"distractor_direction":42,"session_rotation":197,"rt":-1,"response":"","correct":false,"choices":"ALL_KEYS","correct_choice":["a"],"trial_duration":2000,"flip_timestamps":[],"response_ends_trial":false,"number_of_apertures":200,"number_of_dots":[1,1,1,1,1,1,1,1,1,1,1,1,1,1,1,1,1,1,1,1,1,1,1,1,1,1,1,1,1,1,1,1,1,1,1,1,1,1,1,1,1,1,1,1,1,1,1,1,1,1,1,1,1,1,1,1,1,1,1,1,1,1,1,1,1,1,1,1,1,1,1,1,1,1,1,1,1,1,1,1,1,1,1,1,1,1,1,1,1,1,1,1,1,1,1,1,1,1,1,1,1,1,1,1,1,1,1,1,1,1,1,1,1,1,1,1,1,1,1,1,1,1,1,1,1,1,1,1,1,1,1,1,1,1,1,1,1,1,1,1,1,1,1,1,1,1,1,1,1,1,1,1,1,1,1,1,1,1,1,1,1,1,1,1,1,1,1,1,1,1,1,1,1,1,1,1,1,1,1,1,1,1,1,1,1,1,1,1,1,1,1,1,1,1,1,1,1,1,1,1],"number_of_sets":1,"coherent_direction":[42,312,312,42,42,312,312,42,42,312,312,312,312,42,312,312,42,312,312,42,42,312,42,312,42,42,42,42,312,42,42,42,42,312,312,312,312,312,312,42,42,312,312,42,312,42,312,312,42,42,312,42,312,42,312,42,312,42,312,42,312,312,42,42,312,42,312,312,312,312,42,42,312,312,312,42,312,42,42,312,42,312,42,42,312,42,42,312,42,312,42,312,42,312,42,42,42,312,312,312,312,42,42,42,312,42,42,312,42,42,42,312,42,312,312,42,42,312,312,312,312,42,312,42,312,42,312,42,42,312,312,42,42,312,42,42,312,42,42,42,312,42,42,42,312,42,312,312,42,42,312,42,42,312,42,42,42,42,312,312,42,42,42,42,312,42,312,312,42,42,312,312,42,42,312,42,312,42,312,312,312,312,312,312,42,312,312,42,42,312,312,312,312,312,42,312,42,42,312,312],"coherence":1,"opposite_coherence":0,"dot_radius":2,"dot_side_length":1,"dot_life":-1,"move_distance":1,"aperture_width":300,"aperture_height":300,"dot_color":["white","black","black","white","white","black","black","white","white","black","black","black","black","white","black","black","white","black","black","white","white","black","white","black","white","white","white","white","black","white","white","white","white","black","black","black","black","black","black","white","white","black","black","white","black","white","black","black","white","white","black","white","black","white","black","white","black","white","black","white","black","black","white","white","black","white","black","black","black","black","white","white","black","black","black","white","black","white","white","black","white","black","white","white","black","white","white","black","white","black","white","black","white","black","white","white","white","black","black","black","black","white","white","white","black","white","white","black","white","white","white","black","white","black","black","white","white","black","black","black","black","white","black","white","black","white","black","white","white","black","black","white","white","black","white","white","black","white","white","white","black","white","white","white","black","white","black","black","white","white","black","white","white","black","white","white","white","white","black","black","white","white","white","white","black","white","black","black","white","white","black","black","white","white","black","white","black","white","black","black","black","black","black","black","white","black","black","white","white","black","black","black","black","black","white","black","white","white","black","black"],"dot_shape":"circle","background_color":"#AAA","RDK_type":3,"aperture_type":2,"reinsert_type":2,"frame_rate":16.683333333333334,"frame_rate_array":[14,15,18,17,16,17,17,16,17,17,16,17,17,16,18,16,17,17,16,16,18,16,16,18,16,17,17,16,17,18,16,17,17,16,17,17,16,18,16,17,18,16,17,18,16,17,17,16,17,16,17,15,18,17,17,17,16,18,17,15,17,16,17,17,16,17,17,16,17,17,16,17,17,16,18,16,17,17,16,15,19,14,16,17,17,17,17,17,16,17,16,16,17,16,17,17,17,18,16,17,18,15,17,18,16,17,17,16,17,18,15,18,15,17,18,15,17,17,17,17],"number_of_frames":120,"aperture_center_x":960,"aperture_center_y":540,"fixation_cross":true,"fixation_cross_width":15,"fixation_cross_height":15,"fixation_cross_color":"#111","fixation_cross_thickness":1,"border":true,"border_thickness":2,"border_color":"transparent","canvas_width":1920,"canvas_height":1080,"trial_type":"rdk","trial_index":92,"plugin_version":"2.0.0","time_elapsed":358338},{"rt":2758,"stimulus":"\n        <div class=\"response-container\">\n          <div class=\"response-instruction\">\n            <p>rotate the bar by using the left and right arrow keys.</p>\n            <p>when you are determined, press the Enter key.</p>\n          </div>\n          <div class=\"response-circle\">\n            <div class=\"response-fixation\"></div>\n            <div id=\"bar\" class=\"rotating-bar\"></div>\n          </div>\n        </div>\n      ","response":"Enter","trial_type":"html-keyboard-response","trial_index":93,"plugin_version":"2.1.0","time_elapsed":361097,"random_initial_angle":113,"response_angle_css":46,"response_angle_rdk":44,"angular_error_target":92,"angular_error_distractor":2,"target_direction":312,"target_group":"black","reward_points":0},{"rt":null,"stimulus":"\n          <p style=\"color: #FF3333;\">Your reward: 0 points</p>\n        ","response":null,"trial_type":"html-keyboard-response","trial_index":94,"plugin_version":"2.1.0","time_elapsed":363112},{"rt":null,"stimulus":"<div class=\"fixation\" style=\"font-size: 60px;\">+</div>","response":null,"trial_type":"html-keyboard-response","trial_index":95,"plugin_version":"2.1.0","time_elapsed":364124},{"phase":"learning-awareness","target_group":"black","condition_label":"B_H_vs_W_L_rep23","target_direction":293,"distractor_direction":61,"session_rotation":197,"rt":-1,"response":"","correct":false,"choices":"ALL_KEYS","correct_choice":["a"],"trial_duration":2000,"flip_timestamps":[],"response_ends_trial":false,"number_of_apertures":200,"number_of_dots":[1,1,1,1,1,1,1,1,1,1,1,1,1,1,1,1,1,1,1,1,1,1,1,1,1,1,1,1,1,1,1,1,1,1,1,1,1,1,1,1,1,1,1,1,1,1,1,1,1,1,1,1,1,1,1,1,1,1,1,1,1,1,1,1,1,1,1,1,1,1,1,1,1,1,1,1,1,1,1,1,1,1,1,1,1,1,1,1,1,1,1,1,1,1,1,1,1,1,1,1,1,1,1,1,1,1,1,1,1,1,1,1,1,1,1,1,1,1,1,1,1,1,1,1,1,1,1,1,1,1,1,1,1,1,1,1,1,1,1,1,1,1,1,1,1,1,1,1,1,1,1,1,1,1,1,1,1,1,1,1,1,1,1,1,1,1,1,1,1,1,1,1,1,1,1,1,1,1,1,1,1,1,1,1,1,1,1,1,1,1,1,1,1,1,1,1,1,1,1,1],"number_of_sets":1,"coherent_direction":[293,293,61,293,293,61,293,61,61,293,61,293,293,61,293,293,61,61,61,293,293,61,293,293,61,61,293,61,61,61,293,293,61,293,61,61,61,293,61,293,293,61,293,293,293,293,293,61,61,293,293,61,293,61,293,61,293,61,61,61,61,293,293,61,61,293,293,61,293,61,293,61,293,293,61,61,293,61,61,61,293,61,61,61,293,61,293,293,293,61,61,293,293,61,293,293,293,61,293,61,61,293,61,61,61,61,61,293,61,61,61,61,61,61,293,293,293,293,61,61,61,293,293,61,61,61,293,61,293,293,61,293,61,293,293,293,293,61,293,293,293,293,293,61,293,293,61,61,61,61,293,293,293,61,293,293,293,293,293,61,61,293,293,293,61,61,293,61,293,61,61,61,293,61,293,293,61,61,61,293,293,61,61,61,61,61,293,61,61,293,293,293,293,293,61,61,61,61,293,293],"coherence":1,"opposite_coherence":0,"dot_radius":2,"dot_side_length":1,"dot_life":-1,"move_distance":1,"aperture_width":300,"aperture_height":300,"dot_color":["black","black","white","black","black","white","black","white","white","black","white","black","black","white","black","black","white","white","white","black","black","white","black","black","white","white","black","white","white","white","black","black","white","black","white","white","white","black","white","black","black","white","black","black","black","black","black","white","white","black","black","white","black","white","black","white","black","white","white","white","white","black","black","white","white","black","black","white","black","white","black","white","black","black","white","white","black","white","white","white","black","white","white","white","black","white","black","black","black","white","white","black","black","white","black","black","black","white","black","white","white","black","white","white","white","white","white","black","white","white","white","white","white","white","black","black","black","black","white","white","white","black","black","white","white","white","black","white","black","black","white","black","white","black","black","black","black","white","black","black","black","black","black","white","black","black","white","white","white","white","black","black","black","white","black","black","black","black","black","white","white","black","black","black","white","white","black","white","black","white","white","white","black","white","black","black","white","white","white","black","black","white","white","white","white","white","black","white","white","black","black","black","black","black","white","white","white","white","black","black"],"dot_shape":"circle","background_color":"#AAA","RDK_type":3,"aperture_type":2,"reinsert_type":2,"frame_rate":16.65289256198347,"frame_rate_array":[8,17,16,17,17,17,17,17,16,17,16,17,17,16,17,17,17,17,16,17,17,16,17,17,16,17,17,17,17,16,17,17,16,17,17,17,16,17,17,17,16,17,17,16,17,17,17,18,16,17,17,16,17,17,16,17,16,17,16,17,17,17,17,17,17,16,17,17,17,17,16,17,17,16,17,17,16,17,17,17,17,16,17,17,16,17,17,16,17,17,16,18,16,16,18,16,17,17,16,17,18,15,17,17,17,17,16,17,17,16,17,17,16,17,17,16,17,17,16,17,16],"number_of_frames":121,"aperture_center_x":960,"aperture_center_y":540,"fixation_cross":true,"fixation_cross_width":15,"fixation_cross_height":15,"fixation_cross_color":"#111","fixation_cross_thickness":1,"border":true,"border_thickness":2,"border_color":"transparent","canvas_width":1920,"canvas_height":1080,"trial_type":"rdk","trial_index":96,"plugin_version":"2.0.0","time_elapsed":366135},{"rt":2108,"stimulus":"\n        <div class=\"response-container\">\n          <div class=\"response-instruction\">\n            <p>rotate the bar by using the left and right arrow keys.</p>\n            <p>when you are determined, press the Enter key.</p>\n          </div>\n          <div class=\"response-circle\">\n            <div class=\"response-fixation\"></div>\n            <div id=\"bar\" class=\"rotating-bar\"></div>\n          </div>\n        </div>\n      ","response":"Enter","trial_type":"html-keyboard-response","trial_index":97,"plugin_version":"2.1.0","time_elapsed":368245,"random_initial_angle":326,"response_angle_css":397,"response_angle_rdk":53,"angular_error_target":120,"angular_error_distractor":-8,"target_direction":293,"target_group":"black","reward_points":0},{"rt":null,"stimulus":"\n          <p style=\"color: #FF3333;\">Your reward: 0 points</p>\n        ","response":null,"trial_type":"html-keyboard-response","trial_index":98,"plugin_version":"2.1.0","time_elapsed":370254},{"rt":null,"stimulus":"<div class=\"fixation\" style=\"font-size: 60px;\">+</div>","response":null,"trial_type":"html-keyboard-response","trial_index":99,"plugin_version":"2.1.0","time_elapsed":371271},{"phase":"learning-awareness","target_group":"white","condition_label":"W_H_vs_B_L_rep6","target_direction":240,"distractor_direction":144,"session_rotation":197,"rt":-1,"response":"","correct":false,"choices":"ALL_KEYS","correct_choice":["a"],"trial_duration":2000,"flip_timestamps":[],"response_ends_trial":false,"number_of_apertures":200,"number_of_dots":[1,1,1,1,1,1,1,1,1,1,1,1,1,1,1,1,1,1,1,1,1,1,1,1,1,1,1,1,1,1,1,1,1,1,1,1,1,1,1,1,1,1,1,1,1,1,1,1,1,1,1,1,1,1,1,1,1,1,1,1,1,1,1,1,1,1,1,1,1,1,1,1,1,1,1,1,1,1,1,1,1,1,1,1,1,1,1,1,1,1,1,1,1,1,1,1,1,1,1,1,1,1,1,1,1,1,1,1,1,1,1,1,1,1,1,1,1,1,1,1,1,1,1,1,1,1,1,1,1,1,1,1,1,1,1,1,1,1,1,1,1,1,1,1,1,1,1,1,1,1,1,1,1,1,1,1,1,1,1,1,1,1,1,1,1,1,1,1,1,1,1,1,1,1,1,1,1,1,1,1,1,1,1,1,1,1,1,1,1,1,1,1,1,1,1,1,1,1,1,1],"number_of_sets":1,"coherent_direction":[240,240,144,240,240,240,144,144,144,144,144,144,240,144,144,240,240,144,144,240,144,240,144,144,240,144,144,144,240,144,144,240,240,144,144,240,144,144,144,240,144,240,144,240,240,144,144,240,240,240,240,240,144,144,144,144,240,240,144,144,144,144,144,240,144,240,240,240,240,144,144,240,240,144,144,144,144,240,240,144,144,240,144,240,144,240,144,144,240,144,144,240,240,144,240,240,240,240,240,144,240,240,144,144,240,240,240,144,240,144,240,144,144,144,240,144,240,144,240,240,240,144,144,240,144,240,144,240,144,144,240,144,240,144,144,144,144,240,144,240,240,240,240,144,144,240,240,240,240,240,144,240,144,240,240,144,240,240,144,144,144,144,240,240,240,144,240,144,240,240,240,144,144,240,144,240,144,240,144,240,144,240,144,240,240,240,240,144,240,240,144,240,144,240,144,240,144,240,144,144],"coherence":1,"opposite_coherence":0,"dot_radius":2,"dot_side_length":1,"dot_life":-1,"move_distance":1,"aperture_width":300,"aperture_height":300,"dot_color":["white","white","black","white","white","white","black","black","black","black","black","black","white","black","black","white","white","black","black","white","black","white","black","black","white","black","black","black","white","black","black","white","white","black","black","white","black","black","black","white","black","white","black","white","white","black","black","white","white","white","white","white","black","black","black","black","white","white","black","black","black","black","black","white","black","white","white","white","white","black","black","white","white","black","black","black","black","white","white","black","black","white","black","white","black","white","black","black","white","black","black","white","white","black","white","white","white","white","white","black","white","white","black","black","white","white","white","black","white","black","white","black","black","black","white","black","white","black","white","white","white","black","black","white","black","white","black","white","black","black","white","black","white","black","black","black","black","white","black","white","white","white","white","black","black","white","white","white","white","white","black","white","black","white","white","black","white","white","black","black","black","black","white","white","white","black","white","black","white","white","white","black","black","white","black","white","black","white","black","white","black","white","black","white","white","white","white","black","white","white","black","white","black","white","black","white","black","white","black","black"],"dot_shape":"circle","background_color":"#AAA","RDK_type":3,"aperture_type":2,"reinsert_type":2,"frame_rate":16.669421487603305,"frame_rate_array":[9,17,17,17,16,17,17,16,17,17,16,17,17,16,17,17,17,17,17,17,17,16,17,17,16,17,16,17,17,17,17,17,16,17,17,16,17,16,17,17,17,17,17,16,17,16,17,17,17,17,17,16,17,17,16,17,17,16,17,16,17,17,16,17,17,16,17,17,16,17,17,16,17,17,17,17,16,17,18,15,17,17,16,17,16,17,17,16,17,17,16,17,17,16,17,17,16,17,16,17,17,17,17,18,16,17,17,16,17,17,17,18,16,17,17,16,17,17,17,17,16],"number_of_frames":121,"aperture_center_x":960,"aperture_center_y":540,"fixation_cross":true,"fixation_cross_width":15,"fixation_cross_height":15,"fixation_cross_color":"#111","fixation_cross_thickness":1,"border":true,"border_thickness":2,"border_color":"transparent","canvas_width":1920,"canvas_height":1080,"trial_type":"rdk","trial_index":100,"plugin_version":"2.0.0","time_elapsed":373286},{"rt":937,"stimulus":"\n        <div class=\"response-container\">\n          <div class=\"response-instruction\">\n            <p>rotate the bar by using the left and right arrow keys.</p>\n            <p>when you are determined, press the Enter key.</p>\n          </div>\n          <div class=\"response-circle\">\n            <div class=\"response-fixation\"></div>\n            <div id=\"bar\" class=\"rotating-bar\"></div>\n          </div>\n        </div>\n      ","response":"Enter","trial_type":"html-keyboard-response","trial_index":101,"plugin_version":"2.1.0","time_elapsed":374224,"random_initial_angle":316,"response_angle_css":316,"response_angle_rdk":134,"angular_error_target":-106,"angular_error_distractor":-10,"target_direction":240,"target_group":"white","reward_points":0},{"rt":null,"stimulus":"\n          <p style=\"color: #FF3333;\">Your reward: 0 points</p>\n        ","response":null,"trial_type":"html-keyboard-response","trial_index":102,"plugin_version":"2.1.0","time_elapsed":376230},{"rt":null,"stimulus":"<div class=\"fixation\" style=\"font-size: 60px;\">+</div>","response":null,"trial_type":"html-keyboard-response","trial_index":103,"plugin_version":"2.1.0","time_elapsed":377247},{"phase":"learning-awareness","target_group":"white","condition_label":"W_H_vs_B_L_rep23","target_direction":234,"distractor_direction":144,"session_rotation":197,"rt":-1,"response":"","correct":false,"choices":"ALL_KEYS","correct_choice":["a"],"trial_duration":2000,"flip_timestamps":[],"response_ends_trial":false,"number_of_apertures":200,"number_of_dots":[1,1,1,1,1,1,1,1,1,1,1,1,1,1,1,1,1,1,1,1,1,1,1,1,1,1,1,1,1,1,1,1,1,1,1,1,1,1,1,1,1,1,1,1,1,1,1,1,1,1,1,1,1,1,1,1,1,1,1,1,1,1,1,1,1,1,1,1,1,1,1,1,1,1,1,1,1,1,1,1,1,1,1,1,1,1,1,1,1,1,1,1,1,1,1,1,1,1,1,1,1,1,1,1,1,1,1,1,1,1,1,1,1,1,1,1,1,1,1,1,1,1,1,1,1,1,1,1,1,1,1,1,1,1,1,1,1,1,1,1,1,1,1,1,1,1,1,1,1,1,1,1,1,1,1,1,1,1,1,1,1,1,1,1,1,1,1,1,1,1,1,1,1,1,1,1,1,1,1,1,1,1,1,1,1,1,1,1,1,1,1,1,1,1,1,1,1,1,1,1],"number_of_sets":1,"coherent_direction":[234,144,144,144,144,144,144,234,144,144,234,234,234,144,234,234,144,234,234,144,144,144,234,144,234,234,144,144,144,234,144,144,234,144,234,144,234,234,234,144,234,234,144,144,144,234,234,234,234,144,144,234,234,234,234,234,234,144,144,144,234,144,144,144,144,234,144,144,234,234,144,144,234,144,144,144,144,234,234,144,144,234,234,234,234,234,144,144,234,234,234,144,144,144,234,144,234,144,144,144,144,234,144,234,234,234,234,234,234,234,144,234,234,234,144,234,144,144,234,144,144,144,234,144,144,234,234,234,144,144,144,144,234,234,144,144,234,234,234,234,234,234,234,144,144,234,144,144,144,234,144,234,144,144,144,144,144,234,144,234,234,234,234,144,144,234,234,234,144,144,234,234,234,144,234,234,144,234,234,234,234,234,234,144,144,234,144,144,234,144,144,144,144,234,144,144,234,234,144,144],"coherence":1,"opposite_coherence":0,"dot_radius":2,"dot_side_length":1,"dot_life":-1,"move_distance":1,"aperture_width":300,"aperture_height":300,"dot_color":["white","black","black","black","black","black","black","white","black","black","white","white","white","black","white","white","black","white","white","black","black","black","white","black","white","white","black","black","black","white","black","black","white","black","white","black","white","white","white","black","white","white","black","black","black","white","white","white","white","black","black","white","white","white","white","white","white","black","black","black","white","black","black","black","black","white","black","black","white","white","black","black","white","black","black","black","black","white","white","black","black","white","white","white","white","white","black","black","white","white","white","black","black","black","white","black","white","black","black","black","black","white","black","white","white","white","white","white","white","white","black","white","white","white","black","white","black","black","white","black","black","black","white","black","black","white","white","white","black","black","black","black","white","white","black","black","white","white","white","white","white","white","white","black","black","white","black","black","black","white","black","white","black","black","black","black","black","white","black","white","white","white","white","black","black","white","white","white","black","black","white","white","white","black","white","white","black","white","white","white","white","white","white","black","black","white","black","black","white","black","black","black","black","white","black","black","white","white","black","black"],"dot_shape":"circle","background_color":"#AAA","RDK_type":3,"aperture_type":2,"reinsert_type":2,"frame_rate":16.58677685950413,"frame_rate_array":[3,15,16,18,16,18,15,17,17,16,17,17,16,17,16,17,17,17,16,18,16,16,17,17,16,16,16,17,17,17,18,16,17,17,16,16,17,17,17,17,17,17,16,19,16,15,19,16,17,17,16,20,14,14,19,15,16,17,17,18,16,17,17,18,17,15,16,16,17,17,17,17,16,17,17,16,18,16,17,18,16,15,17,16,17,18,16,18,15,18,18,14,16,17,16,17,17,17,17,16,17,18,15,17,18,16,16,18,15,18,15,16,17,17,17,18,16,17,17,17,19],"number_of_frames":121,"aperture_center_x":960,"aperture_center_y":540,"fixation_cross":true,"fixation_cross_width":15,"fixation_cross_height":15,"fixation_cross_color":"#111","fixation_cross_thickness":1,"border":true,"border_thickness":2,"border_color":"transparent","canvas_width":1920,"canvas_height":1080,"trial_type":"rdk","trial_index":104,"plugin_version":"2.0.0","time_elapsed":379258},{"rt":2485,"stimulus":"\n        <div class=\"response-container\">\n          <div class=\"response-instruction\">\n            <p>rotate the bar by using the left and right arrow keys.</p>\n            <p>when you are determined, press the Enter key.</p>\n          </div>\n          <div class=\"response-circle\">\n            <div class=\"response-fixation\"></div>\n            <div id=\"bar\" class=\"rotating-bar\"></div>\n          </div>\n        </div>\n      ","response":"Enter","trial_type":"html-keyboard-response","trial_index":105,"plugin_version":"2.1.0","time_elapsed":381745,"random_initial_angle":267,"response_angle_css":308,"response_angle_rdk":142,"angular_error_target":-92,"angular_error_distractor":-2,"target_direction":234,"target_group":"white","reward_points":0},{"rt":null,"stimulus":"\n          <p style=\"color: #FF3333;\">Your reward: 0 points</p>\n        ","response":null,"trial_type":"html-keyboard-response","trial_index":106,"plugin_version":"2.1.0",