[{"rt":15957,"stimulus":"Welcome to the experiment. Press any key to begin.","response":" ","trial_type":"html-keyboard-response","trial_index":0,"plugin_version":"2.1.0","time_elapsed":15961},{"rt":51783,"stimulus":"\n        <div class=\"instructions-container\">\n          <h2>Instructions</h2>\n\n          <p>\n          In this experiment, you will see <strong>two Random Dot Kinematograms (RDKs)</strong> displayed simultaneously.\n          </p>\n\n          <p>\n          An RDK is a visual stimulus consisting of many small dots that move coherently in a single direction. \n          In this experiment, the dots will be either <strong>white</strong> or <strong>black</strong> \n          (see the short demo below for an example of an RDK stimulus).\n          </p>\n\n          <p>\n          On each trial, the two RDKs will move in different directions. \n          Your task is to decide <strong>which RDK appears to contain more dots</strong>.\n          </p>\n\n          <p>\n          The RDK that you judge to have more dots is called the <strong>target RDK</strong>. \n          For example, if the white RDK appears to have more dots than the black RDK, \n          you should report the motion direction of the white RDK.\n          </p>\n\n          <p>\n          After viewing the RDKs, you will rotate a bar to indicate the perceived direction of the target RDK \n          using the <strong>left</strong> and <strong>right arrow keys</strong>. \n          Press <strong>Enter</strong> when you are satisfied with your response.\n          When the bar is held down, the rotation speed increases.\n          </p>\n\n          <p>\n          You will receive points based on the <strong>accuracy of your response</strong>, \n          and your final <strong>bonus reward</strong> may depend on your overall performance. \n          Please try to respond as accurately as possible.\n          </p>\n\n          <p>\n          You will first complete <strong>16 practice trials</strong>. \n          Press the <strong>Enter</strong> key to start the practice phase.\n          </p>\n\n          <canvas id=\"instruction-demo-rdk\" width=\"200\" height=\"200\"style=\"display:block;margin:12px auto; border-radius: 50%;\"></canvas>\n        </div>\n      ","response":"Enter","trial_type":"html-keyboard-response","trial_index":1,"plugin_version":"2.1.0","time_elapsed":67750},{"rt":null,"stimulus":"<div class=\"fixation\" style=\"font-size: 60px;\">+</div>","response":null,"trial_type":"html-keyboard-response","trial_index":2,"plugin_version":"2.1.0","time_elapsed":68753},{"target_group":"black","target_index":1,"condition_label":"practice","rt":-1,"response":"","correct":false,"choices":"ALL_KEYS","correct_choice":["a"],"trial_duration":2000,"flip_timestamps":[],"response_ends_trial":false,"number_of_apertures":2,"number_of_dots":[58,100],"number_of_sets":1,"coherent_direction":[8,112],"coherence":1,"opposite_coherence":0,"dot_radius":2,"dot_side_length":1,"dot_life":-1,"move_distance":1,"aperture_width":300,"aperture_height":300,"dot_color":["white","black"],"dot_shape":"circle","background_color":"#AAA","RDK_type":3,"aperture_type":2,"reinsert_type":2,"frame_rate":16.66115702479339,"frame_rate_array":[7,15,17,17,17,17,16,16,17,17,17,17,17,17,17,17,17,16,17,17,16,17,17,16,17,17,16,17,17,17,18,17,17,17,16,17,16,18,17,17,16,17,16,18,17,17,17,17,17,17,16,17,17,17,17,16,17,16,16,17,16,17,18,17,16,18,16,17,16,17,17,17,16,17,16,17,17,17,16,17,17,17,16,17,17,16,17,16,17,16,16,17,17,16,17,17,17,16,17,16,17,17,17,17,16,17,16,17,17,16,17,16,16,17,17,17,17,17,17,17,17],"number_of_frames":121,"aperture_center_x":960,"aperture_center_y":540,"fixation_cross":true,"fixation_cross_width":15,"fixation_cross_height":15,"fixation_cross_color":"#111","fixation_cross_thickness":1,"border":true,"border_thickness":2,"border_color":"transparent","canvas_width":1920,"canvas_height":1080,"trial_type":"rdk","trial_index":3,"plugin_version":"2.0.0","time_elapsed":70764,"phase":"practice","target_direction":112,"distractor_direction":8},{"rt":13940,"stimulus":"\n        <div class=\"response-container\">\n          <div class=\"response-instruction\">\n            <p>rotate the bar by using the left and right arrow keys.</p>\n            <p>when you are determined, press the Enter key.</p>\n          </div>\n          <div class=\"response-circle\">\n            <div class=\"response-fixation\"></div>\n            <div id=\"bar\" class=\"rotating-bar\"></div>\n          </div>\n        </div>\n      ","response":"Enter","trial_type":"html-keyboard-response","trial_index":4,"plugin_version":"2.1.0","time_elapsed":84705,"random_initial_angle":300,"response_angle_css":274,"response_angle_rdk":176,"angular_error_target":64,"angular_error_distractor":168,"target_direction":112,"target_group":"black","reward_points":0},{"rt":null,"stimulus":"\n          <p style=\"color: #FF3333;\">Your reward: 0 points</p>\n        ","response":null,"trial_type":"html-keyboard-response","trial_index":5,"plugin_version":"2.1.0","time_elapsed":86716},{"rt":null,"stimulus":"<div class=\"fixation\" style=\"font-size: 60px;\">+</div>","response":null,"trial_type":"html-keyboard-response","trial_index":6,"plugin_version":"2.1.0","time_elapsed":87729},{"target_group":"black","target_index":1,"condition_label":"practice","rt":-1,"response":"","correct":false,"choices":"ALL_KEYS","correct_choice":["a"],"trial_duration":2000,"flip_timestamps":[],"response_ends_trial":false,"number_of_apertures":2,"number_of_dots":[66,100],"number_of_sets":1,"coherent_direction":[161,11],"coherence":1,"opposite_coherence":0,"dot_radius":2,"dot_side_length":1,"dot_life":-1,"move_distance":1,"aperture_width":300,"aperture_height":300,"dot_color":["white","black"],"dot_shape":"circle","background_color":"#AAA","RDK_type":3,"aperture_type":2,"reinsert_type":2,"frame_rate":16.591666666666665,"frame_rate_array":[5,16,17,17,17,17,17,17,17,17,16,16,17,17,16,17,17,17,17,17,16,17,17,16,16,17,16,17,17,17,17,16,17,18,15,17,17,16,16,17,16,17,17,17,17,16,17,17,17,17,17,17,17,17,16,17,17,16,17,17,17,17,17,17,16,17,17,16,17,16,17,16,17,17,17,16,17,16,17,16,16,17,17,16,17,16,16,17,17,16,17,17,16,17,17,17,17,17,16,17,16,17,16,17,17,16,17,17,16,17,16,17,17,17,17,17,16,17,16,17],"number_of_frames":120,"aperture_center_x":960,"aperture_center_y":540,"fixation_cross":true,"fixation_cross_width":15,"fixation_cross_height":15,"fixation_cross_color":"#111","fixation_cross_thickness":1,"border":true,"border_thickness":2,"border_color":"transparent","canvas_width":1920,"canvas_height":1080,"trial_type":"rdk","trial_index":7,"plugin_version":"2.0.0","time_elapsed":89733,"phase":"practice","target_direction":11,"distractor_direction":161},{"rt":12834,"stimulus":"\n        <div class=\"response-container\">\n          <div class=\"response-instruction\">\n            <p>rotate the bar by using the left and right arrow keys.</p>\n            <p>when you are determined, press the Enter key.</p>\n          </div>\n          <div class=\"response-circle\">\n            <div class=\"response-fixation\"></div>\n            <div id=\"bar\" class=\"rotating-bar\"></div>\n          </div>\n        </div>\n      ","response":"Enter","trial_type":"html-keyboard-response","trial_index":8,"plugin_version":"2.1.0","time_elapsed":102569,"random_initial_angle":119,"response_angle_css":89,"response_angle_rdk":1,"angular_error_target":-10,"angular_error_distractor":-160,"target_direction":11,"target_group":"black","reward_points":8},{"rt":null,"stimulus":"\n          <p style=\"color: #00FF00;\">Your reward: 8 points</p>\n        ","response":null,"trial_type":"html-keyboard-response","trial_index":9,"plugin_version":"2.1.0","time_elapsed":104582},{"rt":null,"stimulus":"<div class=\"fixation\" style=\"font-size: 60px;\">+</div>","response":null,"trial_type":"html-keyboard-response","trial_index":10,"plugin_version":"2.1.0","time_elapsed":105596},{"target_group":"white","target_index":0,"condition_label":"practice","rt":-1,"response":"","correct":false,"choices":"ALL_KEYS","correct_choice":["a"],"trial_duration":2000,"flip_timestamps":[],"response_ends_trial":false,"number_of_apertures":2,"number_of_dots":[100,100],"number_of_sets":1,"coherent_direction":[80,242],"coherence":1,"opposite_coherence":0,"dot_radius":2,"dot_side_length":1,"dot_life":-1,"move_distance":1,"aperture_width":300,"aperture_height":300,"dot_color":["white","black"],"dot_shape":"circle","background_color":"#AAA","RDK_type":3,"aperture_type":2,"reinsert_type":2,"frame_rate":16.727272727272727,"frame_rate_array":[8,17,17,17,17,16,18,16,16,17,17,17,16,17,17,16,17,16,17,17,17,17,17,17,17,16,17,17,17,17,17,17,16,17,17,17,17,16,17,17,17,17,16,17,17,17,17,16,17,17,17,16,17,17,17,17,17,15,17,17,17,17,17,17,17,17,16,16,17,17,17,17,17,17,17,17,17,17,16,17,17,17,17,17,17,17,17,18,15,17,17,17,17,17,17,16,17,17,17,17,16,16,17,17,17,17,16,17,17,17,17,16,17,17,17,16,17,17,17,17,16],"number_of_frames":121,"aperture_center_x":960,"aperture_center_y":540,"fixation_cross":true,"fixation_cross_width":15,"fixation_cross_height":15,"fixation_cross_color":"#111","fixation_cross_thickness":1,"border":true,"border_thickness":2,"border_color":"transparent","canvas_width":1920,"canvas_height":1080,"trial_type":"rdk","trial_index":11,"plugin_version":"2.0.0","time_elapsed":107606,"phase":"practice","target_direction":80,"distractor_direction":242},{"rt":13377,"stimulus":"\n        <div class=\"response-container\">\n          <div class=\"response-instruction\">\n            <p>rotate the bar by using the left and right arrow keys.</p>\n            <p>when you are determined, press the Enter key.</p>\n          </div>\n          <div class=\"response-circle\">\n            <div class=\"response-fixation\"></div>\n            <div id=\"bar\" class=\"rotating-bar\"></div>\n          </div>\n        </div>\n      ","response":"Enter","trial_type":"html-keyboard-response","trial_index":12,"plugin_version":"2.1.0","time_elapsed":120984,"random_initial_angle":30,"response_angle_css":-86,"response_angle_rdk":176,"angular_error_target":96,"angular_error_distractor":-66,"target_direction":80,"target_group":"white","reward_points":0},{"rt":null,"stimulus":"\n          <p style=\"color: #FF3333;\">Your reward: 0 points</p>\n        ","response":null,"trial_type":"html-keyboard-response","trial_index":13,"plugin_version":"2.1.0","time_elapsed":122996},{"rt":null,"stimulus":"<div class=\"fixation\" style=\"font-size: 60px;\">+</div>","response":null,"trial_type":"html-keyboard-response","trial_index":14,"plugin_version":"2.1.0","time_elapsed":124009},{"target_group":"white","target_index":0,"condition_label":"practice","rt":-1,"response":"","correct":false,"choices":"ALL_KEYS","correct_choice":["a"],"trial_duration":2000,"flip_timestamps":[],"response_ends_trial":false,"number_of_apertures":2,"number_of_dots":[100,81],"number_of_sets":1,"coherent_direction":[208,84],"coherence":1,"opposite_coherence":0,"dot_radius":2,"dot_side_length":1,"dot_life":-1,"move_distance":1,"aperture_width":300,"aperture_height":300,"dot_color":["white","black"],"dot_shape":"circle","background_color":"#AAA","RDK_type":3,"aperture_type":2,"reinsert_type":2,"frame_rate":16.553719008264462,"frame_rate_array":[2,16,16,16,17,16,17,18,16,18,16,16,17,16,17,17,17,17,15,17,17,16,17,17,17,15,17,17,17,17,16,16,17,17,16,17,17,16,17,16,17,18,16,17,16,18,17,16,17,17,16,17,17,17,16,16,17,16,17,18,16,17,16,17,17,17,17,17,17,17,16,18,16,16,16,17,17,17,17,17,17,16,17,16,17,16,17,16,17,17,17,17,17,16,16,17,17,17,17,17,17,16,16,17,17,16,16,17,17,17,17,16,17,17,17,16,18,15,17,16,17],"number_of_frames":121,"aperture_center_x":960,"aperture_center_y":540,"fixation_cross":true,"fixation_cross_width":15,"fixation_cross_height":15,"fixation_cross_color":"#111","fixation_cross_thickness":1,"border":true,"border_thickness":2,"border_color":"transparent","canvas_width":1920,"canvas_height":1080,"trial_type":"rdk","trial_index":15,"plugin_version":"2.0.0","time_elapsed":126022,"phase":"practice","target_direction":208,"distractor_direction":84},{"rt":17386,"stimulus":"\n        <div class=\"response-container\">\n          <div class=\"response-instruction\">\n            <p>rotate the bar by using the left and right arrow keys.</p>\n            <p>when you are determined, press the Enter key.</p>\n          </div>\n          <div class=\"response-circle\">\n            <div class=\"response-fixation\"></div>\n            <div id=\"bar\" class=\"rotating-bar\"></div>\n          </div>\n        </div>\n      ","response":"Enter","trial_type":"html-keyboard-response","trial_index":16,"plugin_version":"2.1.0","time_elapsed":143409,"random_initial_angle":157,"response_angle_css":86,"response_angle_rdk":4,"angular_error_target":156,"angular_error_distractor":-80,"target_direction":208,"target_group":"white","reward_points":0},{"rt":null,"stimulus":"\n          <p style=\"color: #FF3333;\">Your reward: 0 points</p>\n        ","response":null,"trial_type":"html-keyboard-response","trial_index":17,"plugin_version":"2.1.0","time_elapsed":145417},{"rt":null,"stimulus":"<div class=\"fixation\" style=\"font-size: 60px;\">+</div>","response":null,"trial_type":"html-keyboard-response","trial_index":18,"plugin_version":"2.1.0","time_elapsed":146429},{"target_group":"white","target_index":0,"condition_label":"practice","rt":-1,"response":"","correct":false,"choices":"ALL_KEYS","correct_choice":["a"],"trial_duration":2000,"flip_timestamps":[],"response_ends_trial":false,"number_of_apertures":2,"number_of_dots":[100,60],"number_of_sets":1,"coherent_direction":[312,107],"coherence":1,"opposite_coherence":0,"dot_radius":2,"dot_side_length":1,"dot_life":-1,"move_distance":1,"aperture_width":300,"aperture_height":300,"dot_color":["white","black"],"dot_shape":"circle","background_color":"#AAA","RDK_type":3,"aperture_type":2,"reinsert_type":2,"frame_rate":16.636363636363637,"frame_rate_array":[2,14,18,16,17,17,17,16,18,16,16,17,16,17,18,16,17,17,15,17,18,17,17,17,16,16,18,16,16,16,17,16,18,16,17,15,17,17,17,18,16,17,16,16,17,18,16,17,17,16,17,16,18,18,16,17,17,16,16,16,16,17,17,17,17,17,17,17,17,17,17,17,17,17,17,17,17,17,17,17,17,17,17,17,17,17,17,17,17,17,17,16,16,17,16,17,16,17,16,17,17,17,17,17,17,16,17,17,16,17,18,17,17,16,18,17,17,16,16,17,17],"number_of_frames":121,"aperture_center_x":960,"aperture_center_y":540,"fixation_cross":true,"fixation_cross_width":15,"fixation_cross_height":15,"fixation_cross_color":"#111","fixation_cross_thickness":1,"border":true,"border_thickness":2,"border_color":"transparent","canvas_width":1920,"canvas_height":1080,"trial_type":"rdk","trial_index":19,"plugin_version":"2.0.0","time_elapsed":148433,"phase":"practice","target_direction":312,"distractor_direction":107},{"rt":17054,"stimulus":"\n        <div class=\"response-container\">\n          <div class=\"response-instruction\">\n            <p>rotate the bar by using the left and right arrow keys.</p>\n            <p>when you are determined, press the Enter key.</p>\n          </div>\n          <div class=\"response-circle\">\n            <div class=\"response-fixation\"></div>\n            <div id=\"bar\" class=\"rotating-bar\"></div>\n          </div>\n        </div>\n      ","response":"Enter","trial_type":"html-keyboard-response","trial_index":20,"plugin_version":"2.1.0","time_elapsed":165488,"random_initial_angle":317,"response_angle_css":178,"response_angle_rdk":272,"angular_error_target":-40,"angular_error_distractor":165,"target_direction":312,"target_group":"white","reward_points":1},{"rt":null,"stimulus":"\n          <p style=\"color: #FF3333;\">Your reward: 1 points</p>\n        ","response":null,"trial_type":"html-keyboard-response","trial_index":21,"plugin_version":"2.1.0","time_elapsed":167494},{"rt":null,"stimulus":"<div class=\"fixation\" style=\"font-size: 60px;\">+</div>","response":null,"trial_type":"html-keyboard-response","trial_index":22,"plugin_version":"2.1.0","time_elapsed":168506},{"target_group":"black","target_index":1,"condition_label":"practice","rt":-1,"response":"","correct":false,"choices":"ALL_KEYS","correct_choice":["a"],"trial_duration":2000,"flip_timestamps":[],"response_ends_trial":false,"number_of_apertures":2,"number_of_dots":[51,100],"number_of_sets":1,"coherent_direction":[313,163],"coherence":1,"opposite_coherence":0,"dot_radius":2,"dot_side_length":1,"dot_life":-1,"move_distance":1,"aperture_width":300,"aperture_height":300,"dot_color":["white","black"],"dot_shape":"circle","background_color":"#AAA","RDK_type":3,"aperture_type":2,"reinsert_type":2,"frame_rate":16.7,"frame_rate_array":[11,17,17,17,17,16,17,17,16,17,17,16,17,17,17,17,17,17,17,17,17,17,17,16,17,17,17,16,17,17,17,17,17,17,17,16,16,17,17,16,17,17,17,16,17,17,17,16,17,16,17,17,17,17,17,16,18,17,17,16,17,17,17,17,17,16,16,17,16,17,17,17,17,17,16,17,17,16,17,16,16,17,17,17,16,17,17,17,17,16,17,17,16,16,17,17,17,16,17,16,17,17,17,17,16,17,17,16,17,17,17,16,17,17,17,16,17,17,16,17],"number_of_frames":120,"aperture_center_x":960,"aperture_center_y":540,"fixation_cross":true,"fixation_cross_width":15,"fixation_cross_height":15,"fixation_cross_color":"#111","fixation_cross_thickness":1,"border":true,"border_thickness":2,"border_color":"transparent","canvas_width":1920,"canvas_height":1080,"trial_type":"rdk","trial_index":23,"plugin_version":"2.0.0","time_elapsed":170517,"phase":"practice","target_direction":163,"distractor_direction":313},{"rt":23193,"stimulus":"\n        <div class=\"response-container\">\n          <div class=\"response-instruction\">\n            <p>rotate the bar by using the left and right arrow keys.</p>\n            <p>when you are determined, press the Enter key.</p>\n          </div>\n          <div class=\"response-circle\">\n            <div class=\"response-fixation\"></div>\n            <div id=\"bar\" class=\"rotating-bar\"></div>\n          </div>\n        </div>\n      ","response":"Enter","trial_type":"html-keyboard-response","trial_index":24,"plugin_version":"2.1.0","time_elapsed":193711,"random_initial_angle":353,"response_angle_css":362,"response_angle_rdk":88,"angular_error_target":-75,"angular_error_distractor":135,"target_direction":163,"target_group":"black","reward_points":0},{"rt":null,"stimulus":"\n          <p style=\"color: #FF3333;\">Your reward: 0 points</p>\n        ","response":null,"trial_type":"html-keyboard-response","trial_index":25,"plugin_version":"2.1.0","time_elapsed":195723},{"rt":null,"stimulus":"<div class=\"fixation\" style=\"font-size: 60px;\">+</div>","response":null,"trial_type":"html-keyboard-response","trial_index":26,"plugin_version":"2.1.0","time_elapsed":196730},{"target_group":"white","target_index":0,"condition_label":"practice","rt":-1,"response":"","correct":false,"choices":"ALL_KEYS","correct_choice":["a"],"trial_duration":2000,"flip_timestamps":[],"response_ends_trial":false,"number_of_apertures":2,"number_of_dots":[100,52],"number_of_sets":1,"coherent_direction":[235,4],"coherence":1,"opposite_coherence":0,"dot_radius":2,"dot_side_length":1,"dot_life":-1,"move_distance":1,"aperture_width":300,"aperture_height":300,"dot_color":["white","black"],"dot_shape":"circle","background_color":"#AAA","RDK_type":3,"aperture_type":2,"reinsert_type":2,"frame_rate":16.65289256198347,"frame_rate_array":[6,11,17,17,17,17,17,17,17,17,16,17,16,16,17,17,17,17,17,17,16,17,17,17,17,17,17,17,17,17,16,17,16,17,17,17,17,17,17,17,16,17,17,16,15,17,17,17,17,17,17,17,17,17,17,16,17,17,17,17,16,17,17,17,16,17,17,17,18,17,16,17,16,18,17,15,17,17,17,17,16,17,17,17,16,17,17,17,16,18,16,18,17,17,17,16,17,16,17,16,16,16,17,17,16,17,16,17,17,17,17,17,17,17,17,17,16,17,17,17,17],"number_of_frames":121,"aperture_center_x":960,"aperture_center_y":540,"fixation_cross":true,"fixation_cross_width":15,"fixation_cross_height":15,"fixation_cross_color":"#111","fixation_cross_thickness":1,"border":true,"border_thickness":2,"border_color":"transparent","canvas_width":1920,"canvas_height":1080,"trial_type":"rdk","trial_index":27,"plugin_version":"2.0.0","time_elapsed":198733,"phase":"practice","target_direction":235,"distractor_direction":4},{"rt":7259,"stimulus":"\n        <div class=\"response-container\">\n          <div class=\"response-instruction\">\n            <p>rotate the bar by using the left and right arrow keys.</p>\n            <p>when you are determined, press the Enter key.</p>\n          </div>\n          <div class=\"response-circle\">\n            <div class=\"response-fixation\"></div>\n            <div id=\"bar\" class=\"rotating-bar\"></div>\n          </div>\n        </div>\n      ","response":"Enter","trial_type":"html-keyboard-response","trial_index":28,"plugin_version":"2.1.0","time_elapsed":205992,"random_initial_angle":299,"response_angle_css":268,"response_angle_rdk":182,"angular_error_target":-53,"angular_error_distractor":178,"target_direction":235,"target_group":"white","reward_points":0},{"rt":null,"stimulus":"\n          <p style=\"color: #FF3333;\">Your reward: 0 points</p>\n        ","response":null,"trial_type":"html-keyboard-response","trial_index":29,"plugin_version":"2.1.0","time_elapsed":208002},{"rt":null,"stimulus":"<div class=\"fixation\" style=\"font-size: 60px;\">+</div>","response":null,"trial_type":"html-keyboard-response","trial_index":30,"plugin_version":"2.1.0","time_elapsed":209016},{"target_group":"black","target_index":1,"condition_label":"practice","rt":-1,"response":"","correct":false,"choices":"ALL_KEYS","correct_choice":["a"],"trial_duration":2000,"flip_timestamps":[],"response_ends_trial":false,"number_of_apertures":2,"number_of_dots":[65,100],"number_of_sets":1,"coherent_direction":[178,57],"coherence":1,"opposite_coherence":0,"dot_radius":2,"dot_side_length":1,"dot_life":-1,"move_distance":1,"aperture_width":300,"aperture_height":300,"dot_color":["white","black"],"dot_shape":"circle","background_color":"#AAA","RDK_type":3,"aperture_type":2,"reinsert_type":2,"frame_rate":16.683333333333334,"frame_rate_array":[6,16,17,17,17,17,17,16,17,17,17,17,17,16,16,17,17,17,17,16,16,17,17,17,17,17,16,17,17,17,17,17,15,17,17,17,16,17,17,17,17,17,17,17,17,17,17,16,16,17,17,17,16,17,17,17,17,17,17,17,17,16,17,16,16,17,17,17,17,17,16,17,16,17,17,17,17,16,17,17,17,16,17,17,17,17,16,17,17,17,17,17,17,17,17,16,18,17,17,17,16,17,17,16,17,17,17,17,16,17,17,17,17,17,16,17,17,17,16,16],"number_of_frames":120,"aperture_center_x":960,"aperture_center_y":540,"fixation_cross":true,"fixation_cross_width":15,"fixation_cross_height":15,"fixation_cross_color":"#111","fixation_cross_thickness":1,"border":true,"border_thickness":2,"border_color":"transparent","canvas_width":1920,"canvas_height":1080,"trial_type":"rdk","trial_index":31,"plugin_version":"2.0.0","time_elapsed":211020,"phase":"practice","target_direction":57,"distractor_direction":178},{"rt":2675,"stimulus":"\n        <div class=\"response-container\">\n          <div class=\"response-instruction\">\n            <p>rotate the bar by using the left and right arrow keys.</p>\n            <p>when you are determined, press the Enter key.</p>\n          </div>\n          <div class=\"response-circle\">\n            <div class=\"response-fixation\"></div>\n            <div id=\"bar\" class=\"rotating-bar\"></div>\n          </div>\n        </div>\n      ","response":"Enter","trial_type":"html-keyboard-response","trial_index":32,"plugin_version":"2.1.0","time_elapsed":213695,"random_initial_angle":62,"response_angle_css":62,"response_angle_rdk":28,"angular_error_target":-29,"angular_error_distractor":-150,"target_direction":57,"target_group":"black","reward_points":4},{"rt":null,"stimulus":"\n          <p style=\"color: #00FF00;\">Your reward: 4 points</p>\n        ","response":null,"trial_type":"html-keyboard-response","trial_index":33,"plugin_version":"2.1.0","time_elapsed":215701},{"rt":null,"stimulus":"<div class=\"fixation\" style=\"font-size: 60px;\">+</div>","response":null,"trial_type":"html-keyboard-response","trial_index":34,"plugin_version":"2.1.0","time_elapsed":216710},{"target_group":"white","target_index":0,"condition_label":"practice","rt":-1,"response":"","correct":false,"choices":"ALL_KEYS","correct_choice":["a"],"trial_duration":2000,"flip_timestamps":[],"response_ends_trial":false,"number_of_apertures":2,"number_of_dots":[100,63],"number_of_sets":1,"coherent_direction":[180,344],"coherence":1,"opposite_coherence":0,"dot_radius":2,"dot_side_length":1,"dot_life":-1,"move_distance":1,"aperture_width":300,"aperture_height":300,"dot_color":["white","black"],"dot_shape":"circle","background_color":"#AAA","RDK_type":3,"aperture_type":2,"reinsert_type":2,"frame_rate":16.710743801652892,"frame_rate_array":[8,17,16,17,17,17,17,16,17,16,17,17,15,18,16,17,17,17,17,17,17,16,17,17,17,17,17,17,17,17,17,17,17,17,17,17,16,17,17,17,17,16,17,16,17,16,17,16,17,17,18,16,17,16,17,17,17,17,17,17,17,17,17,17,16,17,17,17,17,16,17,17,17,16,17,16,17,17,17,17,17,16,17,17,17,17,17,17,17,16,17,17,16,17,16,17,17,17,16,17,17,17,16,17,17,17,16,16,17,17,17,17,16,17,18,17,17,17,16,17,16],"number_of_frames":121,"aperture_center_x":960,"aperture_center_y":540,"fixation_cross":true,"fixation_cross_width":15,"fixation_cross_height":15,"fixation_cross_color":"#111","fixation_cross_thickness":1,"border":true,"border_thickness":2,"border_color":"transparent","canvas_width":1920,"canvas_height":1080,"trial_type":"rdk","trial_index":35,"plugin_version":"2.0.0","time_elapsed":218722,"phase":"practice","target_direction":180,"distractor_direction":344},{"rt":3261,"stimulus":"\n        <div class=\"response-container\">\n          <div class=\"response-instruction\">\n            <p>rotate the bar by using the left and right arrow keys.</p>\n            <p>when you are determined, press the Enter key.</p>\n          </div>\n          <div class=\"response-circle\">\n            <div class=\"response-fixation\"></div>\n            <div id=\"bar\" class=\"rotating-bar\"></div>\n          </div>\n        </div>\n      ","response":"Enter","trial_type":"html-keyboard-response","trial_index":36,"plugin_version":"2.1.0","time_elapsed":221984,"random_initial_angle":58,"response_angle_css":58,"response_angle_rdk":32,"angular_error_target":-148,"angular_error_distractor":48,"target_direction":180,"target_group":"white","reward_points":0},{"rt":null,"stimulus":"\n          <p style=\"color: #FF3333;\">Your reward: 0 points</p>\n        ","response":null,"trial_type":"html-keyboard-response","trial_index":37,"plugin_version":"2.1.0","time_elapsed":223991},{"rt":null,"stimulus":"<div class=\"fixation\" style=\"font-size: 60px;\">+</div>","response":null,"trial_type":"html-keyboard-response","trial_index":38,"plugin_version":"2.1.0","time_elapsed":224998},{"target_group":"black","target_index":1,"condition_label":"practice","rt":-1,"response":"","correct":false,"choices":"ALL_KEYS","correct_choice":["a"],"trial_duration":2000,"flip_timestamps":[],"response_ends_trial":false,"number_of_apertures":2,"number_of_dots":[85,100],"number_of_sets":1,"coherent_direction":[33,251],"coherence":1,"opposite_coherence":0,"dot_radius":2,"dot_side_length":1,"dot_life":-1,"move_distance":1,"aperture_width":300,"aperture_height":300,"dot_color":["white","black"],"dot_shape":"circle","background_color":"#AAA","RDK_type":3,"aperture_type":2,"reinsert_type":2,"frame_rate":16.691666666666666,"frame_rate_array":[14,17,16,18,16,17,17,16,17,16,17,18,16,17,17,16,17,16,16,17,17,17,17,17,16,17,17,16,16,17,17,16,18,16,17,17,17,16,17,16,17,15,17,18,17,17,17,16,17,17,15,17,17,17,18,16,16,17,17,17,16,17,16,17,17,17,16,16,17,17,17,16,18,15,17,17,17,17,17,17,17,17,16,17,17,17,16,17,17,18,16,17,18,16,17,16,17,15,17,17,18,16,17,16,16,17,16,16,17,16,18,16,18,18,14,17,17,17,17,17],"number_of_frames":120,"aperture_center_x":960,"aperture_center_y":540,"fixation_cross":true,"fixation_cross_width":15,"fixation_cross_height":15,"fixation_cross_color":"#111","fixation_cross_thickness":1,"border":true,"border_thickness":2,"border_color":"transparent","canvas_width":1920,"canvas_height":1080,"trial_type":"rdk","trial_index":39,"plugin_version":"2.0.0","time_elapsed":227008,"phase":"practice","target_direction":251,"distractor_direction":33},{"rt":2736,"stimulus":"\n        <div class=\"response-container\">\n          <div class=\"response-instruction\">\n            <p>rotate the bar by using the left and right arrow keys.</p>\n            <p>when you are determined, press the Enter key.</p>\n          </div>\n          <div class=\"response-circle\">\n            <div class=\"response-fixation\"></div>\n            <div id=\"bar\" class=\"rotating-bar\"></div>\n          </div>\n        </div>\n      ","response":"Enter","trial_type":"html-keyboard-response","trial_index":40,"plugin_version":"2.1.0","time_elapsed":229745,"random_initial_angle":269,"response_angle_css":269,"response_angle_rdk":181,"angular_error_target":-70,"angular_error_distractor":148,"target_direction":251,"target_group":"black","reward_points":0},{"rt":null,"stimulus":"\n          <p style=\"color: #FF3333;\">Your reward: 0 points</p>\n        ","response":null,"trial_type":"html-keyboard-response","trial_index":41,"plugin_version":"2.1.0","time_elapsed":231753},{"rt":null,"stimulus":"<div class=\"fixation\" style=\"font-size: 60px;\">+</div>","response":null,"trial_type":"html-keyboard-response","trial_index":42,"plugin_version":"2.1.0","time_elapsed":232764},{"target_group":"white","target_index":0,"condition_label":"practice","rt":-1,"response":"","correct":false,"choices":"ALL_KEYS","correct_choice":["a"],"trial_duration":2000,"flip_timestamps":[],"response_ends_trial":false,"number_of_apertures":2,"number_of_dots":[100,55],"number_of_sets":1,"coherent_direction":[248,104],"coherence":1,"opposite_coherence":0,"dot_radius":2,"dot_side_length":1,"dot_life":-1,"move_distance":1,"aperture_width":300,"aperture_height":300,"dot_color":["white","black"],"dot_shape":"circle","background_color":"#AAA","RDK_type":3,"aperture_type":2,"reinsert_type":2,"frame_rate":16.683333333333334,"frame_rate_array":[12,17,17,16,17,16,17,17,16,17,17,16,17,17,16,17,16,18,16,17,17,17,16,17,17,16,17,15,17,17,17,17,17,17,17,17,17,16,17,16,17,17,16,17,17,16,17,17,17,17,17,17,17,17,17,17,17,17,16,16,17,17,16,16,17,17,16,17,16,17,17,17,17,17,17,16,17,17,17,17,17,17,17,17,17,17,17,17,16,17,16,16,17,17,17,16,16,17,17,16,17,16,18,17,16,16,16,17,17,17,17,17,17,16,17,17,16,17,16,17],"number_of_frames":120,"aperture_center_x":960,"aperture_center_y":540,"fixation_cross":true,"fixation_cross_width":15,"fixation_cross_height":15,"fixation_cross_color":"#111","fixation_cross_thickness":1,"border":true,"border_thickness":2,"border_color":"transparent","canvas_width":1920,"canvas_height":1080,"trial_type":"rdk","trial_index":43,"plugin_version":"2.0.0","time_elapsed":234774,"phase":"practice","target_direction":248,"distractor_direction":104},{"rt":9066,"stimulus":"\n        <div class=\"response-container\">\n          <div class=\"response-instruction\">\n            <p>rotate the bar by using the left and right arrow keys.</p>\n            <p>when you are determined, press the Enter key.</p>\n          </div>\n          <div class=\"response-circle\">\n            <div class=\"response-fixation\"></div>\n            <div id=\"bar\" class=\"rotating-bar\"></div>\n          </div>\n        </div>\n      ","response":"Enter","trial_type":"html-keyboard-response","trial_index":44,"plugin_version":"2.1.0","time_elapsed":243841,"random_initial_angle":267,"response_angle_css":183,"response_angle_rdk":267,"angular_error_target":19,"angular_error_distractor":163,"target_direction":248,"target_group":"white","reward_points":6},{"rt":null,"stimulus":"\n          <p style=\"color: #00FF00;\">Your reward: 6 points</p>\n        ","response":null,"trial_type":"html-keyboard-response","trial_index":45,"plugin_version":"2.1.0","time_elapsed":245857},{"rt":null,"stimulus":"<div class=\"fixation\" style=\"font-size: 60px;\">+</div>","response":null,"trial_type":"html-keyboard-response","trial_index":46,"plugin_version":"2.1.0","time_elapsed":246865},{"target_group":"black","target_index":1,"condition_label":"practice","rt":-1,"response":"","correct":false,"choices":"ALL_KEYS","correct_choice":["a"],"trial_duration":2000,"flip_timestamps":[],"response_ends_trial":false,"number_of_apertures":2,"number_of_dots":[58,100],"number_of_sets":1,"coherent_direction":[143,36],"coherence":1,"opposite_coherence":0,"dot_radius":2,"dot_side_length":1,"dot_life":-1,"move_distance":1,"aperture_width":300,"aperture_height":300,"dot_color":["white","black"],"dot_shape":"circle","background_color":"#AAA","RDK_type":3,"aperture_type":2,"reinsert_type":2,"frame_rate":16.60330578512397,"frame_rate_array":[1,16,16,15,17,17,17,17,17,17,16,17,17,16,17,17,17,17,17,17,18,17,17,15,17,16,16,17,18,17,17,18,15,17,15,16,18,17,17,17,17,17,16,17,17,17,17,17,17,17,17,18,15,17,17,17,17,17,16,17,17,17,17,17,18,15,16,16,17,17,17,16,16,17,17,17,17,17,16,16,17,17,17,16,17,17,17,17,16,17,17,16,16,16,17,17,17,17,16,17,17,17,17,18,16,16,17,17,16,17,17,16,17,17,17,17,17,17,17,16,16],"number_of_frames":121,"aperture_center_x":960,"aperture_center_y":540,"fixation_cross":true,"fixation_cross_width":15,"fixation_cross_height":15,"fixation_cross_color":"#111","fixation_cross_thickness":1,"border":true,"border_thickness":2,"border_color":"transparent","canvas_width":1920,"canvas_height":1080,"trial_type":"rdk","trial_index":47,"plugin_version":"2.0.0","time_elapsed":248869,"phase":"practice","target_direction":36,"distractor_direction":143},{"rt":11793,"stimulus":"\n        <div class=\"response-container\">\n          <div class=\"response-instruction\">\n            <p>rotate the bar by using the left and right arrow keys.</p>\n            <p>when you are determined, press the Enter key.</p>\n          </div>\n          <div class=\"response-circle\">\n            <div class=\"response-fixation\"></div>\n            <div id=\"bar\" class=\"rotating-bar\"></div>\n          </div>\n        </div>\n      ","response":"Enter","trial_type":"html-keyboard-response","trial_index":48,"plugin_version":"2.1.0","time_elapsed":260663,"random_initial_angle":292,"response_angle_css":401,"response_angle_rdk":49,"angular_error_target":13,"angular_error_distractor":-94,"target_direction":36,"target_group":"black","reward_points":7},{"rt":null,"stimulus":"\n          <p style=\"color: #00FF00;\">Your reward: 7 points</p>\n        ","response":null,"trial_type":"html-keyboard-response","trial_index":49,"plugin_version":"2.1.0","time_elapsed":262671},{"rt":null,"stimulus":"<div class=\"fixation\" style=\"font-size: 60px;\">+</div>","response":null,"trial_type":"html-keyboard-response","trial_index":50,"plugin_version":"2.1.0","time_elapsed":263681},{"target_group":"white","target_index":0,"condition_label":"practice","rt":-1,"response":"","correct":false,"choices":"ALL_KEYS","correct_choice":["a"],"trial_duration":2000,"flip_timestamps":[],"response_ends_trial":false,"number_of_apertures":2,"number_of_dots":[100,88],"number_of_sets":1,"coherent_direction":[226,32],"coherence":1,"opposite_coherence":0,"dot_radius":2,"dot_side_length":1,"dot_life":-1,"move_distance":1,"aperture_width":300,"aperture_height":300,"dot_color":["white","black"],"dot_shape":"circle","background_color":"#AAA","RDK_type":3,"aperture_type":2,"reinsert_type":2,"frame_rate":16.675,"frame_rate_array":[7,17,17,17,16,17,17,17,16,17,17,17,17,17,17,17,16,17,17,17,17,17,17,17,17,17,17,17,17,16,17,17,16,17,17,17,16,16,17,17,17,17,17,17,16,16,17,17,16,16,17,17,17,17,17,17,17,17,17,17,16,17,16,16,16,17,17,17,17,16,18,16,17,17,17,16,17,17,17,17,17,17,16,17,17,16,16,17,17,17,17,17,17,16,17,17,16,17,16,17,17,16,17,17,16,17,18,16,17,16,17,17,17,17,16,17,17,17,16,16],"number_of_frames":120,"aperture_center_x":960,"aperture_center_y":540,"fixation_cross":true,"fixation_cross_width":15,"fixation_cross_height":15,"fixation_cross_color":"#111","fixation_cross_thickness":1,"border":true,"border_thickness":2,"border_color":"transparent","canvas_width":1920,"canvas_height":1080,"trial_type":"rdk","trial_index":51,"plugin_version":"2.0.0","time_elapsed":265688,"phase":"practice","target_direction":226,"distractor_direction":32},{"rt":6328,"stimulus":"\n        <div class=\"response-container\">\n          <div class=\"response-instruction\">\n            <p>rotate the bar by using the left and right arrow keys.</p>\n            <p>when you are determined, press the Enter key.</p>\n          </div>\n          <div class=\"response-circle\">\n            <div class=\"response-fixation\"></div>\n            <div id=\"bar\" class=\"rotating-bar\"></div>\n          </div>\n        </div>\n      ","response":"Enter","trial_type":"html-keyboard-response","trial_index":52,"plugin_version":"2.1.0","time_elapsed":272016,"random_initial_angle":311,"response_angle_css":397,"response_angle_rdk":53,"angular_error_target":-173,"angular_error_distractor":21,"target_direction":226,"target_group":"white","reward_points":0},{"rt":null,"stimulus":"\n          <p style=\"color: #FF3333;\">Your reward: 0 points</p>\n        ","response":null,"trial_type":"html-keyboard-response","trial_index":53,"plugin_version":"2.1.0","time_elapsed":274025},{"rt":null,"stimulus":"<div class=\"fixation\" style=\"font-size: 60px;\">+</div>","response":null,"trial_type":"html-keyboard-response","trial_index":54,"plugin_version":"2.1.0","time_elapsed":275038},{"target_group":"black","target_index":1,"condition_label":"practice","rt":-1,"response":"","correct":false,"choices":"ALL_KEYS","correct_choice":["a"],"trial_duration":2000,"flip_timestamps":[],"response_ends_trial":false,"number_of_apertures":2,"number_of_dots":[87,100],"number_of_sets":1,"coherent_direction":[118,22],"coherence":1,"opposite_coherence":0,"dot_radius":2,"dot_side_length":1,"dot_life":-1,"move_distance":1,"aperture_width":300,"aperture_height":300,"dot_color":["white","black"],"dot_shape":"circle","background_color":"#AAA","RDK_type":3,"aperture_type":2,"reinsert_type":2,"frame_rate":16.675,"frame_rate_array":[9,17,17,17,16,17,17,17,17,17,16,17,16,17,16,17,17,17,17,15,17,17,17,17,17,17,17,17,17,17,17,17,17,16,17,16,17,17,17,17,17,17,17,17,16,17,17,17,16,17,16,16,17,16,17,17,17,17,16,16,17,17,17,17,17,17,17,17,17,16,17,17,17,16,17,16,17,16,17,16,17,17,16,17,17,17,16,17,17,16,17,16,17,17,16,16,17,17,17,17,17,17,17,17,17,16,17,17,17,16,16,17,17,17,16,17,17,16,17,17],"number_of_frames":120,"aperture_center_x":960,"aperture_center_y":540,"fixation_cross":true,"fixation_cross_width":15,"fixation_cross_height":15,"fixation_cross_color":"#111","fixation_cross_thickness":1,"border":true,"border_thickness":2,"border_color":"transparent","canvas_width":1920,"canvas_height":1080,"trial_type":"rdk","trial_index":55,"plugin_version":"2.0.0","time_elapsed":277049,"phase":"practice","target_direction":22,"distractor_direction":118},{"rt":5853,"stimulus":"\n        <div class=\"response-container\">\n          <div class=\"response-instruction\">\n            <p>rotate the bar by using the left and right arrow keys.</p>\n            <p>when you are determined, press the Enter key.</p>\n          </div>\n          <div class=\"response-circle\">\n            <div class=\"response-fixation\"></div>\n            <div id=\"bar\" class=\"rotating-bar\"></div>\n          </div>\n        </div>\n      ","response":"Enter","trial_type":"html-keyboard-response","trial_index":56,"plugin_version":"2.1.0","time_elapsed":282904,"random_initial_angle":96,"response_angle_css":89,"response_angle_rdk":1,"angular_error_target":-21,"angular_error_distractor":-117,"target_direction":22,"target_group":"black","reward_points":5},{"rt":null,"stimulus":"\n          <p style=\"color: #00FF00;\">Your reward: 5 points</p>\n        ","response":null,"trial_type":"html-keyboard-response","trial_index":57,"plugin_version":"2.1.0","time_elapsed":284913},{"rt":null,"stimulus":"<div class=\"fixation\" style=\"font-size: 60px;\">+</div>","response":null,"trial_type":"html-keyboard-response","trial_index":58,"plugin_version":"2.1.0","time_elapsed":285925},{"target_group":"white","target_index":0,"condition_label":"practice","rt":-1,"response":"","correct":false,"choices":"ALL_KEYS","correct_choice":["a"],"trial_duration":2000,"flip_timestamps":[],"response_ends_trial":false,"number_of_apertures":2,"number_of_dots":[100,99],"number_of_sets":1,"coherent_direction":[101,358],"coherence":1,"opposite_coherence":0,"dot_radius":2,"dot_side_length":1,"dot_life":-1,"move_distance":1,"aperture_width":300,"aperture_height":300,"dot_color":["white","black"],"dot_shape":"circle","background_color":"#AAA","RDK_type":3,"aperture_type":2,"reinsert_type":2,"frame_rate":16.733333333333334,"frame_rate_array":[17,16,17,17,17,18,15,17,16,17,17,16,17,17,17,17,17,17,17,17,16,16,16,17,17,17,17,17,15,17,17,17,17,16,17,17,17,17,17,17,17,17,17,17,17,17,17,17,19,16,15,17,16,17,16,17,17,17,18,16,15,17,17,17,16,18,16,17,17,17,16,18,16,17,17,16,17,17,17,17,16,17,17,16,17,17,17,16,17,18,16,16,16,17,19,16,17,16,16,17,17,16,17,16,17,16,17,17,17,17,16,17,18,15,17,17,16,17,16,16],"number_of_frames":120,"aperture_center_x":960,"aperture_center_y":540,"fixation_cross":true,"fixation_cross_width":15,"fixation_cross_height":15,"fixation_cross_color":"#111","fixation_cross_thickness":1,"border":true,"border_thickness":2,"border_color":"transparent","canvas_width":1920,"canvas_height":1080,"trial_type":"rdk","trial_index":59,"plugin_version":"2.0.0","time_elapsed":287934,"phase":"practice","target_direction":101,"distractor_direction":358},{"rt":9658,"stimulus":"\n        <div class=\"response-container\">\n          <div class=\"response-instruction\">\n            <p>rotate the bar by using the left and right arrow keys.</p>\n            <p>when you are determined, press the Enter key.</p>\n          </div>\n          <div class=\"response-circle\">\n            <div class=\"response-fixation\"></div>\n            <div id=\"bar\" class=\"rotating-bar\"></div>\n          </div>\n        </div>\n      ","response":"Enter","trial_type":"html-keyboard-response","trial_index":60,"plugin_version":"2.1.0","time_elapsed":297593,"random_initial_angle":198,"response_angle_css":452,"response_angle_rdk":358,"angular_error_target":-103,"angular_error_distractor":0,"target_direction":101,"target_group":"white","reward_points":0},{"rt":null,"stimulus":"\n          <p style=\"color: #FF3333;\">Your reward: 0 points</p>\n        ","response":null,"trial_type":"html-keyboard-response","trial_index":61,"plugin_version":"2.1.0","time_elapsed":299601},{"rt":null,"stimulus":"<div class=\"fixation\" style=\"font-size: 60px;\">+</div>","response":null,"trial_type":"html-keyboard-response","trial_index":62,"plugin_version":"2.1.0","time_elapsed":300611},{"target_group":"black","target_index":1,"condition_label":"practice","rt":-1,"response":"","correct":false,"choices":"ALL_KEYS","correct_choice":["a"],"trial_duration":2000,"flip_timestamps":[],"response_ends_trial":false,"number_of_apertures":2,"number_of_dots":[83,100],"number_of_sets":1,"coherent_direction":[39,201],"coherence":1,"opposite_coherence":0,"dot_radius":2,"dot_side_length":1,"dot_life":-1,"move_distance":1,"aperture_width":300,"aperture_height":300,"dot_color":["white","black"],"dot_shape":"circle","background_color":"#AAA","RDK_type":3,"aperture_type":2,"reinsert_type":2,"frame_rate":16.666666666666668,"frame_rate_array":[5,15,17,17,17,17,16,16,16,18,17,17,17,16,17,17,16,17,17,16,17,17,17,16,17,17,15,17,17,17,17,16,16,16,18,17,17,17,16,17,17,17,16,18,16,17,17,16,17,16,17,17,18,16,17,17,17,16,17,17,17,17,17,17,15,17,18,17,17,17,17,17,16,17,16,17,17,17,16,18,16,16,17,17,17,17,17,16,18,16,17,17,17,16,17,17,15,17,17,17,17,17,16,17,17,17,17,17,17,16,17,17,17,16,17,17,17,17,17,18],"number_of_frames":120,"aperture_center_x":960,"aperture_center_y":540,"fixation_cross":true,"fixation_cross_width":15,"fixation_cross_height":15,"fixation_cross_color":"#111","fixation_cross_thickness":1,"border":true,"border_thickness":2,"border_color":"transparent","canvas_width":1920,"canvas_height":1080,"trial_type":"rdk","trial_index":63,"plugin_version":"2.0.0","time_elapsed":302616,"phase":"practice","target_direction":201,"distractor_direction":39},{"rt":1759,"stimulus":"\n        <div class=\"response-container\">\n          <div class=\"response-instruction\">\n            <p>rotate the bar by using the left and right arrow keys.</p>\n            <p>when you are determined, press the Enter key.</p>\n          </div>\n          <div class=\"response-circle\">\n            <div class=\"response-fixation\"></div>\n            <div id=\"bar\" class=\"rotating-bar\"></div>\n          </div>\n        </div>\n      ","response":"Enter","trial_type":"html-keyboard-response","trial_index":64,"plugin_version":"2.1.0","time_elapsed":304376,"random_initial_angle":222,"response_angle_css":222,"response_angle_rdk":228,"angular_error_target":27,"angular_error_distractor":-171,"target_direction":201,"target_group":"black","reward_points":4},{"rt":null,"stimulus":"\n          <p style=\"color: #00FF00;\">Your reward: 4 points</p>\n        ","response":null,"trial_type":"html-keyboard-response","trial_index":65,"plugin_version":"2.1.0","time_elapsed":306391},{"rt":4928,"stimulus":"\n        <div class=\"instructions-container\">\n          <h2>End of Practice</h2>\n          <p>You have completed the practice trials.</p>\n          <p>Press <strong>Enter</strong> key to begin the main experiment.</p>\n        </div>\n      ","response":"Enter","trial_type":"html-keyboard-response","trial_index":66,"plugin_version":"2.1.0","time_elapsed":311320},{"rt":null,"stimulus":"<div class=\"fixation\" style=\"font-size: 60px;\">+</div>","response":null,"trial_type":"html-keyboard-response","trial_index":67,"plugin_version":"2.1.0","time_elapsed":312331},{"phase":"learning-awareness","target_group":"white","condition_label":"W_H_vs_B_L_rep16","target_direction":23,"distractor_direction":256,"session_rotation":339,"rt":-1,"response":"","correct":false,"choices":"ALL_KEYS","correct_choice":["a"],"trial_duration":2000,"flip_timestamps":[],"response_ends_trial":false,"number_of_apertures":200,"number_of_dots":[1,1,1,1,1,1,1,1,1,1,1,1,1,1,1,1,1,1,1,1,1,1,1,1,1,1,1,1,1,1,1,1,1,1,1,1,1,1,1,1,1,1,1,1,1,1,1,1,1,1,1,1,1,1,1,1,1,1,1,1,1,1,1,1,1,1,1,1,1,1,1,1,1,1,1,1,1,1,1,1,1,1,1,1,1,1,1,1,1,1,1,1,1,1,1,1,1,1,1,1,1,1,1,1,1,1,1,1,1,1,1,1,1,1,1,1,1,1,1,1,1,1,1,1,1,1,1,1,1,1,1,1,1,1,1,1,1,1,1,1,1,1,1,1,1,1,1,1,1,1,1,1,1,1,1,1,1,1,1,1,1,1,1,1,1,1,1,1,1,1,1,1,1,1,1,1,1,1,1,1,1,1,1,1,1,1,1,1,1,1,1,1,1,1,1,1,1,1,1,1],"number_of_sets":1,"coherent_direction":[23,23,256,256,23,23,23,256,256,23,23,23,23,23,256,23,256,256,256,256,256,256,23,256,23,256,23,23,256,256,23,256,23,23,256,23,23,23,256,23,256,23,256,256,256,256,256,256,23,23,23,23,23,256,23,23,23,256,23,256,256,23,256,256,23,23,256,23,23,23,256,256,256,256,256,23,256,256,256,256,23,23,256,23,23,23,23,23,256,23,23,23,256,23,256,23,256,256,256,23,256,256,256,23,23,256,256,23,23,256,23,256,23,23,256,256,23,256,256,256,256,256,256,256,256,256,23,23,256,23,23,256,23,23,256,23,256,256,23,23,256,256,23,23,256,256,23,23,256,256,256,23,23,256,256,256,256,23,23,23,23,23,23,23,256,256,256,256,23,256,23,256,23,23,23,256,256,256,23,23,256,23,256,256,256,23,23,23,23,23,256,23,23,256,256,23,256,23,23,256],"coherence":1,"opposite_coherence":0,"dot_radius":2,"dot_side_length":1,"dot_life":-1,"move_distance":1,"aperture_width":300,"aperture_height":300,"dot_color":["white","white","black","black","white","white","white","black","black","white","white","white","white","white","black","white","black","black","black","black","black","black","white","black","white","black","white","white","black","black","white","black","white","white","black","white","white","white","black","white","black","white","black","black","black","black","black","black","white","white","white","white","white","black","white","white","white","black","white","black","black","white","black","black","white","white","black","white","white","white","black","black","black","black","black","white","black","black","black","black","white","white","black","white","white","white","white","white","black","white","white","white","black","white","black","white","black","black","black","white","black","black","black","white","white","black","black","white","white","black","white","black","white","white","black","black","white","black","black","black","black","black","black","black","black","black","white","white","black","white","white","black","white","white","black","white","black","black","white","white","black","black","white","white","black","black","white","white","black","black","black","white","white","black","black","black","black","white","white","white","white","white","white","white","black","black","black","black","white","black","white","black","white","white","white","black","black","black","white","white","black","white","black","black","black","white","white","white","white","white","black","white","white","black","black","white","black","white","white","black"],"dot_shape":"circle","background_color":"#AAA","RDK_type":3,"aperture_type":2,"reinsert_type":2,"frame_rate":16.636363636363637,"frame_rate_array":[8,18,17,16,17,16,17,16,17,17,17,16,17,18,16,16,17,17,16,16,18,17,17,17,16,17,15,17,17,17,16,17,17,17,18,17,17,16,17,17,17,16,17,16,16,17,17,16,17,17,16,17,17,16,17,16,18,17,15,17,17,17,17,17,18,16,17,17,16,18,16,17,17,16,17,17,17,17,17,17,16,16,17,17,16,18,16,17,17,15,17,18,17,15,17,17,17,17,17,15,17,17,17,17,16,16,17,17,16,17,17,17,16,17,17,16,17,16,17,16,16],"number_of_frames":121,"aperture_center_x":960,"aperture_center_y":540,"fixation_cross":true,"fixation_cross_width":15,"fixation_cross_height":15,"fixation_cross_color":"#111","fixation_cross_thickness":1,"border":true,"border_thickness":2,"border_color":"transparent","canvas_width":1920,"canvas_height":1080,"trial_type":"rdk","trial_index":68,"plugin_version":"2.0.0","time_elapsed":314343},{"rt":6377,"stimulus":"\n        <div class=\"response-container\">\n          <div class=\"response-instruction\">\n            <p>rotate the bar by using the left and right arrow keys.</p>\n            <p>when you are determined, press the Enter key.</p>\n          </div>\n          <div class=\"response-circle\">\n            <div class=\"response-fixation\"></div>\n            <div id=\"bar\" class=\"rotating-bar\"></div>\n          </div>\n        </div>\n      ","response":"Enter","trial_type":"html-keyboard-response","trial_index":69,"plugin_version":"2.1.0","time_elapsed":320720,"random_initial_angle":154,"response_angle_css":240,"response_angle_rdk":210,"angular_error_target":-173,"angular_error_distractor":-46,"target_direction":23,"target_group":"white","reward_points":0},{"rt":null,"stimulus":"\n          <p style=\"color: #FF3333;\">Your reward: 0 points</p>\n        ","response":null,"trial_type":"html-keyboard-response","trial_index":70,"plugin_version":"2.1.0","time_elapsed":322735},{"rt":null,"stimulus":"<div class=\"fixation\" style=\"font-size: 60px;\">+</div>","response":null,"trial_type":"html-keyboard-response","trial_index":71,"plugin_version":"2.1.0","time_elapsed":323750},{"phase":"learning-awareness","target_group":"white","condition_label":"W_H_vs_B_L_rep24","target_direction":7,"distractor_direction":262,"session_rotation":339,"rt":-1,"response":"","correct":false,"choices":"ALL_KEYS","correct_choice":["a"],"trial_duration":2000,"flip_timestamps":[],"response_ends_trial":false,"number_of_apertures":200,"number_of_dots":[1,1,1,1,1,1,1,1,1,1,1,1,1,1,1,1,1,1,1,1,1,1,1,1,1,1,1,1,1,1,1,1,1,1,1,1,1,1,1,1,1,1,1,1,1,1,1,1,1,1,1,1,1,1,1,1,1,1,1,1,1,1,1,1,1,1,1,1,1,1,1,1,1,1,1,1,1,1,1,1,1,1,1,1,1,1,1,1,1,1,1,1,1,1,1,1,1,1,1,1,1,1,1,1,1,1,1,1,1,1,1,1,1,1,1,1,1,1,1,1,1,1,1,1,1,1,1,1,1,1,1,1,1,1,1,1,1,1,1,1,1,1,1,1,1,1,1,1,1,1,1,1,1,1,1,1,1,1,1,1,1,1,1,1,1,1,1,1,1,1,1,1,1,1,1,1,1,1,1,1,1,1,1,1,1,1,1,1,1,1,1,1,1,1,1,1,1,1,1,1],"number_of_sets":1,"coherent_direction":[262,262,7,7,7,262,262,262,7,262,7,7,262,7,262,7,7,7,262,7,7,262,262,262,262,7,7,262,7,7,262,262,262,262,262,262,7,7,262,7,7,262,262,262,7,7,262,7,262,262,262,262,262,7,262,262,7,262,7,7,262,262,7,262,7,262,262,7,262,262,262,262,262,7,7,262,7,7,7,7,262,7,262,7,7,7,262,7,7,7,262,262,7,7,262,7,262,262,7,7,7,7,7,7,262,7,7,262,7,262,262,262,262,7,7,262,262,262,262,262,7,7,7,7,262,7,7,7,262,7,262,7,262,262,7,7,7,262,262,7,7,7,7,7,7,262,262,262,7,262,262,7,262,262,262,262,7,7,262,7,262,7,7,7,7,7,262,262,7,262,7,7,262,262,262,7,7,262,262,7,7,262,262,262,7,7,262,7,7,262,262,262,7,7,262,262,7,262,7,262],"coherence":1,"opposite_coherence":0,"dot_radius":2,"dot_side_length":1,"dot_life":-1,"move_distance":1,"aperture_width":300,"aperture_height":300,"dot_color":["black","black","white","white","white","black","black","black","white","black","white","white","black","white","black","white","white","white","black","white","white","black","black","black","black","white","white","black","white","white","black","black","black","black","black","black","white","white","black","white","white","black","black","black","white","white","black","white","black","black","black","black","black","white","black","black","white","black","white","white","black","black","white","black","white","black","black","white","black","black","black","black","black","white","white","black","white","white","white","white","black","white","black","white","white","white","black","white","white","white","black","black","white","white","black","white","black","black","white","white","white","white","white","white","black","white","white","black","white","black","black","black","black","white","white","black","black","black","black","black","white","white","white","white","black","white","white","white","black","white","black","white","black","black","white","white","white","black","black","white","white","white","white","white","white","black","black","black","white","black","black","white","black","black","black","black","white","white","black","white","black","white","white","white","white","white","black","black","white","black","white","white","black","black","black","white","white","black","black","white","white","black","black","black","white","white","black","white","white","black","black","black","white","white","black","black","white","black","white","black"],"dot_shape":"circle","background_color":"#AAA","RDK_type":3,"aperture_type":2,"reinsert_type":2,"frame_rate":16.628099173553718,"frame_rate_array":[1,17,17,17,17,16,17,17,17,17,16,18,17,16,16,17,17,16,17,16,17,18,17,16,16,17,17,18,16,18,16,18,16,17,17,17,17,14,18,18,17,16,16,17,17,16,17,17,17,16,17,17,17,16,17,17,15,17,17,17,17,17,16,17,18,16,17,17,15,17,17,16,19,17,16,17,16,17,17,16,17,17,16,18,16,17,16,17,17,16,16,17,18,17,16,17,17,17,17,17,14,17,17,17,18,16,17,17,17,16,17,17,18,15,18,17,17,16,17,15,18],"number_of_frames":121,"aperture_center_x":960,"aperture_center_y":540,"fixation_cross":true,"fixation_cross_width":15,"fixation_cross_height":15,"fixation_cross_color":"#111","fixation_cross_thickness":1,"border":true,"border_thickness":2,"border_color":"transparent","canvas_width":1920,"canvas_height":1080,"trial_type":"rdk","trial_index":72,"plugin_version":"2.0.0","time_elapsed":325754},{"rt":7444,"stimulus":"\n        <div class=\"response-container\">\n          <div class=\"response-instruction\">\n            <p>rotate the bar by using the left and right arrow keys.</p>\n            <p>when you are determined, press the Enter key.</p>\n          </div>\n          <div class=\"response-circle\">\n            <div class=\"response-fixation\"></div>\n            <div id=\"bar\" class=\"rotating-bar\"></div>\n          </div>\n        </div>\n      ","response":"Enter","trial_type":"html-keyboard-response","trial_index":73,"plugin_version":"2.1.0","time_elapsed":333199,"random_initial_angle":295,"response_angle_css":218,"response_angle_rdk":232,"angular_error_target":-135,"angular_error_distractor":-30,"target_direction":7,"target_group":"white","reward_points":0},{"rt":null,"stimulus":"\n          <p style=\"color: #FF3333;\">Your reward: 0 points</p>\n        ","response":null,"trial_type":"html-keyboard-response","trial_index":74,"plugin_version":"2.1.0","time_elapsed":335207},{"rt":null,"stimulus":"<div class=\"fixation\" style=\"font-size: 60px;\">+</div>","response":null,"trial_type":"html-keyboard-response","trial_index":75,"plugin_version":"2.1.0","time_elapsed":336221},{"phase":"learning-awareness","target_group":"white","condition_label":"W_H_vs_B_L_rep13","target_direction":14,"distractor_direction":254,"session_rotation":339,"rt":-1,"response":"","correct":false,"choices":"ALL_KEYS","correct_choice":["a"],"trial_duration":2000,"flip_timestamps":[],"response_ends_trial":false,"number_of_apertures":200,"number_of_dots":[1,1,1,1,1,1,1,1,1,1,1,1,1,1,1,1,1,1,1,1,1,1,1,1,1,1,1,1,1,1,1,1,1,1,1,1,1,1,1,1,1,1,1,1,1,1,1,1,1,1,1,1,1,1,1,1,1,1,1,1,1,1,1,1,1,1,1,1,1,1,1,1,1,1,1,1,1,1,1,1,1,1,1,1,1,1,1,1,1,1,1,1,1,1,1,1,1,1,1,1,1,1,1,1,1,1,1,1,1,1,1,1,1,1,1,1,1,1,1,1,1,1,1,1,1,1,1,1,1,1,1,1,1,1,1,1,1,1,1,1,1,1,1,1,1,1,1,1,1,1,1,1,1,1,1,1,1,1,1,1,1,1,1,1,1,1,1,1,1,1,1,1,1,1,1,1,1,1,1,1,1,1,1,1,1,1,1,1,1,1,1,1,1,1,1,1,1,1,1,1],"number_of_sets":1,"coherent_direction":[254,254,254,254,14,254,14,14,254,254,254,254,254,14,14,14,14,14,14,14,254,14,14,254,14,14,14,254,254,254,14,254,254,254,254,14,254,254,14,254,14,254,254,254,14,14,14,14,254,254,14,254,254,14,14,254,14,254,254,14,14,14,14,254,14,14,254,254,14,14,254,14,254,14,14,14,14,14,14,254,14,14,254,254,254,14,254,14,254,254,254,254,14,254,14,254,14,14,254,14,254,14,14,14,14,254,14,14,14,254,254,254,14,14,254,14,254,14,254,14,14,254,14,254,254,254,14,14,254,254,254,14,254,254,14,254,14,14,254,14,14,14,14,254,14,14,14,254,14,254,254,14,14,254,254,254,254,254,254,254,254,14,14,254,254,254,14,254,14,14,254,254,14,14,254,14,254,14,14,254,254,14,254,14,254,14,254,254,254,254,14,254,254,14,14,14,14,254,254,14],"coherence":1,"opposite_coherence":0,"dot_radius":2,"dot_side_length":1,"dot_life":-1,"move_distance":1,"aperture_width":300,"aperture_height":300,"dot_color":["black","black","black","black","white","black","white","white","black","black","black","black","black","white","white","white","white","white","white","white","black","white","white","black","white","white","white","black","black","black","white","black","black","black","black","white","black","black","white","black","white","black","black","black","white","white","white","white","black","black","white","black","black","white","white","black","white","black","black","white","white","white","white","black","white","white","black","black","white","white","black","white","black","white","white","white","white","white","white","black","white","white","black","black","black","white","black","white","black","black","black","black","white","black","white","black","white","white","black","white","black","white","white","white","white","black","white","white","white","black","black","black","white","white","black","white","black","white","black","white","white","black","white","black","black","black","white","white","black","black","black","white","black","black","white","black","white","white","black","white","white","white","white","black","white","white","white","black","white","black","black","white","white","black","black","black","black","black","black","black","black","white","white","black","black","black","white","black","white","white","black","black","white","white","black","white","black","white","white","black","black","white","black","white","black","white","black","black","black","black","white","black","black","white","white","white","white","black","black","white"],"dot_shape":"circle","background_color":"#AAA","RDK_type":3,"aperture_type":2,"reinsert_type":2,"frame_rate":16.65289256198347,"frame_rate_array":[5,17,17,16,16,17,17,16,17,16,17,17,16,16,17,17,17,16,15,18,17,18,16,16,17,17,18,16,17,17,15,17,17,17,17,17,17,16,18,17,16,17,17,17,16,17,17,17,16,16,18,17,17,17,17,17,16,16,18,16,17,16,17,17,17,17,17,17,16,17,17,17,16,18,17,15,18,17,16,16,15,17,18,17,16,17,16,17,16,17,17,17,17,17,17,17,17,17,16,17,17,16,16,18,17,17,16,18,17,16,17,15,18,17,17,17,17,16,17,17,17],"number_of_frames":121,"aperture_center_x":960,"aperture_center_y":540,"fixation_cross":true,"fixation_cross_width":15,"fixation_cross_height":15,"fixation_cross_color":"#111","fixation_cross_thickness":1,"border":true,"border_thickness":2,"border_color":"transparent","canvas_width":1920,"canvas_height":1080,"trial_type":"rdk","trial_index":76,"plugin_version":"2.0.0","time_elapsed":338229},{"rt":1850,"stimulus":"\n        <div class=\"response-container\">\n          <div class=\"response-instruction\">\n            <p>rotate the bar by using the left and right arrow keys.</p>\n            <p>when you are determined, press the Enter key.</p>\n          </div>\n          <div class=\"response-circle\">\n            <div class=\"response-fixation\"></div>\n            <div id=\"bar\" class=\"rotating-bar\"></div>\n          </div>\n        </div>\n      ","response":"Enter","trial_type":"html-keyboard-response","trial_index":77,"plugin_version":"2.1.0","time_elapsed":340080,"random_initial_angle":175,"response_angle_css":175,"response_angle_rdk":275,"angular_error_target":-99,"angular_error_distractor":21,"target_direction":14,"target_group":"white","reward_points":0},{"rt":null,"stimulus":"\n          <p style=\"color: #FF3333;\">Your reward: 0 points</p>\n        ","response":null,"trial_type":"html-keyboard-response","trial_index":78,"plugin_version":"2.1.0","time_elapsed":342092},{"rt":null,"stimulus":"<div class=\"fixation\" style=\"font-size: 60px;\">+</div>","response":null,"trial_type":"html-keyboard-response","trial_index":79,"plugin_version":"2.1.0","time_elapsed":343095},{"phase":"learning-awareness","target_group":"black","condition_label":"B_H_vs_W_L_rep1","target_direction":79,"distractor_direction":199,"session_rotation":339,"rt":-1,"response":"","correct":false,"choices":"ALL_KEYS","correct_choice":["a"],"trial_duration":2000,"flip_timestamps":[],"response_ends_trial":false,"number_of_apertures":200,"number_of_dots":[1,1,1,1,1,1,1,1,1,1,1,1,1,1,1,1,1,1,1,1,1,1,1,1,1,1,1,1,1,1,1,1,1,1,1,1,1,1,1,1,1,1,1,1,1,1,1,1,1,1,1,1,1,1,1,1,1,1,1,1,1,1,1,1,1,1,1,1,1,1,1,1,1,1,1,1,1,1,1,1,1,1,1,1,1,1,1,1,1,1,1,1,1,1,1,1,1,1,1,1,1,1,1,1,1,1,1,1,1,1,1,1,1,1,1,1,1,1,1,1,1,1,1,1,1,1,1,1,1,1,1,1,1,1,1,1,1,1,1,1,1,1,1,1,1,1,1,1,1,1,1,1,1,1,1,1,1,1,1,1,1,1,1,1,1,1,1,1,1,1,1,1,1,1,1,1,1,1,1,1,1,1,1,1,1,1,1,1,1,1,1,1,1,1,1,1,1,1,1,1],"number_of_sets":1,"coherent_direction":[199,199,79,199,199,199,199,199,199,199,199,79,199,79,79,79,199,79,199,199,199,199,79,199,79,199,79,199,79,79,79,79,79,199,199,199,79,199,79,199,199,199,79,79,199,79,79,79,79,79,199,79,79,199,199,79,199,79,79,79,199,199,199,199,199,79,79,79,79,199,79,199,199,79,199,79,199,79,199,79,199,199,199,79,79,79,199,79,199,199,199,199,199,79,79,79,79,199,79,199,79,79,199,199,79,199,79,199,79,199,199,199,79,79,79,199,79,79,199,79,79,199,79,79,199,79,79,199,79,79,79,199,199,199,79,79,79,79,199,199,79,79,79,79,199,79,79,79,199,79,79,199,199,79,79,199,79,79,199,199,199,199,79,199,199,199,79,199,199,199,79,199,199,199,199,199,199,199,79,79,79,79,199,199,79,199,79,79,199,79,79,79,199,199,199,79,79,199,79,79],"coherence":1,"opposite_coherence":0,"dot_radius":2,"dot_side_length":1,"dot_life":-1,"move_distance":1,"aperture_width":300,"aperture_height":300,"dot_color":["white","white","black","white","white","white","white","white","white","white","white","black","white","black","black","black","white","black","white","white","white","white","black","white","black","white","black","white","black","black","black","black","black","white","white","white","black","white","black","white","white","white","black","black","white","black","black","black","black","black","white","black","black","white","white","black","white","black","black","black","white","white","white","white","white","black","black","black","black","white","black","white","white","black","white","black","white","black","white","black","white","white","white","black","black","black","white","black","white","white","white","white","white","black","black","black","black","white","black","white","black","black","white","white","black","white","black","white","black","white","white","white","black","black","black","white","black","black","white","black","black","white","black","black","white","black","black","white","black","black","black","white","white","white","black","black","black","black","white","white","black","black","black","black","white","black","black","black","white","black","black","white","white","black","black","white","black","black","white","white","white","white","black","white","white","white","black","white","white","white","black","white","white","white","white","white","white","white","black","black","black","black","white","white","black","white","black","black","white","black","black","black","white","white","white","black","black","white","black","black"],"dot_shape":"circle","background_color":"#AAA","RDK_type":3,"aperture_type":2,"reinsert_type":2,"frame_rate":16.708333333333332,"frame_rate_array":[11,16,17,17,17,17,17,17,16,17,17,17,17,16,17,16,17,17,17,17,16,17,17,17,17,17,17,16,17,17,17,16,16,17,17,17,16,17,17,17,16,17,16,17,17,16,17,16,17,16,17,17,17,17,17,17,17,17,16,17,17,17,17,16,17,17,17,17,17,17,18,16,17,17,16,17,17,15,17,17,16,17,17,18,17,16,17,16,17,16,17,16,17,17,16,18,17,16,17,17,16,17,16,17,17,16,16,17,17,17,18,15,17,17,18,17,17,16,17,17],"number_of_frames":120,"aperture_center_x":960,"aperture_center_y":540,"fixation_cross":true,"fixation_cross_width":15,"fixation_cross_height":15,"fixation_cross_color":"#111","fixation_cross_thickness":1,"border":true,"border_thickness":2,"border_color":"transparent","canvas_width":1920,"canvas_height":1080,"trial_type":"rdk","trial_index":80,"plugin_version":"2.0.0","time_elapsed":345102},{"rt":8758,"stimulus":"\n        <div class=\"response-container\">\n          <div class=\"response-instruction\">\n            <p>rotate the bar by using the left and right arrow keys.</p>\n            <p>when you are determined, press the Enter key.</p>\n          </div>\n          <div class=\"response-circle\">\n            <div class=\"response-fixation\"></div>\n            <div id=\"bar\" class=\"rotating-bar\"></div>\n          </div>\n        </div>\n      ","response":"Enter","trial_type":"html-keyboard-response","trial_index":81,"plugin_version":"2.1.0","time_elapsed":353861,"random_initial_angle":201,"response_angle_css":361,"response_angle_rdk":89,"angular_error_target":10,"angular_error_distractor":-110,"target_direction":79,"target_group":"black","reward_points":8},{"rt":null,"stimulus":"\n          <p style=\"color: #00FF00;\">Your reward: 8 points</p>\n        ","response":null,"trial_type":"html-keyboard-response","trial_index":82,"plugin_version":"2.1.0","time_elapsed":355875},{"rt":null,"stimulus":"<div class=\"fixation\" style=\"font-size: 60px;\">+</div>","response":null,"trial_type":"html-keyboard-response","trial_index":83,"plugin_version":"2.1.0","time_elapsed":356885},{"phase":"learning-awareness","target_group":"black","condition_label":"B_H_vs_W_L_rep12","target_direction":93,"distractor_direction":199,"session_rotation":339,"rt":-1,"response":"","correct":false,"choices":"ALL_KEYS","correct_choice":["a"],"trial_duration":2000,"flip_timestamps":[],"response_ends_trial":false,"number_of_apertures":200,"number_of_dots":[1,1,1,1,1,1,1,1,1,1,1,1,1,1,1,1,1,1,1,1,1,1,1,1,1,1,1,1,1,1,1,1,1,1,1,1,1,1,1,1,1,1,1,1,1,1,1,1,1,1,1,1,1,1,1,1,1,1,1,1,1,1,1,1,1,1,1,1,1,1,1,1,1,1,1,1,1,1,1,1,1,1,1,1,1,1,1,1,1,1,1,1,1,1,1,1,1,1,1,1,1,1,1,1,1,1,1,1,1,1,1,1,1,1,1,1,1,1,1,1,1,1,1,1,1,1,1,1,1,1,1,1,1,1,1,1,1,1,1,1,1,1,1,1,1,1,1,1,1,1,1,1,1,1,1,1,1,1,1,1,1,1,1,1,1,1,1,1,1,1,1,1,1,1,1,1,1,1,1,1,1,1,1,1,1,1,1,1,1,1,1,1,1,1,1,1,1,1,1,1],"number_of_sets":1,"coherent_direction":[199,199,199,199,199,199,93,199,93,199,93,93,93,93,199,199,93,93,93,93,93,93,93,199,93,199,93,199,199,199,199,93,93,199,199,199,93,93,93,199,93,93,199,199,199,199,199,93,199,93,199,93,199,199,199,93,93,199,199,93,199,199,199,93,199,93,93,93,199,93,93,93,199,199,93,199,93,199,93,93,93,93,199,93,93,199,199,93,199,93,93,93,199,93,199,199,199,199,93,199,199,199,199,93,93,93,93,199,199,199,199,93,93,93,199,199,199,93,199,199,93,199,93,93,199,199,93,199,199,93,93,93,93,93,199,199,199,93,199,93,199,93,93,199,93,93,93,93,93,199,93,93,199,199,93,199,199,199,199,199,93,93,199,199,199,93,199,93,93,199,199,199,199,93,199,93,93,93,93,93,93,199,199,199,93,93,199,93,199,199,93,93,199,93,199,93,93,199,93,93],"coherence":1,"opposite_coherence":0,"dot_radius":2,"dot_side_length":1,"dot_life":-1,"move_distance":1,"aperture_width":300,"aperture_height":300,"dot_color":["white","white","white","white","white","white","black","white","black","white","black","black","black","black","white","white","black","black","black","black","black","black","black","white","black","white","black","white","white","white","white","black","black","white","white","white","black","black","black","white","black","black","white","white","white","white","white","black","white","black","white","black","white","white","white","black","black","white","white","black","white","white","white","black","white","black","black","black","white","black","black","black","white","white","black","white","black","white","black","black","black","black","white","black","black","white","white","black","white","black","black","black","white","black","white","white","white","white","black","white","white","white","white","black","black","black","black","white","white","white","white","black","black","black","white","white","white","black","white","white","black","white","black","black","white","white","black","white","white","black","black","black","black","black","white","white","white","black","white","black","white","black","black","white","black","black","black","black","black","white","black","black","white","white","black","white","white","white","white","white","black","black","white","white","white","black","white","black","black","white","white","white","white","black","white","black","black","black","black","black","black","white","white","white","black","black","white","black","white","white","black","black","white","black","white","black","black","white","black","black"],"dot_shape":"circle","background_color":"#AAA","RDK_type":3,"aperture_type":2,"reinsert_type":2,"frame_rate":16.733333333333334,"frame_rate_array":[13,17,17,16,17,17,16,16,17,18,17,16,17,16,16,17,17,17,18,17,17,16,17,16,17,16,17,17,16,16,17,17,17,18,16,17,17,16,18,15,17,17,17,17,17,16,17,16,17,17,17,17,17,16,17,17,16,17,17,17,15,17,17,17,17,17,17,16,17,17,17,15,18,16,17,17,17,17,17,16,16,17,19,16,17,17,17,16,17,16,17,17,17,17,17,16,17,17,17,16,17,17,15,18,17,17,17,17,17,17,16,17,16,17,17,18,17,17,16,17],"number_of_frames":120,"aperture_center_x":960,"aperture_center_y":540,"fixation_cross":true,"fixation_cross_width":15,"fixation_cross_height":15,"fixation_cross_color":"#111","fixation_cross_thickness":1,"border":true,"border_thickness":2,"border_color":"transparent","canvas_width":1920,"canvas_height":1080,"trial_type":"rdk","trial_index":84,"plugin_version":"2.0.0","time_elapsed":358895},{"rt":5414,"stimulus":"\n        <div class=\"response-container\">\n          <div class=\"response-instruction\">\n            <p>rotate the bar by using the left and right arrow keys.</p>\n            <p>when you are determined, press the Enter key.</p>\n          </div>\n          <div class=\"response-circle\">\n            <div class=\"response-fixation\"></div>\n            <div id=\"bar\" class=\"rotating-bar\"></div>\n          </div>\n        </div>\n      ","response":"Enter","trial_type":"html-keyboard-response","trial_index":85,"plugin_version":"2.1.0","time_elapsed":364310,"random_initial_angle":86,"response_angle_css":5,"response_angle_rdk":85,"angular_error_target":-8,"angular_error_distractor":-114,"target_direction":93,"target_group":"black","reward_points":8},{"rt":null,"stimulus":"\n          <p style=\"color: #00FF00;\">Your reward: 8 points</p>\n        ","response":null,"trial_type":"html-keyboard-response","trial_index":86,"plugin_version":"2.1.0","time_elapsed":366325},{"rt":null,"stimulus":"<div class=\"fixation\" style=\"font-size: 60px;\">+</div>","response":null,"trial_type":"html-keyboard-response","trial_index":87,"plugin_version":"2.1.0","time_elapsed":367335},{"phase":"learning-awareness","target_group":"white","condition_label":"W_H_vs_B_L_rep17","target_direction":8,"distractor_direction":256,"session_rotation":339,"rt":-1,"response":"","correct":false,"choices":"ALL_KEYS","correct_choice":["a"],"trial_duration":2000,"flip_timestamps":[],"response_ends_trial":false,"number_of_apertures":200,"number_of_dots":[1,1,1,1,1,1,1,1,1,1,1,1,1,1,1,1,1,1,1,1,1,1,1,1,1,1,1,1,1,1,1,1,1,1,1,1,1,1,1,1,1,1,1,1,1,1,1,1,1,1,1,1,1,1,1,1,1,1,1,1,1,1,1,1,1,1,1,1,1,1,1,1,1,1,1,1,1,1,1,1,1,1,1,1,1,1,1,1,1,1,1,1,1,1,1,1,1,1,1,1,1,1,1,1,1,1,1,1,1,1,1,1,1,1,1,1,1,1,1,1,1,1,1,1,1,1,1,1,1,1,1,1,1,1,1,1,1,1,1,1,1,1,1,1,1,1,1,1,1,1,1,1,1,1,1,1,1,1,1,1,1,1,1,1,1,1,1,1,1,1,1,1,1,1,1,1,1,1,1,1,1,1,1,1,1,1,1,1,1,1,1,1,1,1,1,1,1,1,1,1],"number_of_sets":1,"coherent_direction":[256,8,8,256,8,256,8,8,8,8,8,256,8,8,256,8,256,256,8,256,8,256,8,256,8,8,8,8,256,8,8,8,8,256,8,256,8,256,8,8,256,8,8,256,256,256,8,256,8,256,8,256,256,8,8,8,256,8,8,256,256,256,256,8,256,256,256,8,8,256,256,8,256,8,256,256,8,256,256,8,256,8,8,8,256,256,8,8,8,8,256,256,8,256,256,256,256,256,256,8,8,8,8,256,256,256,8,8,256,256,8,8,256,256,256,8,256,256,256,8,256,8,8,8,256,256,8,8,256,8,256,256,8,8,256,8,8,8,256,8,256,8,8,8,256,8,256,256,256,8,256,8,8,8,8,8,256,8,256,256,8,256,256,256,8,256,256,256,8,256,8,256,256,256,256,8,256,256,256,8,8,8,256,8,256,8,256,256,8,8,8,8,256,256,256,256,8,256,256,8],"coherence":1,"opposite_coherence":0,"dot_radius":2,"dot_side_length":1,"dot_life":-1,"move_distance":1,"aperture_width":300,"aperture_height":300,"dot_color":["black","white","white","black","white","black","white","white","white","white","white","black","white","white","black","white","black","black","white","black","white","black","white","black","white","white","white","white","black","white","white","white","white","black","white","black","white","black","white","white","black","white","white","black","black","black","white","black","white","black","white","black","black","white","white","white","black","white","white","black","black","black","black","white","black","black","black","white","white","black","black","white","black","white","black","black","white","black","black","white","black","white","white","white","black","black","white","white","white","white","black","black","white","black","black","black","black","black","black","white","white","white","white","black","black","black","white","white","black","black","white","white","black","black","black","white","black","black","black","white","black","white","white","white","black","black","white","white","black","white","black","black","white","white","black","white","white","white","black","white","black","white","white","white","black","white","black","black","black","white","black","white","white","white","white","white","black","white","black","black","white","black","black","black","white","black","black","black","white","black","white","black","black","black","black","white","black","black","black","white","white","white","black","white","black","white","black","black","white","white","white","white","black","black","black","black","white","black","black","white"],"dot_shape":"circle","background_color":"#AAA","RDK_type":3,"aperture_type":2,"reinsert_type":2,"frame_rate":16.60330578512397,"frame_rate_array":[3,17,16,17,17,17,15,17,17,18,16,17,17,15,17,17,17,16,17,17,17,17,17,16,17,16,17,17,15,17,17,17,17,16,17,16,17,17,15,17,17,17,17,17,16,16,17,17,17,18,17,17,16,16,17,16,17,17,17,16,18,17,17,16,17,18,15,18,17,17,17,16,16,17,17,16,16,17,17,17,18,17,17,17,16,17,17,17,17,16,16,18,16,17,17,17,17,17,17,16,17,17,16,17,16,16,17,17,16,17,17,18,17,16,17,17,16,16,17,17,15],"number_of_frames":121,"aperture_center_x":960,"aperture_center_y":540,"fixation_cross":true,"fixation_cross_width":15,"fixation_cross_height":15,"fixation_cross_color":"#111","fixation_cross_thickness":1,"border":true,"border_thickness":2,"border_color":"transparent","canvas_width":1920,"canvas_height":1080,"trial_type":"rdk","trial_index":88,"plugin_version":"2.0.0","time_elapsed":369342},{"rt":5224,"stimulus":"\n        <div class=\"response-container\">\n          <div class=\"response-instruction\">\n            <p>rotate the bar by using the left and right arrow keys.</p>\n            <p>when you are determined, press the Enter key.</p>\n          </div>\n          <div class=\"response-circle\">\n            <div class=\"response-fixation\"></div>\n            <div id=\"bar\" class=\"rotating-bar\"></div>\n          </div>\n        </div>\n      ","response":"Enter","trial_type":"html-keyboard-response","trial_index":89,"plugin_version":"2.1.0","time_elapsed":374566,"random_initial_angle":275,"response_angle_css":217,"response_angle_rdk":233,"angular_error_target":-135,"angular_error_distractor":-23,"target_direction":8,"target_group":"white","reward_points":0},{"rt":null,"stimulus":"\n          <p style=\"color: #FF3333;\">Your reward: 0 points</p>\n        ","response":null,"trial_type":"html-keyboard-response","trial_index":90,"plugin_version":"2.1.0","time_elapsed":376572},{"rt":null,"stimulus":"<div class=\"fixation\" style=\"font-size: 60px;\">+</div>","response":null,"trial_type":"html-keyboard-response","trial_index":91,"plugin_version":"2.1.0","time_elapsed":377585},{"phase":"learning-awareness","target_group":"black","condition_label":"B_H_vs_W_L_rep14","target_direction":98,"distractor_direction":196,"session_rotation":339,"rt":-1,"response":"","correct":false,"choices":"ALL_KEYS","correct_choice":["a"],"trial_duration":2000,"flip_timestamps":[],"response_ends_trial":false,"number_of_apertures":200,"number_of_dots":[1,1,1,1,1,1,1,1,1,1,1,1,1,1,1,1,1,1,1,1,1,1,1,1,1,1,1,1,1,1,1,1,1,1,1,1,1,1,1,1,1,1,1,1,1,1,1,1,1,1,1,1,1,1,1,1,1,1,1,1,1,1,1,1,1,1,1,1,1,1,1,1,1,1,1,1,1,1,1,1,1,1,1,1,1,1,1,1,1,1,1,1,1,1,1,1,1,1,1,1,1,1,1,1,1,1,1,1,1,1,1,1,1,1,1,1,1,1,1,1,1,1,1,1,1,1,1,1,1,1,1,1,1,1,1,1,1,1,1,1,1,1,1,1,1,1,1,1,1,1,1,1,1,1,1,1,1,1,1,1,1,1,1,1,1,1,1,1,1,1,1,1,1,1,1,1,1,1,1,1,1,1,1,1,1,1,1,1,1,1,1,1,1,1,1,1,1,1,1,1],"number_of_sets":1,"coherent_direction":[196,98,98,196,98,98,98,98,196,196,98,98,98,196,196,98,98,98,196,196,196,98,98,98,196,98,98,98,196,98,98,98,98,196,98,98,196,98,98,98,196,196,196,196,98,98,98,196,98,196,196,196,196,196,196,196,196,98,98,98,196,196,196,98,98,98,98,196,98,98,196,196,196,98,196,98,98,196,98,196,196,98,98,196,98,196,196,98,196,196,98,98,98,196,196,196,98,98,98,196,196,196,98,98,98,98,98,196,196,98,196,196,196,196,196,196,98,196,98,98,196,98,98,98,196,196,98,98,196,98,196,98,98,196,196,196,98,196,196,196,196,196,196,98,98,196,98,98,98,98,196,98,196,196,196,98,196,196,98,196,98,196,98,196,98,98,98,196,98,196,196,196,98,196,98,98,98,98,196,196,98,196,98,196,196,196,98,98,98,196,196,98,196,196,196,196,98,98,196,196],"coherence":1,"opposite_coherence":0,"dot_radius":2,"dot_side_length":1,"dot_life":-1,"move_distance":1,"aperture_width":300,"aperture_height":300,"dot_color":["white","black","black","white","black","black","black","black","white","white","black","black","black","white","white","black","black","black","white","white","white","black","black","black","white","black","black","black","white","black","black","black","black","white","black","black","white","black","black","black","white","white","white","white","black","black","black","white","black","white","white","white","white","white","white","white","white","black","black","black","white","white","white","black","black","black","black","white","black","black","white","white","white","black","white","black","black","white","black","white","white","black","black","white","black","white","white","black","white","white","black","black","black","white","white","white","black","black","black","white","white","white","black","black","black","black","black","white","white","black","white","white","white","white","white","white","black","white","black","black","white","black","black","black","white","white","black","black","white","black","white","black","black","white","white","white","black","white","white","white","white","white","white","black","black","white","black","black","black","black","white","black","white","white","white","black","white","white","black","white","black","white","black","white","black","black","black","white","black","white","white","white","black","white","black","black","black","black","white","white","black","white","black","white","white","white","black","black","black","white","white","black","white","white","white","white","black","black","white","white"],"dot_shape":"circle","background_color":"#AAA","RDK_type":3,"aperture_type":2,"reinsert_type":2,"frame_rate":16.708333333333332,"frame_rate_array":[13,17,16,17,17,17,17,17,16,16,17,17,17,17,16,17,16,17,17,17,17,17,17,17,17,17,17,16,17,16,17,16,16,18,17,17,17,17,17,17,17,16,17,17,17,17,17,17,17,16,16,18,17,16,17,16,17,17,17,16,16,17,17,16,17,17,17,17,16,17,16,16,17,16,17,17,17,17,17,16,17,18,16,17,16,16,18,15,17,16,17,17,17,17,17,15,17,18,16,15,17,17,17,17,17,15,17,17,18,17,17,16,17,16,17,16,18,17,17,17],"number_of_frames":120,"aperture_center_x":960,"aperture_center_y":540,"fixation_cross":true,"fixation_cross_width":15,"fixation_cross_height":15,"fixation_cross_color":"#111","fixation_cross_thickness":1,"border":true,"border_thickness":2,"border_color":"transparent","canvas_width":1920,"canvas_height":1080,"trial_type":"rdk","trial_index":92,"plugin_version":"2.0.0","time_elapsed":379590},{"rt":4864,"stimulus":"\n        <div class=\"response-container\">\n          <div class=\"response-instruction\">\n            <p>rotate the bar by using the left and right arrow keys.</p>\n            <p>when you are determined, press the Enter key.</p>\n          </div>\n          <div class=\"response-circle\">\n            <div class=\"response-fixation\"></div>\n            <div id=\"bar\" class=\"rotating-bar\"></div>\n          </div>\n        </div>\n      ","response":"Enter","trial_type":"html-keyboard-response","trial_index":93,"plugin_version":"2.1.0","time_elapsed":384454,"random_initial_angle":276,"response_angle_css":362,"response_angle_rdk":88,"angular_error_target":-10,"angular_error_distractor":-108,"target_direction":98,"target_group":"black","reward_points":8},{"rt":null,"stimulus":"\n          <p style=\"color: #00FF00;\">Your reward: 8 points</p>\n        ","response":null,"trial_type":"html-keyboard-response","trial_index":94,"plugin_version":"2.1.0","time_elapsed":386464},{"rt":null,"stimulus":"<div class=\"fixation\" style=\"font-size: 60px;\">+</div>","response":null,"trial_type":"html-keyboard-response","trial_index":95,"plugin_version":"2.1.0","time_elapsed":387475},{"phase":"learning-awareness","target_group":"black","condition_label":"B_H_vs_W_L_rep18","target_direction":80,"distractor_direction":195,"session_rotation":339,"rt":-1,"response":"","correct":false,"choices":"ALL_KEYS","correct_choice":["a"],"trial_duration":2000,"flip_timestamps":[],"response_ends_trial":false,"number_of_apertures":200,"number_of_dots":[1,1,1,1,1,1,1,1,1,1,1,1,1,1,1,1,1,1,1,1,1,1,1,1,1,1,1,1,1,1,1,1,1,1,1,1,1,1,1,1,1,1,1,1,1,1,1,1,1,1,1,1,1,1,1,1,1,1,1,1,1,1,1,1,1,1,1,1,1,1,1,1,1,1,1,1,1,1,1,1,1,1,1,1,1,1,1,1,1,1,1,1,1,1,1,1,1,1,1,1,1,1,1,1,1,1,1,1,1,1,1,1,1,1,1,1,1,1,1,1,1,1,1,1,1,1,1,1,1,1,1,1,1,1,1,1,1,1,1,1,1,1,1,1,1,1,1,1,1,1,1,1,1,1,1,1,1,1,1,1,1,1,1,1,1,1,1,1,1,1,1,1,1,1,1,1,1,1,1,1,1,1,1,1,1,1,1,1,1,1,1,1,1,1,1,1,1,1,1,1],"number_of_sets":1,"coherent_direction":[80,80,80,195,195,195,195,80,195,80,195,80,195,80,195,195,195,195,80,195,80,80,80,195,80,80,195,80,80,80,195,80,80,195,195,195,80,80,80,195,80,80,80,80,195,80,80,195,195,195,80,80,80,80,195,80,195,195,80,195,195,195,80,195,80,195,195,195,80,80,80,195,80,80,80,80,195,80,195,195,80,195,195,80,195,80,80,80,80,195,195,80,195,195,195,195,80,195,80,80,80,195,195,195,80,195,80,195,195,195,195,80,80,80,80,80,195,80,195,195,195,80,80,80,80,195,195,195,195,80,80,80,195,80,80,80,80,195,195,195,195,195,195,80,80,195,195,195,80,195,195,195,195,80,195,195,195,80,195,195,80,195,80,195,80,80,80,195,195,80,80,195,195,80,80,80,195,80,80,195,195,195,195,80,80,195,80,80,195,195,80,195,195,195,80,80,80,195,80,80],"coherence":1,"opposite_coherence":0,"dot_radius":2,"dot_side_length":1,"dot_life":-1,"move_distance":1,"aperture_width":300,"aperture_height":300,"dot_color":["black","black","black","white","white","white","white","black","white","black","white","black","white","black","white","white","white","white","black","white","black","black","black","white","black","black","white","black","black","black","white","black","black","white","white","white","black","black","black","white","black","black","black","black","white","black","black","white","white","white","black","black","black","black","white","black","white","white","black","white","white","white","black","white","black","white","white","white","black","black","black","white","black","black","black","black","white","black","white","white","black","white","white","black","white","black","black","black","black","white","white","black","white","white","white","white","black","white","black","black","black","white","white","white","black","white","black","white","white","white","white","black","black","black","black","black","white","black","white","white","white","black","black","black","black","white","white","white","white","black","black","black","white","black","black","black","black","white","white","white","white","white","white","black","black","white","white","white","black","white","white","white","white","black","white","white","white","black","white","white","black","white","black","white","black","black","black","white","white","black","black","white","white","black","black","black","white","black","black","white","white","white","white","black","black","white","black","black","white","white","black","white","white","white","black","black","black","white","black","black"],"dot_shape":"circle","background_color":"#AAA","RDK_type":3,"aperture_type":2,"reinsert_type":2,"frame_rate":16.578512396694215,"frame_rate_array":[2,17,18,17,17,17,16,15,17,17,17,18,15,17,16,17,17,17,17,16,17,17,16,17,17,17,18,16,17,16,16,17,15,16,17,17,16,17,16,16,17,17,17,17,17,17,17,16,17,17,16,16,18,16,17,16,16,17,17,17,17,15,17,18,16,17,16,18,15,16,17,17,17,17,17,17,17,17,17,17,17,17,17,17,16,17,17,17,16,17,17,16,17,16,16,17,17,16,16,17,17,17,17,17,16,17,17,17,17,17,16,17,16,16,17,16,17,17,17,17,17],"number_of_frames":121,"aperture_center_x":960,"aperture_center_y":540,"fixation_cross":true,"fixation_cross_width":15,"fixation_cross_height":15,"fixation_cross_color":"#111","fixation_cross_thickness":1,"border":true,"border_thickness":2,"border_color":"transparent","canvas_width":1920,"canvas_height":1080,"trial_type":"rdk","trial_index":96,"plugin_version":"2.0.0","time_elapsed":389481},{"rt":8633,"stimulus":"\n        <div class=\"response-container\">\n          <div class=\"response-instruction\">\n            <p>rotate the bar by using the left and right arrow keys.</p>\n            <p>when you are determined, press the Enter key.</p>\n          </div>\n          <div class=\"response-circle\">\n            <div class=\"response-fixation\"></div>\n            <div id=\"bar\" class=\"rotating-bar\"></div>\n          </div>\n        </div>\n      ","response":"Enter","trial_type":"html-keyboard-response","trial_index":97,"plugin_version":"2.1.0","time_elapsed":398114,"random_initial_angle":145,"response_angle_css":-1,"response_angle_rdk":91,"angular_error_target":11,"angular_error_distractor":-104,"target_direction":80,"target_group":"black","reward_points":7},{"rt":null,"stimulus":"\n          <p style=\"color: #00FF00;\">Your reward: 7 points</p>\n        ","response":null,"trial_type":"html-keyboard-response","trial_index":98,"plugin_version":"2.1.0","time_elapsed":400118},{"rt":null,"stimulus":"<div class=\"fixation\" style=\"font-size: 60px;\">+</div>","response":null,"trial_type":"html-keyboard-response","trial_index":99,"plugin_version":"2.1.0","time_elapsed":401130},{"phase":"learning-awareness","target_group":"white","condition_label":"W_H_vs_B_L_rep1","target_direction":13,"distractor_direction":250,"session_rotation":339,"rt":-1,"response":"","correct":false,"choices":"ALL_KEYS","correct_choice":["a"],"trial_duration":2000,"flip_timestamps":[],"response_ends_trial":false,"number_of_apertures":200,"number_of_dots":[1,1,1,1,1,1,1,1,1,1,1,1,1,1,1,1,1,1,1,1,1,1,1,1,1,1,1,1,1,1,1,1,1,1,1,1,1,1,1,1,1,1,1,1,1,1,1,1,1,1,1,1,1,1,1,1,1,1,1,1,1,1,1,1,1,1,1,1,1,1,1,1,1,1,1,1,1,1,1,1,1,1,1,1,1,1,1,1,1,1,1,1,1,1,1,1,1,1,1,1,1,1,1,1,1,1,1,1,1,1,1,1,1,1,1,1,1,1,1,1,1,1,1,1,1,1,1,1,1,1,1,1,1,1,1,1,1,1,1,1,1,1,1,1,1,1,1,1,1,1,1,1,1,1,1,1,1,1,1,1,1,1,1,1,1,1,1,1,1,1,1,1,1,1,1,1,1,1,1,1,1,1,1,1,1,1,1,1,1,1,1,1,1,1,1,1,1,1,1,1],"number_of_sets":1,"coherent_direction":[250,250,13,250,13,250,250,13,250,13,250,250,250,250,250,13,250,250,13,250,13,13,13,13,13,13,250,250,250,13,250,250,250,250,250,13,250,250,250,13,250,13,13,250,250,13,13,13,13,13,250,13,250,250,250,13,250,250,13,13,13,13,250,13,250,250,250,13,13,13,250,250,13,250,250,13,250,13,250,13,13,13,13,13,13,250,13,250,250,250,13,250,250,250,13,13,250,13,250,250,250,13,13,13,250,13,250,250,250,250,250,250,13,250,13,250,13,13,250,13,13,250,13,250,13,250,13,13,13,250,250,13,250,13,13,13,13,13,13,250,13,13,250,13,250,250,250,250,13,250,250,13,13,13,250,13,13,250,13,13,13,13,250,250,250,250,250,13,13,250,13,250,250,250,250,13,13,13,250,13,13,13,250,13,250,13,13,13,13,250,250,13,250,13,250,13,13,250,250,13],"coherence":1,"opposite_coherence":0,"dot_radius":2,"dot_side_length":1,"dot_life":-1,"move_distance":1,"aperture_width":300,"aperture_height":300,"dot_color":["black","black","white","black","white","black","black","white","black","white","black","black","black","black","black","white","black","black","white","black","white","white","white","white","white","white","black","black","black","white","black","black","black","black","black","white","black","black","black","white","black","white","white","black","black","white","white","white","white","white","black","white","black","black","black","white","black","black","white","white","white","white","black","white","black","black","black","white","white","white","black","black","white","black","black","white","black","white","black","white","white","white","white","white","white","black","white","black","black","black","white","black","black","black","white","white","black","white","black","black","black","white","white","white","black","white","black","black","black","black","black","black","white","black","white","black","white","white","black","white","white","black","white","black","white","black","white","white","white","black","black","white","black","white","white","white","white","white","white","black","white","white","black","white","black","black","black","black","white","black","black","white","white","white","black","white","white","black","white","white","white","white","black","black","black","black","black","white","white","black","white","black","black","black","black","white","white","white","black","white","white","white","black","white","black","white","white","white","white","black","black","white","black","white","black","white","white","black","black","white"],"dot_shape":"circle","background_color":"#AAA","RDK_type":3,"aperture_type":2,"reinsert_type":2,"frame_rate":16.677685950413224,"frame_rate_array":[3,17,17,18,16,15,17,17,18,16,18,16,17,17,17,17,16,17,16,17,18,18,16,15,17,18,17,17,17,17,17,17,16,16,18,16,15,18,18,16,17,18,16,18,17,17,16,17,16,16,17,16,18,17,17,17,15,17,17,17,18,15,17,17,16,17,17,16,18,16,18,17,16,16,18,16,17,16,16,17,17,17,17,17,17,17,17,17,16,16,17,17,17,18,17,16,17,16,15,17,18,17,17,17,15,17,17,18,17,17,17,15,18,16,17,17,17,16,17,17,17],"number_of_frames":121,"aperture_center_x":960,"aperture_center_y":540,"fixation_cross":true,"fixation_cross_width":15,"fixation_cross_height":15,"fixation_cross_color":"#111","fixation_cross_thickness":1,"border":true,"border_thickness":2,"border_color":"transparent","canvas_width":1920,"canvas_height":1080,"trial_type":"rdk","trial_index":100,"plugin_version":"2.0.0","time_elapsed":403139},{"rt":7485,"stimulus":"\n        <div class=\"response-container\">\n          <div class=\"response-instruction\">\n            <p>rotate the bar by using the left and right arrow keys.</p>\n            <p>when you are determined, press the Enter key.</p>\n          </div>\n          <div class=\"response-circle\">\n            <div class=\"response-fixation\"></div>\n            <div id=\"bar\" class=\"rotating-bar\"></div>\n          </div>\n        </div>\n      ","response":"Enter","trial_type":"html-keyboard-response","trial_index":101,"plugin_version":"2.1.0","time_elapsed":410626,"random_initial_angle":211,"response_angle_css":191,"response_angle_rdk":259,"angular_error_target":-114,"angular_error_distractor":9,"target_direction":13,"target_group":"white","reward_points":0},{"rt":null,"stimulus":"\n          <p style=\"color: #FF3333;\">Your reward: 0 points</p>\n        ","response":null,"trial_type":"html-keyboard-response","trial_index":102,"plugin_version":"2.1.0","time_elapsed":412627},{"rt":null,"stimulus":"<div class=\"fixation\" style=\"font-size: 60px;\">+</div>","response":null,"trial_type":"html-keyboard-response","trial_index":103,"plugin_version":"2.1.0","time_elapsed":413641},{"phase":"learning-awareness","target_group":"black","condition_label":"B_H_vs_W_L_rep23","target_direction":91,"distractor_direction":181,"session_rotation":339,"rt":-1,"response":"","correct":false,"choices":"ALL_KEYS","correct_choice":["a"],"trial_duration":2000,"flip_timestamps":[],"response_ends_trial":false,"number_of_apertures":200,"number_of_dots":[1,1,1,1,1,1,1,1,1,1,1,1,1,1,1,1,1,1,1,1,1,1,1,1,1,1,1,1,1,1,1,1,1,1,1,1,1,1,1,1,1,1,1,1,1,1,1,1,1,1,1,1,1,1,1,1,1,1,1,1,1,1,1,1,1,1,1,1,1,1,1,1,1,1,1,1,1,1,1,1,1,1,1,1,1,1,1,1,1,1,1,1,1,1,1,1,1,1,1,1,1,1,1,1,1,1,1,1,1,1,1,1,1,1,1,1,1,1,1,1,1,1,1,1,1,1,1,1,1,1,1,1,1,1,1,1,1,1,1,1,1,1,1,1,1,1,1,1,1,1,1,1,1,1,1,1,1,1,1,1,1,1,1,1,1,1,1,1,1,1,1,1,1,1,1,1,1,1,1,1,1,1,1,1,1,1,1,1,1,1,1,1,1,1,1,1,1,1,1,1],"number_of_sets":1,"coherent_direction":[91,91,91,91,181,91,181,91,181,181,91,181,91,91,181,91,91,91,91,91,181,181,91,91,91,181,181,91,91,181,181,91,91,181,91,181,181,181,181,91,181,181,181,181,91,181,91,181,181,91,91,91,181,181,91,91,91,181,181,91,91,91,181,91,91,91,181,181,181,91,91,91,181,181,91,181,181,91,91,181,181,91,91,181,91,181,181,181,181,181,91,181,91,91,91,181,91,91,91,181,181,181,181,181,91,91,91,91,181,181,181,91,91,181,91,91,181,91,181,181,91,91,91,181,91,181,181,91,181,91,91,91,91,181,181,91,181,91,91,91,181,181,181,181,181,181,181,91,91,91,181,181,181,91,181,91,181,181,181,181,181,91,181,91,91,91,91,181,91,91,91,91,181,181,181,91,181,181,91,91,181,91,91,181,181,91,181,181,91,91,181,91,181,91,181,181,181,181,181,91],"coherence":1,"opposite_coherence":0,"dot_radius":2,"dot_side_length":1,"dot_life":-1,"move_distance":1,"aperture_width":300,"aperture_height":300,"dot_color":["black","black","black","black","white","black","white","black","white","white","black","white","black","black","white","black","black","black","black","black","white","white","black","black","black","white","white","black","black","white","white","black","black","white","black","white","white","white","white","black","white","white","white","white","black","white","black","white","white","black","black","black","white","white","black","black","black","white","white","black","black","black","white","black","black","black","white","white","white","black","black","black","white","white","black","white","white","black","black","white","white","black","black","white","black","white","white","white","white","white","black","white","black","black","black","white","black","black","black","white","white","white","white","white","black","black","black","black","white","white","white","black","black","white","black","black","white","black","white","white","black","black","black","white","black","white","white","black","white","black","black","black","black","white","white","black","white","black","black","black","white","white","white","white","white","white","white","black","black","black","white","white","white","black","white","black","white","white","white","white","white","black","white","black","black","black","black","white","black","black","black","black","white","white","white","black","white","white","black","black","white","black","black","white","white","black","white","white","black","black","white","black","white","black","white","white","white","white","white","black"],"dot_shape":"circle","background_color":"#AAA","RDK_type":3,"aperture_type":2,"reinsert_type":2,"frame_rate":16.669421487603305,"frame_rate_array":[4,17,17,17,17,17,17,17,18,16,16,17,17,17,17,16,18,17,16,17,18,15,17,17,17,17,17,17,16,17,17,17,17,17,16,17,17,16,17,16,18,15,18,17,17,17,17,16,17,17,17,16,17,17,16,17,17,17,17,17,17,16,17,16,17,17,17,17,17,17,16,17,16,17,17,17,17,16,17,18,16,17,17,15,18,17,16,17,17,17,16,17,16,16,17,17,17,17,16,17,16,17,16,17,17,17,17,16,17,17,17,16,16,17,17,17,17,17,17,16,17],"number_of_frames":121,"aperture_center_x":960,"aperture_center_y":540,"fixation_cross":true,"fixation_cross_width":15,"fixation_cross_height":15,"fixation_cross_color":"#111","fixation_cross_thickness":1,"border":true,"border_thickness":2,"border_color":"transparent","canvas_width":1920,"canvas_height":1080,"trial_type":"rdk","trial_index":104,"plugin_version":"2.0.0","time_elapsed":415645},{"rt":9312,"stimulus":"\n        <div class=\"response-container\">\n          <div class=\"response-instruction\">\n            <p>rotate the bar by using the left and right arrow keys.</p>\n            <p>when you are determined, press the Enter key.</p>\n          </div>\n          <div class=\"response-circle\">\n            <div class=\"response-fixation\"></div>\n            <div id=\"bar\" class=\"rotating-bar\"></div>\n          </div>\n        </div>\n      ","response":"Enter","trial_type":"html-keyboard-response","trial_index":105,"plugin_version":"2.1.0","time_elapsed":424958,"random_initial_angle":298,"response_angle_css":369,"response_angle_rdk":81,"angular_error_target":-10,"angular_error_distractor":-100,"target_direction":91,"target_group":"black","reward_points":8},{"rt":null,"stimulus":"\n          <p style=\"color: #00FF00;\">Your reward: 8 points</p>\n        ","response":null,"trial_type":"html-keyboard-response","trial_index":106,"plugin_version":"2.1.0","time_elapsed":426965},{"rt":null,"stimulus":"<div class=\"fixation\" style=\"font-size: 60px;\">+</div>","response":null,"trial_type":"html-keyboard-response","trial_index":107,"plugin_version":"2.1.0","time_elapsed":427979},{"phase":"learning-awareness","target_group":"black","condition_label":"B_H_vs_W_L_rep2","target_direction":92,"distractor_direction":191,"session_rotation":339,"rt":-1,"response":"","correct":false,"choices":"ALL_KEYS","correct_choice":["a"],"trial_duration":2000,"flip_timestamps":[],"response_ends_trial":false,"number_of_apertures":200,"number_of_dots":[1,1,1,1,1,1,1,1,1,1,1,1,1,1,1,1,1,1,1,1,1,1,1,1,1,1,1,1,1,1,1,1,1,1,1,1,1,1,1,1,1,1,1,1,1,1,1,1,1,1,1,1,1,1,