[{"rt":667048,"stimulus":"Welcome to the experiment. Press any key to begin.","response":"ArrowUp","trial_type":"html-keyboard-response","trial_index":0,"plugin_version":"2.1.0","time_elapsed":667054},{"rt":338422,"stimulus":"\n        <div class=\"instructions-container\">\n          <h2>Instructions</h2>\n\n          <p>\n          In this experiment, you will see <strong>two Random Dot Kinematograms (RDKs)</strong> displayed simultaneously.\n          </p>\n\n          <p>\n          An RDK is a visual stimulus consisting of many small dots that move coherently in a single direction. \n          In this experiment, the dots will be either <strong>white</strong> or <strong>black</strong> \n          (see the short demo below for an example of an RDK stimulus).\n          </p>\n\n          <p>\n          On each trial, the two RDKs will move in different directions. \n          Your task is to decide <strong>which RDK appears to contain more dots</strong>.\n          </p>\n\n          <p>\n          The RDK that you judge to have more dots is called the <strong>target RDK</strong>. \n          For example, if the white RDK appears to have more dots than the black RDK, \n          you should report the motion direction of the white RDK.\n          </p>\n\n          <p>\n          After viewing the RDKs, you will rotate a bar to indicate the perceived direction of the target RDK \n          using the <strong>left</strong> and <strong>right arrow keys</strong>. \n          Press <strong>Enter</strong> when you are satisfied with your response.\n          When the bar is held down, the rotation speed increases.\n          </p>\n\n          <p>\n          You will receive points based on the <strong>accuracy of your response</strong>, \n          and your final <strong>bonus reward</strong> may depend on your overall performance. \n          Please try to respond as accurately as possible.\n          </p>\n\n          <p>\n          You will first complete <strong>16 practice trials</strong>. \n          Press the <strong>Enter</strong> key to start the practice phase.\n          </p>\n\n          <canvas id=\"instruction-demo-rdk\" width=\"200\" height=\"200\"style=\"display:block;margin:12px auto; border-radius: 50%;\"></canvas>\n        </div>\n      ","response":"Enter","trial_type":"html-keyboard-response","trial_index":1,"plugin_version":"2.1.0","time_elapsed":1005479},{"rt":null,"stimulus":"<div class=\"fixation\" style=\"font-size: 60px;\">+</div>","response":null,"trial_type":"html-keyboard-response","trial_index":2,"plugin_version":"2.1.0","time_elapsed":1006490},{"target_group":"black","target_index":1,"condition_label":"practice","rt":-1,"response":"","correct":false,"choices":"ALL_KEYS","correct_choice":["a"],"trial_duration":2000,"flip_timestamps":[],"response_ends_trial":false,"number_of_apertures":2,"number_of_dots":[75,100],"number_of_sets":1,"coherent_direction":[344,79],"coherence":1,"opposite_coherence":0,"dot_radius":2,"dot_side_length":1,"dot_life":-1,"move_distance":1,"aperture_width":300,"aperture_height":300,"dot_color":["white","black"],"dot_shape":"circle","background_color":"#AAA","RDK_type":3,"aperture_type":2,"reinsert_type":2,"frame_rate":16.74380165289256,"frame_rate_array":[7,17,16,17,17,16,17,16,17,17,17,17,17,17,17,17,16,17,17,16,17,17,17,17,17,17,17,17,17,17,17,16,17,17,17,16,18,16,17,17,17,17,17,16,17,17,17,17,17,16,17,17,17,17,17,16,17,17,17,17,17,16,17,17,17,17,17,16,17,17,17,17,17,17,16,16,17,17,17,16,17,17,17,17,17,16,17,17,17,17,16,17,17,17,17,17,17,16,17,17,17,17,17,17,17,16,17,17,17,17,17,16,17,17,17,17,17,16,17,17,17],"number_of_frames":121,"aperture_center_x":683,"aperture_center_y":384,"fixation_cross":true,"fixation_cross_width":15,"fixation_cross_height":15,"fixation_cross_color":"#111","fixation_cross_thickness":1,"border":true,"border_thickness":2,"border_color":"transparent","canvas_width":1366,"canvas_height":768,"trial_type":"rdk","trial_index":3,"plugin_version":"2.0.0","time_elapsed":1008502,"phase":"practice","target_direction":79,"distractor_direction":344},{"rt":5455,"stimulus":"\n        <div class=\"response-container\">\n          <div class=\"response-instruction\">\n            <p>rotate the bar by using the left and right arrow keys.</p>\n            <p>when you are determined, press the Enter key.</p>\n          </div>\n          <div class=\"response-circle\">\n            <div class=\"response-fixation\"></div>\n            <div id=\"bar\" class=\"rotating-bar\"></div>\n          </div>\n        </div>\n      ","response":"Enter","trial_type":"html-keyboard-response","trial_index":4,"plugin_version":"2.1.0","time_elapsed":1013958,"random_initial_angle":169,"response_angle_css":167,"response_angle_rdk":283,"angular_error_target":-156,"angular_error_distractor":-61,"target_direction":79,"target_group":"black","reward_points":0},{"rt":null,"stimulus":"\n          <p style=\"color: #FF3333;\">Your reward: 0 points</p>\n        ","response":null,"trial_type":"html-keyboard-response","trial_index":5,"plugin_version":"2.1.0","time_elapsed":1015975},{"rt":null,"stimulus":"<div class=\"fixation\" style=\"font-size: 60px;\">+</div>","response":null,"trial_type":"html-keyboard-response","trial_index":6,"plugin_version":"2.1.0","time_elapsed":1016977},{"target_group":"black","target_index":1,"condition_label":"practice","rt":-1,"response":"","correct":false,"choices":"ALL_KEYS","correct_choice":["a"],"trial_duration":2000,"flip_timestamps":[],"response_ends_trial":false,"number_of_apertures":2,"number_of_dots":[50,100],"number_of_sets":1,"coherent_direction":[72,276],"coherence":1,"opposite_coherence":0,"dot_radius":2,"dot_side_length":1,"dot_life":-1,"move_distance":1,"aperture_width":300,"aperture_height":300,"dot_color":["white","black"],"dot_shape":"circle","background_color":"#AAA","RDK_type":3,"aperture_type":2,"reinsert_type":2,"frame_rate":16.966666666666665,"frame_rate_array":[15,15,17,17,17,17,17,17,17,17,17,17,17,17,17,17,17,17,17,17,17,17,17,17,17,17,17,17,18,16,17,17,17,17,17,17,17,17,17,17,17,17,17,17,17,17,17,17,17,17,17,17,17,17,17,17,17,17,17,17,17,17,17,17,17,17,17,17,17,17,17,17,17,17,17,17,17,17,17,17,17,17,17,17,17,17,17,17,17,17,17,17,17,17,17,17,17,17,17,17,17,17,17,17,17,17,17,17,17,17,17,17,17,17,17,17,17,17,17,17],"number_of_frames":120,"aperture_center_x":683,"aperture_center_y":384,"fixation_cross":true,"fixation_cross_width":15,"fixation_cross_height":15,"fixation_cross_color":"#111","fixation_cross_thickness":1,"border":true,"border_thickness":2,"border_color":"transparent","canvas_width":1366,"canvas_height":768,"trial_type":"rdk","trial_index":7,"plugin_version":"2.0.0","time_elapsed":1018981,"phase":"practice","target_direction":276,"distractor_direction":72},{"rt":3656,"stimulus":"\n        <div class=\"response-container\">\n          <div class=\"response-instruction\">\n            <p>rotate the bar by using the left and right arrow keys.</p>\n            <p>when you are determined, press the Enter key.</p>\n          </div>\n          <div class=\"response-circle\">\n            <div class=\"response-fixation\"></div>\n            <div id=\"bar\" class=\"rotating-bar\"></div>\n          </div>\n        </div>\n      ","response":"Enter","trial_type":"html-keyboard-response","trial_index":8,"plugin_version":"2.1.0","time_elapsed":1022638,"random_initial_angle":342,"response_angle_css":542,"response_angle_rdk":268,"angular_error_target":-8,"angular_error_distractor":-164,"target_direction":276,"target_group":"black","reward_points":8},{"rt":null,"stimulus":"\n          <p style=\"color: #00FF00;\">Your reward: 8 points</p>\n        ","response":null,"trial_type":"html-keyboard-response","trial_index":9,"plugin_version":"2.1.0","time_elapsed":1024641},{"rt":null,"stimulus":"<div class=\"fixation\" style=\"font-size: 60px;\">+</div>","response":null,"trial_type":"html-keyboard-response","trial_index":10,"plugin_version":"2.1.0","time_elapsed":1025655},{"target_group":"white","target_index":0,"condition_label":"practice","rt":-1,"response":"","correct":false,"choices":"ALL_KEYS","correct_choice":["a"],"trial_duration":2000,"flip_timestamps":[],"response_ends_trial":false,"number_of_apertures":2,"number_of_dots":[100,65],"number_of_sets":1,"coherent_direction":[332,64],"coherence":1,"opposite_coherence":0,"dot_radius":2,"dot_side_length":1,"dot_life":-1,"move_distance":1,"aperture_width":300,"aperture_height":300,"dot_color":["white","black"],"dot_shape":"circle","background_color":"#AAA","RDK_type":3,"aperture_type":2,"reinsert_type":2,"frame_rate":16.966666666666665,"frame_rate_array":[13,17,17,17,17,17,17,17,17,17,17,17,17,17,17,17,17,17,17,17,17,17,17,17,17,17,17,17,17,17,17,17,17,17,17,17,17,17,17,17,17,17,17,17,17,17,17,17,17,17,17,17,17,17,17,17,17,17,17,17,17,17,17,17,17,17,17,17,17,17,17,17,17,17,17,17,17,17,17,17,17,17,17,17,17,17,17,17,17,17,17,17,17,17,17,17,17,17,17,17,17,17,17,17,17,17,17,17,17,17,17,17,17,17,17,17,17,17,17,17],"number_of_frames":120,"aperture_center_x":683,"aperture_center_y":384,"fixation_cross":true,"fixation_cross_width":15,"fixation_cross_height":15,"fixation_cross_color":"#111","fixation_cross_thickness":1,"border":true,"border_thickness":2,"border_color":"transparent","canvas_width":1366,"canvas_height":768,"trial_type":"rdk","trial_index":11,"plugin_version":"2.0.0","time_elapsed":1027663,"phase":"practice","target_direction":332,"distractor_direction":64},{"rt":2918,"stimulus":"\n        <div class=\"response-container\">\n          <div class=\"response-instruction\">\n            <p>rotate the bar by using the left and right arrow keys.</p>\n            <p>when you are determined, press the Enter key.</p>\n          </div>\n          <div class=\"response-circle\">\n            <div class=\"response-fixation\"></div>\n            <div id=\"bar\" class=\"rotating-bar\"></div>\n          </div>\n        </div>\n      ","response":"Enter","trial_type":"html-keyboard-response","trial_index":12,"plugin_version":"2.1.0","time_elapsed":1030581,"random_initial_angle":300,"response_angle_css":139,"response_angle_rdk":311,"angular_error_target":-21,"angular_error_distractor":-113,"target_direction":332,"target_group":"white","reward_points":5},{"rt":null,"stimulus":"\n          <p style=\"color: #00FF00;\">Your reward: 5 points</p>\n        ","response":null,"trial_type":"html-keyboard-response","trial_index":13,"plugin_version":"2.1.0","time_elapsed":1032593},{"rt":null,"stimulus":"<div class=\"fixation\" style=\"font-size: 60px;\">+</div>","response":null,"trial_type":"html-keyboard-response","trial_index":14,"plugin_version":"2.1.0","time_elapsed":1033596},{"target_group":"white","target_index":0,"condition_label":"practice","rt":-1,"response":"","correct":false,"choices":"ALL_KEYS","correct_choice":["a"],"trial_duration":2000,"flip_timestamps":[],"response_ends_trial":false,"number_of_apertures":2,"number_of_dots":[100,99],"number_of_sets":1,"coherent_direction":[114,313],"coherence":1,"opposite_coherence":0,"dot_radius":2,"dot_side_length":1,"dot_life":-1,"move_distance":1,"aperture_width":300,"aperture_height":300,"dot_color":["white","black"],"dot_shape":"circle","background_color":"#AAA","RDK_type":3,"aperture_type":2,"reinsert_type":2,"frame_rate":16.816666666666666,"frame_rate_array":[15,16,17,17,16,17,17,17,17,17,17,16,17,17,16,17,17,17,17,17,17,17,16,17,17,17,17,17,17,16,17,17,17,17,17,16,17,17,17,17,17,16,17,17,16,17,17,16,17,17,17,17,16,17,17,17,17,17,17,17,16,17,17,17,17,16,17,17,17,17,17,17,17,17,17,16,17,17,17,17,17,17,17,16,17,17,17,17,17,16,17,17,17,17,17,16,17,17,17,17,17,17,17,16,17,17,17,16,17,17,17,17,17,17,17,17,17,17,17,16],"number_of_frames":120,"aperture_center_x":683,"aperture_center_y":384,"fixation_cross":true,"fixation_cross_width":15,"fixation_cross_height":15,"fixation_cross_color":"#111","fixation_cross_thickness":1,"border":true,"border_thickness":2,"border_color":"transparent","canvas_width":1366,"canvas_height":768,"trial_type":"rdk","trial_index":15,"plugin_version":"2.0.0","time_elapsed":1035608,"phase":"practice","target_direction":114,"distractor_direction":313},{"rt":685,"stimulus":"\n        <div class=\"response-container\">\n          <div class=\"response-instruction\">\n            <p>rotate the bar by using the left and right arrow keys.</p>\n            <p>when you are determined, press the Enter key.</p>\n          </div>\n          <div class=\"response-circle\">\n            <div class=\"response-fixation\"></div>\n            <div id=\"bar\" class=\"rotating-bar\"></div>\n          </div>\n        </div>\n      ","response":"Enter","trial_type":"html-keyboard-response","trial_index":16,"plugin_version":"2.1.0","time_elapsed":1036293,"random_initial_angle":333,"response_angle_css":322,"response_angle_rdk":128,"angular_error_target":14,"angular_error_distractor":175,"target_direction":114,"target_group":"white","reward_points":7},{"rt":null,"stimulus":"\n          <p style=\"color: #00FF00;\">Your reward: 7 points</p>\n        ","response":null,"trial_type":"html-keyboard-response","trial_index":17,"plugin_version":"2.1.0","time_elapsed":1038308},{"rt":null,"stimulus":"<div class=\"fixation\" style=\"font-size: 60px;\">+</div>","response":null,"trial_type":"html-keyboard-response","trial_index":18,"plugin_version":"2.1.0","time_elapsed":1039325},{"target_group":"white","target_index":0,"condition_label":"practice","rt":-1,"response":"","correct":false,"choices":"ALL_KEYS","correct_choice":["a"],"trial_duration":2000,"flip_timestamps":[],"response_ends_trial":false,"number_of_apertures":2,"number_of_dots":[100,93],"number_of_sets":1,"coherent_direction":[210,40],"coherence":1,"opposite_coherence":0,"dot_radius":2,"dot_side_length":1,"dot_life":-1,"move_distance":1,"aperture_width":300,"aperture_height":300,"dot_color":["white","black"],"dot_shape":"circle","background_color":"#AAA","RDK_type":3,"aperture_type":2,"reinsert_type":2,"frame_rate":16.825,"frame_rate_array":[17,16,17,17,17,16,17,17,17,17,17,17,17,17,16,17,17,16,17,17,17,17,17,17,17,17,17,16,17,16,17,17,17,17,17,16,17,17,17,17,17,16,17,17,17,17,17,16,17,17,17,17,17,16,17,17,17,17,17,16,17,17,17,17,17,17,16,17,17,17,17,17,16,17,17,17,17,17,16,17,17,17,17,17,17,16,17,17,16,17,16,17,17,17,17,17,16,17,17,17,17,17,16,17,17,17,17,17,17,17,17,17,17,17,16,17,17,17,16,17],"number_of_frames":120,"aperture_center_x":683,"aperture_center_y":384,"fixation_cross":true,"fixation_cross_width":15,"fixation_cross_height":15,"fixation_cross_color":"#111","fixation_cross_thickness":1,"border":true,"border_thickness":2,"border_color":"transparent","canvas_width":1366,"canvas_height":768,"trial_type":"rdk","trial_index":19,"plugin_version":"2.0.0","time_elapsed":1041337,"phase":"practice","target_direction":210,"distractor_direction":40},{"rt":1700,"stimulus":"\n        <div class=\"response-container\">\n          <div class=\"response-instruction\">\n            <p>rotate the bar by using the left and right arrow keys.</p>\n            <p>when you are determined, press the Enter key.</p>\n          </div>\n          <div class=\"response-circle\">\n            <div class=\"response-fixation\"></div>\n            <div id=\"bar\" class=\"rotating-bar\"></div>\n          </div>\n        </div>\n      ","response":"Enter","trial_type":"html-keyboard-response","trial_index":20,"plugin_version":"2.1.0","time_elapsed":1043038,"random_initial_angle":314,"response_angle_css":225,"response_angle_rdk":225,"angular_error_target":15,"angular_error_distractor":-175,"target_direction":210,"target_group":"white","reward_points":7},{"rt":null,"stimulus":"\n          <p style=\"color: #00FF00;\">Your reward: 7 points</p>\n        ","response":null,"trial_type":"html-keyboard-response","trial_index":21,"plugin_version":"2.1.0","time_elapsed":1045039},{"rt":null,"stimulus":"<div class=\"fixation\" style=\"font-size: 60px;\">+</div>","response":null,"trial_type":"html-keyboard-response","trial_index":22,"plugin_version":"2.1.0","time_elapsed":1046044},{"target_group":"black","target_index":1,"condition_label":"practice","rt":-1,"response":"","correct":false,"choices":"ALL_KEYS","correct_choice":["a"],"trial_duration":2000,"flip_timestamps":[],"response_ends_trial":false,"number_of_apertures":2,"number_of_dots":[75,100],"number_of_sets":1,"coherent_direction":[0,104],"coherence":1,"opposite_coherence":0,"dot_radius":2,"dot_side_length":1,"dot_life":-1,"move_distance":1,"aperture_width":300,"aperture_height":300,"dot_color":["white","black"],"dot_shape":"circle","background_color":"#AAA","RDK_type":3,"aperture_type":2,"reinsert_type":2,"frame_rate":16.925,"frame_rate_array":[9,17,17,17,17,17,17,17,17,17,17,17,17,17,17,17,17,17,17,17,17,17,17,17,17,17,17,17,17,17,17,17,17,17,17,17,17,17,17,17,17,17,17,17,17,17,17,17,17,17,17,17,17,17,17,17,17,17,17,17,17,17,17,17,17,17,17,16,17,17,17,17,17,17,17,17,17,17,17,17,17,17,17,17,17,17,17,17,17,17,17,17,17,17,17,17,17,17,17,17,17,17,17,17,17,17,17,17,17,17,17,17,17,17,17,17,17,17,17,17],"number_of_frames":120,"aperture_center_x":683,"aperture_center_y":384,"fixation_cross":true,"fixation_cross_width":15,"fixation_cross_height":15,"fixation_cross_color":"#111","fixation_cross_thickness":1,"border":true,"border_thickness":2,"border_color":"transparent","canvas_width":1366,"canvas_height":768,"trial_type":"rdk","trial_index":23,"plugin_version":"2.0.0","time_elapsed":1048050,"phase":"practice","target_direction":104,"distractor_direction":0},{"rt":1674,"stimulus":"\n        <div class=\"response-container\">\n          <div class=\"response-instruction\">\n            <p>rotate the bar by using the left and right arrow keys.</p>\n            <p>when you are determined, press the Enter key.</p>\n          </div>\n          <div class=\"response-circle\">\n            <div class=\"response-fixation\"></div>\n            <div id=\"bar\" class=\"rotating-bar\"></div>\n          </div>\n        </div>\n      ","response":"Enter","trial_type":"html-keyboard-response","trial_index":24,"plugin_version":"2.1.0","time_elapsed":1049725,"random_initial_angle":26,"response_angle_css":-22,"response_angle_rdk":112,"angular_error_target":8,"angular_error_distractor":112,"target_direction":104,"target_group":"black","reward_points":8},{"rt":null,"stimulus":"\n          <p style=\"color: #00FF00;\">Your reward: 8 points</p>\n        ","response":null,"trial_type":"html-keyboard-response","trial_index":25,"plugin_version":"2.1.0","time_elapsed":1051739},{"rt":null,"stimulus":"<div class=\"fixation\" style=\"font-size: 60px;\">+</div>","response":null,"trial_type":"html-keyboard-response","trial_index":26,"plugin_version":"2.1.0","time_elapsed":1052743},{"target_group":"black","target_index":1,"condition_label":"practice","rt":-1,"response":"","correct":false,"choices":"ALL_KEYS","correct_choice":["a"],"trial_duration":2000,"flip_timestamps":[],"response_ends_trial":false,"number_of_apertures":2,"number_of_dots":[67,100],"number_of_sets":1,"coherent_direction":[91,288],"coherence":1,"opposite_coherence":0,"dot_radius":2,"dot_side_length":1,"dot_life":-1,"move_distance":1,"aperture_width":300,"aperture_height":300,"dot_color":["white","black"],"dot_shape":"circle","background_color":"#AAA","RDK_type":3,"aperture_type":2,"reinsert_type":2,"frame_rate":16.8099173553719,"frame_rate_array":[4,17,17,17,17,17,17,17,16,17,17,16,17,17,17,17,17,17,17,17,17,17,16,17,17,17,17,17,17,17,17,17,17,17,17,16,17,17,17,17,17,17,17,17,17,17,17,17,17,17,17,17,16,17,17,17,17,17,17,17,17,17,17,17,16,17,17,17,17,17,17,17,17,17,17,17,17,17,16,17,17,17,17,17,17,17,17,17,16,17,17,17,16,17,17,17,17,17,17,17,17,17,17,17,17,17,17,17,17,17,17,17,17,17,17,17,17,17,17,16,17],"number_of_frames":121,"aperture_center_x":683,"aperture_center_y":384,"fixation_cross":true,"fixation_cross_width":15,"fixation_cross_height":15,"fixation_cross_color":"#111","fixation_cross_thickness":1,"border":true,"border_thickness":2,"border_color":"transparent","canvas_width":1366,"canvas_height":768,"trial_type":"rdk","trial_index":27,"plugin_version":"2.0.0","time_elapsed":1054748,"phase":"practice","target_direction":288,"distractor_direction":91},{"rt":1288,"stimulus":"\n        <div class=\"response-container\">\n          <div class=\"response-instruction\">\n            <p>rotate the bar by using the left and right arrow keys.</p>\n            <p>when you are determined, press the Enter key.</p>\n          </div>\n          <div class=\"response-circle\">\n            <div class=\"response-fixation\"></div>\n            <div id=\"bar\" class=\"rotating-bar\"></div>\n          </div>\n        </div>\n      ","response":"Enter","trial_type":"html-keyboard-response","trial_index":28,"plugin_version":"2.1.0","time_elapsed":1056037,"random_initial_angle":113,"response_angle_css":164,"response_angle_rdk":286,"angular_error_target":-2,"angular_error_distractor":-165,"target_direction":288,"target_group":"black","reward_points":9},{"rt":null,"stimulus":"\n          <p style=\"color: #00FF00;\">Your reward: 9 points</p>\n        ","response":null,"trial_type":"html-keyboard-response","trial_index":29,"plugin_version":"2.1.0","time_elapsed":1058041},{"rt":null,"stimulus":"<div class=\"fixation\" style=\"font-size: 60px;\">+</div>","response":null,"trial_type":"html-keyboard-response","trial_index":30,"plugin_version":"2.1.0","time_elapsed":1059044},{"target_group":"black","target_index":1,"condition_label":"practice","rt":-1,"response":"","correct":false,"choices":"ALL_KEYS","correct_choice":["a"],"trial_duration":2000,"flip_timestamps":[],"response_ends_trial":false,"number_of_apertures":2,"number_of_dots":[59,100],"number_of_sets":1,"coherent_direction":[202,82],"coherence":1,"opposite_coherence":0,"dot_radius":2,"dot_side_length":1,"dot_life":-1,"move_distance":1,"aperture_width":300,"aperture_height":300,"dot_color":["white","black"],"dot_shape":"circle","background_color":"#AAA","RDK_type":3,"aperture_type":2,"reinsert_type":2,"frame_rate":16.975,"frame_rate_array":[15,17,17,17,17,17,17,17,17,17,17,17,17,17,17,17,17,17,17,17,17,17,17,17,17,17,17,17,17,17,17,17,17,17,17,17,17,17,17,17,17,17,17,17,17,17,17,17,17,17,17,17,17,17,17,17,17,17,17,17,17,17,17,17,17,17,17,17,17,17,17,17,17,17,17,17,17,17,17,17,17,17,17,17,17,17,17,17,17,17,17,17,17,17,17,17,17,17,17,17,17,17,17,17,17,17,16,17,17,17,17,17,17,17,17,17,17,17,17,17],"number_of_frames":120,"aperture_center_x":683,"aperture_center_y":384,"fixation_cross":true,"fixation_cross_width":15,"fixation_cross_height":15,"fixation_cross_color":"#111","fixation_cross_thickness":1,"border":true,"border_thickness":2,"border_color":"transparent","canvas_width":1366,"canvas_height":768,"trial_type":"rdk","trial_index":31,"plugin_version":"2.0.0","time_elapsed":1061051,"phase":"practice","target_direction":82,"distractor_direction":202},{"rt":1858,"stimulus":"\n        <div class=\"response-container\">\n          <div class=\"response-instruction\">\n            <p>rotate the bar by using the left and right arrow keys.</p>\n            <p>when you are determined, press the Enter key.</p>\n          </div>\n          <div class=\"response-circle\">\n            <div class=\"response-fixation\"></div>\n            <div id=\"bar\" class=\"rotating-bar\"></div>\n          </div>\n        </div>\n      ","response":"Enter","trial_type":"html-keyboard-response","trial_index":32,"plugin_version":"2.1.0","time_elapsed":1062909,"random_initial_angle":78,"response_angle_css":-11,"response_angle_rdk":101,"angular_error_target":19,"angular_error_distractor":-101,"target_direction":82,"target_group":"black","reward_points":6},{"rt":null,"stimulus":"\n          <p style=\"color: #00FF00;\">Your reward: 6 points</p>\n        ","response":null,"trial_type":"html-keyboard-response","trial_index":33,"plugin_version":"2.1.0","time_elapsed":1064919},{"rt":null,"stimulus":"<div class=\"fixation\" style=\"font-size: 60px;\">+</div>","response":null,"trial_type":"html-keyboard-response","trial_index":34,"plugin_version":"2.1.0","time_elapsed":1065924},{"target_group":"black","target_index":1,"condition_label":"practice","rt":-1,"response":"","correct":false,"choices":"ALL_KEYS","correct_choice":["a"],"trial_duration":2000,"flip_timestamps":[],"response_ends_trial":false,"number_of_apertures":2,"number_of_dots":[99,100],"number_of_sets":1,"coherent_direction":[218,32],"coherence":1,"opposite_coherence":0,"dot_radius":2,"dot_side_length":1,"dot_life":-1,"move_distance":1,"aperture_width":300,"aperture_height":300,"dot_color":["white","black"],"dot_shape":"circle","background_color":"#AAA","RDK_type":3,"aperture_type":2,"reinsert_type":2,"frame_rate":16.908333333333335,"frame_rate_array":[12,17,17,17,16,17,17,17,17,17,17,17,17,17,17,17,17,16,17,17,17,17,17,17,17,17,17,17,17,17,17,17,16,17,17,17,17,17,17,17,17,17,17,17,17,17,17,17,17,17,17,17,17,17,17,17,17,17,17,17,17,17,17,17,17,17,17,17,17,17,17,17,17,17,17,16,17,17,17,17,17,17,17,17,17,17,17,17,16,17,17,17,17,17,17,17,17,17,17,17,17,17,16,17,17,17,17,17,17,17,17,17,17,17,17,17,17,17,17,17],"number_of_frames":120,"aperture_center_x":683,"aperture_center_y":384,"fixation_cross":true,"fixation_cross_width":15,"fixation_cross_height":15,"fixation_cross_color":"#111","fixation_cross_thickness":1,"border":true,"border_thickness":2,"border_color":"transparent","canvas_width":1366,"canvas_height":768,"trial_type":"rdk","trial_index":35,"plugin_version":"2.0.0","time_elapsed":1067931,"phase":"practice","target_direction":32,"distractor_direction":218},{"rt":2449,"stimulus":"\n        <div class=\"response-container\">\n          <div class=\"response-instruction\">\n            <p>rotate the bar by using the left and right arrow keys.</p>\n            <p>when you are determined, press the Enter key.</p>\n          </div>\n          <div class=\"response-circle\">\n            <div class=\"response-fixation\"></div>\n            <div id=\"bar\" class=\"rotating-bar\"></div>\n          </div>\n        </div>\n      ","response":"Enter","trial_type":"html-keyboard-response","trial_index":36,"plugin_version":"2.1.0","time_elapsed":1070381,"random_initial_angle":72,"response_angle_css":-119,"response_angle_rdk":209,"angular_error_target":177,"angular_error_distractor":-9,"target_direction":32,"target_group":"black","reward_points":0},{"rt":null,"stimulus":"\n          <p style=\"color: #FF3333;\">Your reward: 0 points</p>\n        ","response":null,"trial_type":"html-keyboard-response","trial_index":37,"plugin_version":"2.1.0","time_elapsed":1072396},{"rt":null,"stimulus":"<div class=\"fixation\" style=\"font-size: 60px;\">+</div>","response":null,"trial_type":"html-keyboard-response","trial_index":38,"plugin_version":"2.1.0","time_elapsed":1073411},{"target_group":"white","target_index":0,"condition_label":"practice","rt":-1,"response":"","correct":false,"choices":"ALL_KEYS","correct_choice":["a"],"trial_duration":2000,"flip_timestamps":[],"response_ends_trial":false,"number_of_apertures":2,"number_of_dots":[100,81],"number_of_sets":1,"coherent_direction":[155,64],"coherence":1,"opposite_coherence":0,"dot_radius":2,"dot_side_length":1,"dot_life":-1,"move_distance":1,"aperture_width":300,"aperture_height":300,"dot_color":["white","black"],"dot_shape":"circle","background_color":"#AAA","RDK_type":3,"aperture_type":2,"reinsert_type":2,"frame_rate":16.84297520661157,"frame_rate_array":[3,17,17,17,17,17,17,17,17,17,17,17,17,17,17,17,17,17,17,17,16,17,17,17,17,16,17,17,17,17,17,17,17,17,17,17,17,17,17,17,17,17,17,17,17,17,17,17,17,17,17,17,16,17,17,17,17,17,17,17,17,17,17,17,17,17,17,17,17,17,17,17,17,17,17,17,17,17,17,17,16,17,17,17,17,17,17,17,17,17,17,17,17,16,17,17,17,17,17,17,17,17,17,17,17,17,17,17,17,17,17,17,17,17,17,17,17,17,17,17,17],"number_of_frames":121,"aperture_center_x":683,"aperture_center_y":384,"fixation_cross":true,"fixation_cross_width":15,"fixation_cross_height":15,"fixation_cross_color":"#111","fixation_cross_thickness":1,"border":true,"border_thickness":2,"border_color":"transparent","canvas_width":1366,"canvas_height":768,"trial_type":"rdk","trial_index":39,"plugin_version":"2.0.0","time_elapsed":1075417,"phase":"practice","target_direction":155,"distractor_direction":64},{"rt":2412,"stimulus":"\n        <div class=\"response-container\">\n          <div class=\"response-instruction\">\n            <p>rotate the bar by using the left and right arrow keys.</p>\n            <p>when you are determined, press the Enter key.</p>\n          </div>\n          <div class=\"response-circle\">\n            <div class=\"response-fixation\"></div>\n            <div id=\"bar\" class=\"rotating-bar\"></div>\n          </div>\n        </div>\n      ","response":"Enter","trial_type":"html-keyboard-response","trial_index":40,"plugin_version":"2.1.0","time_elapsed":1077829,"random_initial_angle":75,"response_angle_css":-47,"response_angle_rdk":137,"angular_error_target":-18,"angular_error_distractor":73,"target_direction":155,"target_group":"white","reward_points":6},{"rt":null,"stimulus":"\n          <p style=\"color: #00FF00;\">Your reward: 6 points</p>\n        ","response":null,"trial_type":"html-keyboard-response","trial_index":41,"plugin_version":"2.1.0","time_elapsed":1079838},{"rt":null,"stimulus":"<div class=\"fixation\" style=\"font-size: 60px;\">+</div>","response":null,"trial_type":"html-keyboard-response","trial_index":42,"plugin_version":"2.1.0","time_elapsed":1080853},{"target_group":"black","target_index":1,"condition_label":"practice","rt":-1,"response":"","correct":false,"choices":"ALL_KEYS","correct_choice":["a"],"trial_duration":2000,"flip_timestamps":[],"response_ends_trial":false,"number_of_apertures":2,"number_of_dots":[75,100],"number_of_sets":1,"coherent_direction":[57,277],"coherence":1,"opposite_coherence":0,"dot_radius":2,"dot_side_length":1,"dot_life":-1,"move_distance":1,"aperture_width":300,"aperture_height":300,"dot_color":["white","black"],"dot_shape":"circle","background_color":"#AAA","RDK_type":3,"aperture_type":2,"reinsert_type":2,"frame_rate":16.793388429752067,"frame_rate_array":[6,17,17,17,17,17,17,16,17,16,17,17,17,16,17,17,17,17,17,17,16,17,16,17,17,17,17,17,17,17,17,17,17,17,17,16,17,17,17,17,17,17,17,17,17,17,17,16,17,16,17,17,17,17,17,17,17,17,17,17,17,17,17,17,17,17,17,17,17,17,17,17,16,17,16,17,17,17,17,17,17,17,17,17,17,17,17,16,17,17,17,17,17,17,17,17,17,17,17,17,17,17,17,17,16,17,17,17,17,17,17,16,17,17,17,17,16,17,17,17,17],"number_of_frames":121,"aperture_center_x":683,"aperture_center_y":384,"fixation_cross":true,"fixation_cross_width":15,"fixation_cross_height":15,"fixation_cross_color":"#111","fixation_cross_thickness":1,"border":true,"border_thickness":2,"border_color":"transparent","canvas_width":1366,"canvas_height":768,"trial_type":"rdk","trial_index":43,"plugin_version":"2.0.0","time_elapsed":1082860,"phase":"practice","target_direction":277,"distractor_direction":57},{"rt":2065,"stimulus":"\n        <div class=\"response-container\">\n          <div class=\"response-instruction\">\n            <p>rotate the bar by using the left and right arrow keys.</p>\n            <p>when you are determined, press the Enter key.</p>\n          </div>\n          <div class=\"response-circle\">\n            <div class=\"response-fixation\"></div>\n            <div id=\"bar\" class=\"rotating-bar\"></div>\n          </div>\n        </div>\n      ","response":"Enter","trial_type":"html-keyboard-response","trial_index":44,"plugin_version":"2.1.0","time_elapsed":1084926,"random_initial_angle":293,"response_angle_css":181,"response_angle_rdk":269,"angular_error_target":-8,"angular_error_distractor":-148,"target_direction":277,"target_group":"black","reward_points":8},{"rt":null,"stimulus":"\n          <p style=\"color: #00FF00;\">Your reward: 8 points</p>\n        ","response":null,"trial_type":"html-keyboard-response","trial_index":45,"plugin_version":"2.1.0","time_elapsed":1086931},{"rt":null,"stimulus":"<div class=\"fixation\" style=\"font-size: 60px;\">+</div>","response":null,"trial_type":"html-keyboard-response","trial_index":46,"plugin_version":"2.1.0","time_elapsed":1087947},{"target_group":"white","target_index":0,"condition_label":"practice","rt":-1,"response":"","correct":false,"choices":"ALL_KEYS","correct_choice":["a"],"trial_duration":2000,"flip_timestamps":[],"response_ends_trial":false,"number_of_apertures":2,"number_of_dots":[100,55],"number_of_sets":1,"coherent_direction":[94,346],"coherence":1,"opposite_coherence":0,"dot_radius":2,"dot_side_length":1,"dot_life":-1,"move_distance":1,"aperture_width":300,"aperture_height":300,"dot_color":["white","black"],"dot_shape":"circle","background_color":"#AAA","RDK_type":3,"aperture_type":2,"reinsert_type":2,"frame_rate":16.908333333333335,"frame_rate_array":[7,17,17,17,17,17,17,17,17,17,17,17,17,17,17,17,16,17,17,17,17,17,17,17,17,17,17,17,17,17,17,17,17,17,17,17,17,17,17,17,17,17,17,17,17,17,17,17,17,17,17,17,17,17,17,17,17,17,17,17,17,17,17,17,17,17,17,17,17,17,17,17,17,17,17,17,17,17,17,17,17,17,17,17,17,17,17,17,17,17,17,17,17,17,17,17,17,17,17,17,17,17,17,17,17,17,17,17,17,17,17,17,17,17,17,17,17,17,17,17],"number_of_frames":120,"aperture_center_x":683,"aperture_center_y":384,"fixation_cross":true,"fixation_cross_width":15,"fixation_cross_height":15,"fixation_cross_color":"#111","fixation_cross_thickness":1,"border":true,"border_thickness":2,"border_color":"transparent","canvas_width":1366,"canvas_height":768,"trial_type":"rdk","trial_index":47,"plugin_version":"2.0.0","time_elapsed":1089949,"phase":"practice","target_direction":94,"distractor_direction":346},{"rt":2320,"stimulus":"\n        <div class=\"response-container\">\n          <div class=\"response-instruction\">\n            <p>rotate the bar by using the left and right arrow keys.</p>\n            <p>when you are determined, press the Enter key.</p>\n          </div>\n          <div class=\"response-circle\">\n            <div class=\"response-fixation\"></div>\n            <div id=\"bar\" class=\"rotating-bar\"></div>\n          </div>\n        </div>\n      ","response":"Enter","trial_type":"html-keyboard-response","trial_index":48,"plugin_version":"2.1.0","time_elapsed":1092270,"random_initial_angle":207,"response_angle_css":348,"response_angle_rdk":102,"angular_error_target":8,"angular_error_distractor":116,"target_direction":94,"target_group":"white","reward_points":8},{"rt":null,"stimulus":"\n          <p style=\"color: #00FF00;\">Your reward: 8 points</p>\n        ","response":null,"trial_type":"html-keyboard-response","trial_index":49,"plugin_version":"2.1.0","time_elapsed":1094278},{"rt":null,"stimulus":"<div class=\"fixation\" style=\"font-size: 60px;\">+</div>","response":null,"trial_type":"html-keyboard-response","trial_index":50,"plugin_version":"2.1.0","time_elapsed":1095281},{"target_group":"black","target_index":1,"condition_label":"practice","rt":-1,"response":"","correct":false,"choices":"ALL_KEYS","correct_choice":["a"],"trial_duration":2000,"flip_timestamps":[],"response_ends_trial":false,"number_of_apertures":2,"number_of_dots":[73,100],"number_of_sets":1,"coherent_direction":[327,99],"coherence":1,"opposite_coherence":0,"dot_radius":2,"dot_side_length":1,"dot_life":-1,"move_distance":1,"aperture_width":300,"aperture_height":300,"dot_color":["white","black"],"dot_shape":"circle","background_color":"#AAA","RDK_type":3,"aperture_type":2,"reinsert_type":2,"frame_rate":16.694214876033058,"frame_rate_array":[2,16,17,17,17,17,17,17,17,17,17,17,16,17,17,16,17,16,17,17,17,17,17,17,16,17,17,17,17,17,16,17,17,16,17,17,16,17,17,17,17,17,16,17,16,17,17,17,16,17,17,17,17,17,16,17,17,17,17,16,16,17,17,17,17,17,17,17,17,17,17,17,17,17,17,16,17,17,16,17,17,17,17,17,16,17,17,17,17,18,16,17,17,17,17,17,16,17,17,17,17,17,16,17,17,17,16,17,16,17,17,17,17,17,16,17,17,17,17,18,16],"number_of_frames":121,"aperture_center_x":683,"aperture_center_y":384,"fixation_cross":true,"fixation_cross_width":15,"fixation_cross_height":15,"fixation_cross_color":"#111","fixation_cross_thickness":1,"border":true,"border_thickness":2,"border_color":"transparent","canvas_width":1366,"canvas_height":768,"trial_type":"rdk","trial_index":51,"plugin_version":"2.0.0","time_elapsed":1097295,"phase":"practice","target_direction":99,"distractor_direction":327},{"rt":1589,"stimulus":"\n        <div class=\"response-container\">\n          <div class=\"response-instruction\">\n            <p>rotate the bar by using the left and right arrow keys.</p>\n            <p>when you are determined, press the Enter key.</p>\n          </div>\n          <div class=\"response-circle\">\n            <div class=\"response-fixation\"></div>\n            <div id=\"bar\" class=\"rotating-bar\"></div>\n          </div>\n        </div>\n      ","response":"Enter","trial_type":"html-keyboard-response","trial_index":52,"plugin_version":"2.1.0","time_elapsed":1098886,"random_initial_angle":234,"response_angle_css":329,"response_angle_rdk":121,"angular_error_target":22,"angular_error_distractor":154,"target_direction":99,"target_group":"black","reward_points":5},{"rt":null,"stimulus":"\n          <p style=\"color: #00FF00;\">Your reward: 5 points</p>\n        ","response":null,"trial_type":"html-keyboard-response","trial_index":53,"plugin_version":"2.1.0","time_elapsed":1100893},{"rt":null,"stimulus":"<div class=\"fixation\" style=\"font-size: 60px;\">+</div>","response":null,"trial_type":"html-keyboard-response","trial_index":54,"plugin_version":"2.1.0","time_elapsed":1101896},{"target_group":"white","target_index":0,"condition_label":"practice","rt":-1,"response":"","correct":false,"choices":"ALL_KEYS","correct_choice":["a"],"trial_duration":2000,"flip_timestamps":[],"response_ends_trial":false,"number_of_apertures":2,"number_of_dots":[100,63],"number_of_sets":1,"coherent_direction":[235,111],"coherence":1,"opposite_coherence":0,"dot_radius":2,"dot_side_length":1,"dot_life":-1,"move_distance":1,"aperture_width":300,"aperture_height":300,"dot_color":["white","black"],"dot_shape":"circle","background_color":"#AAA","RDK_type":3,"aperture_type":2,"reinsert_type":2,"frame_rate":16.958333333333332,"frame_rate_array":[14,17,17,17,17,17,17,17,17,17,17,17,17,17,17,17,17,17,17,17,17,17,17,17,17,17,17,17,17,17,17,17,17,17,17,17,17,17,17,17,17,17,17,17,17,17,17,17,17,17,17,17,17,17,16,17,17,17,17,17,17,17,17,16,17,17,17,17,17,17,17,17,17,17,17,17,17,17,17,17,17,17,17,17,17,17,17,17,17,17,17,17,17,17,17,17,17,17,17,17,17,17,17,17,17,17,17,17,17,17,17,17,17,17,17,17,17,17,17,17],"number_of_frames":120,"aperture_center_x":683,"aperture_center_y":384,"fixation_cross":true,"fixation_cross_width":15,"fixation_cross_height":15,"fixation_cross_color":"#111","fixation_cross_thickness":1,"border":true,"border_thickness":2,"border_color":"transparent","canvas_width":1366,"canvas_height":768,"trial_type":"rdk","trial_index":55,"plugin_version":"2.0.0","time_elapsed":1103902,"phase":"practice","target_direction":235,"distractor_direction":111},{"rt":2440,"stimulus":"\n        <div class=\"response-container\">\n          <div class=\"response-instruction\">\n            <p>rotate the bar by using the left and right arrow keys.</p>\n            <p>when you are determined, press the Enter key.</p>\n          </div>\n          <div class=\"response-circle\">\n            <div class=\"response-fixation\"></div>\n            <div id=\"bar\" class=\"rotating-bar\"></div>\n          </div>\n        </div>\n      ","response":"Enter","trial_type":"html-keyboard-response","trial_index":56,"plugin_version":"2.1.0","time_elapsed":1106342,"random_initial_angle":39,"response_angle_css":206,"response_angle_rdk":244,"angular_error_target":9,"angular_error_distractor":133,"target_direction":235,"target_group":"white","reward_points":8},{"rt":null,"stimulus":"\n          <p style=\"color: #00FF00;\">Your reward: 8 points</p>\n        ","response":null,"trial_type":"html-keyboard-response","trial_index":57,"plugin_version":"2.1.0","time_elapsed":1108344},{"rt":null,"stimulus":"<div class=\"fixation\" style=\"font-size: 60px;\">+</div>","response":null,"trial_type":"html-keyboard-response","trial_index":58,"plugin_version":"2.1.0","time_elapsed":1109349},{"target_group":"white","target_index":0,"condition_label":"practice","rt":-1,"response":"","correct":false,"choices":"ALL_KEYS","correct_choice":["a"],"trial_duration":2000,"flip_timestamps":[],"response_ends_trial":false,"number_of_apertures":2,"number_of_dots":[100,66],"number_of_sets":1,"coherent_direction":[55,265],"coherence":1,"opposite_coherence":0,"dot_radius":2,"dot_side_length":1,"dot_life":-1,"move_distance":1,"aperture_width":300,"aperture_height":300,"dot_color":["white","black"],"dot_shape":"circle","background_color":"#AAA","RDK_type":3,"aperture_type":2,"reinsert_type":2,"frame_rate":16.760330578512395,"frame_rate_array":[6,16,17,17,17,17,16,17,17,16,17,17,16,16,17,17,17,17,17,17,17,16,16,17,16,17,17,17,17,17,17,16,17,17,16,17,17,17,16,17,17,17,17,17,17,17,17,17,17,17,17,17,17,17,17,17,17,17,17,17,17,16,17,17,17,17,17,16,17,17,17,17,17,17,16,17,17,17,17,17,17,17,17,17,17,17,17,17,17,16,17,17,17,17,17,17,17,16,17,17,17,17,17,17,16,17,17,17,17,17,17,17,17,17,17,17,17,16,17,17,17],"number_of_frames":121,"aperture_center_x":683,"aperture_center_y":384,"fixation_cross":true,"fixation_cross_width":15,"fixation_cross_height":15,"fixation_cross_color":"#111","fixation_cross_thickness":1,"border":true,"border_thickness":2,"border_color":"transparent","canvas_width":1366,"canvas_height":768,"trial_type":"rdk","trial_index":59,"plugin_version":"2.0.0","time_elapsed":1111355,"phase":"practice","target_direction":55,"distractor_direction":265},{"rt":2443,"stimulus":"\n        <div class=\"response-container\">\n          <div class=\"response-instruction\">\n            <p>rotate the bar by using the left and right arrow keys.</p>\n            <p>when you are determined, press the Enter key.</p>\n          </div>\n          <div class=\"response-circle\">\n            <div class=\"response-fixation\"></div>\n            <div id=\"bar\" class=\"rotating-bar\"></div>\n          </div>\n        </div>\n      ","response":"Enter","trial_type":"html-keyboard-response","trial_index":60,"plugin_version":"2.1.0","time_elapsed":1113799,"random_initial_angle":184,"response_angle_css":33,"response_angle_rdk":57,"angular_error_target":2,"angular_error_distractor":152,"target_direction":55,"target_group":"white","reward_points":9},{"rt":null,"stimulus":"\n          <p style=\"color: #00FF00;\">Your reward: 9 points</p>\n        ","response":null,"trial_type":"html-keyboard-response","trial_index":61,"plugin_version":"2.1.0","time_elapsed":1115802},{"rt":null,"stimulus":"<div class=\"fixation\" style=\"font-size: 60px;\">+</div>","response":null,"trial_type":"html-keyboard-response","trial_index":62,"plugin_version":"2.1.0","time_elapsed":1116807},{"target_group":"white","target_index":0,"condition_label":"practice","rt":-1,"response":"","correct":false,"choices":"ALL_KEYS","correct_choice":["a"],"trial_duration":2000,"flip_timestamps":[],"response_ends_trial":false,"number_of_apertures":2,"number_of_dots":[100,54],"number_of_sets":1,"coherent_direction":[143,328],"coherence":1,"opposite_coherence":0,"dot_radius":2,"dot_side_length":1,"dot_life":-1,"move_distance":1,"aperture_width":300,"aperture_height":300,"dot_color":["white","black"],"dot_shape":"circle","background_color":"#AAA","RDK_type":3,"aperture_type":2,"reinsert_type":2,"frame_rate":16.90082644628099,"frame_rate_array":[8,17,17,17,17,17,16,17,17,17,17,17,17,17,17,17,17,17,17,17,17,17,17,17,17,17,17,17,17,17,17,17,17,17,17,17,17,17,17,17,17,17,17,17,17,17,17,17,17,17,17,17,17,17,17,17,17,17,17,17,17,17,17,17,17,17,17,17,17,17,17,17,17,17,17,17,17,17,17,17,17,17,17,17,17,17,17,17,17,17,17,17,17,17,17,17,17,17,17,17,17,17,17,17,17,17,17,17,17,16,17,16,17,17,17,17,17,17,17,17,17],"number_of_frames":121,"aperture_center_x":683,"aperture_center_y":384,"fixation_cross":true,"fixation_cross_width":15,"fixation_cross_height":15,"fixation_cross_color":"#111","fixation_cross_thickness":1,"border":true,"border_thickness":2,"border_color":"transparent","canvas_width":1366,"canvas_height":768,"trial_type":"rdk","trial_index":63,"plugin_version":"2.0.0","time_elapsed":1118816,"phase":"practice","target_direction":143,"distractor_direction":328},{"rt":2660,"stimulus":"\n        <div class=\"response-container\">\n          <div class=\"response-instruction\">\n            <p>rotate the bar by using the left and right arrow keys.</p>\n            <p>when you are determined, press the Enter key.</p>\n          </div>\n          <div class=\"response-circle\">\n            <div class=\"response-fixation\"></div>\n            <div id=\"bar\" class=\"rotating-bar\"></div>\n          </div>\n        </div>\n      ","response":"Enter","trial_type":"html-keyboard-response","trial_index":64,"plugin_version":"2.1.0","time_elapsed":1121477,"random_initial_angle":181,"response_angle_css":-52,"response_angle_rdk":142,"angular_error_target":-1,"angular_error_distractor":174,"target_direction":143,"target_group":"white","reward_points":9},{"rt":null,"stimulus":"\n          <p style=\"color: #00FF00;\">Your reward: 9 points</p>\n        ","response":null,"trial_type":"html-keyboard-response","trial_index":65,"plugin_version":"2.1.0","time_elapsed":1123491},{"rt":71770,"stimulus":"\n        <div class=\"instructions-container\">\n          <h2>End of Practice</h2>\n          <p>You have completed the practice trials.</p>\n          <p>Press <strong>Enter</strong> key to begin the main experiment.</p>\n        </div>\n      ","response":"Enter","trial_type":"html-keyboard-response","trial_index":66,"plugin_version":"2.1.0","time_elapsed":1195262},{"rt":null,"stimulus":"<div class=\"fixation\" style=\"font-size: 60px;\">+</div>","response":null,"trial_type":"html-keyboard-response","trial_index":67,"plugin_version":"2.1.0","time_elapsed":1196275},{"phase":"learning-awareness","target_group":"black","condition_label":"B_H_vs_W_L_rep24","target_direction":350,"distractor_direction":88,"session_rotation":236,"rt":-1,"response":"","correct":false,"choices":"ALL_KEYS","correct_choice":["a"],"trial_duration":2000,"flip_timestamps":[],"response_ends_trial":false,"number_of_apertures":200,"number_of_dots":[1,1,1,1,1,1,1,1,1,1,1,1,1,1,1,1,1,1,1,1,1,1,1,1,1,1,1,1,1,1,1,1,1,1,1,1,1,1,1,1,1,1,1,1,1,1,1,1,1,1,1,1,1,1,1,1,1,1,1,1,1,1,1,1,1,1,1,1,1,1,1,1,1,1,1,1,1,1,1,1,1,1,1,1,1,1,1,1,1,1,1,1,1,1,1,1,1,1,1,1,1,1,1,1,1,1,1,1,1,1,1,1,1,1,1,1,1,1,1,1,1,1,1,1,1,1,1,1,1,1,1,1,1,1,1,1,1,1,1,1,1,1,1,1,1,1,1,1,1,1,1,1,1,1,1,1,1,1,1,1,1,1,1,1,1,1,1,1,1,1,1,1,1,1,1,1,1,1,1,1,1,1,1,1,1,1,1,1,1,1,1,1,1,1,1,1,1,1,1,1],"number_of_sets":1,"coherent_direction":[350,88,88,350,88,350,350,350,88,88,88,350,88,350,88,350,350,350,350,350,88,88,88,350,88,350,350,88,350,88,88,88,88,88,88,350,88,88,88,350,88,350,350,350,88,350,88,88,88,88,350,88,88,88,88,88,350,350,350,88,350,350,88,350,88,88,88,350,88,88,88,350,350,350,88,88,88,350,350,350,350,88,88,88,88,88,350,88,350,88,88,88,88,88,350,88,350,350,88,350,88,88,88,350,88,350,88,88,88,350,88,88,350,350,88,88,88,350,88,350,350,350,350,88,350,88,88,88,88,350,350,350,350,88,350,350,350,350,350,88,88,88,350,88,350,350,350,350,350,350,350,350,88,88,350,350,88,350,350,350,88,350,88,88,350,88,350,350,350,88,88,88,350,88,88,350,88,350,350,350,88,350,350,350,350,350,88,350,350,350,350,350,88,350,88,350,350,88,88,88],"coherence":1,"opposite_coherence":0,"dot_radius":2,"dot_side_length":1,"dot_life":-1,"move_distance":1,"aperture_width":300,"aperture_height":300,"dot_color":["black","white","white","black","white","black","black","black","white","white","white","black","white","black","white","black","black","black","black","black","white","white","white","black","white","black","black","white","black","white","white","white","white","white","white","black","white","white","white","black","white","black","black","black","white","black","white","white","white","white","black","white","white","white","white","white","black","black","black","white","black","black","white","black","white","white","white","black","white","white","white","black","black","black","white","white","white","black","black","black","black","white","white","white","white","white","black","white","black","white","white","white","white","white","black","white","black","black","white","black","white","white","white","black","white","black","white","white","white","black","white","white","black","black","white","white","white","black","white","black","black","black","black","white","black","white","white","white","white","black","black","black","black","white","black","black","black","black","black","white","white","white","black","white","black","black","black","black","black","black","black","black","white","white","black","black","white","black","black","black","white","black","white","white","black","white","black","black","black","white","white","white","black","white","white","black","white","black","black","black","white","black","black","black","black","black","white","black","black","black","black","black","white","black","white","black","black","white","white","white"],"dot_shape":"circle","background_color":"#AAA","RDK_type":3,"aperture_type":2,"reinsert_type":2,"frame_rate":16.758333333333333,"frame_rate_array":[12,17,16,17,17,17,17,17,17,17,17,17,17,18,16,17,17,17,17,18,16,16,17,17,17,18,17,16,16,17,17,16,17,17,17,16,16,17,17,16,17,16,17,17,17,16,17,17,17,17,17,16,17,16,17,17,17,16,17,17,17,17,17,16,17,17,17,17,17,16,17,17,17,17,17,16,17,17,16,17,17,16,17,17,17,17,17,16,17,17,17,16,16,17,17,17,17,17,17,16,17,17,17,17,17,16,17,17,17,17,17,16,17,17,17,17,17,16,17,17],"number_of_frames":120,"aperture_center_x":683,"aperture_center_y":384,"fixation_cross":true,"fixation_cross_width":15,"fixation_cross_height":15,"fixation_cross_color":"#111","fixation_cross_thickness":1,"border":true,"border_thickness":2,"border_color":"transparent","canvas_width":1366,"canvas_height":768,"trial_type":"rdk","trial_index":68,"plugin_version":"2.0.0","time_elapsed":1198281},{"rt":1852,"stimulus":"\n        <div class=\"response-container\">\n          <div class=\"response-instruction\">\n            <p>rotate the bar by using the left and right arrow keys.</p>\n            <p>when you are determined, press the Enter key.</p>\n          </div>\n          <div class=\"response-circle\">\n            <div class=\"response-fixation\"></div>\n            <div id=\"bar\" class=\"rotating-bar\"></div>\n          </div>\n        </div>\n      ","response":"Enter","trial_type":"html-keyboard-response","trial_index":69,"plugin_version":"2.1.0","time_elapsed":1200133,"random_initial_angle":281,"response_angle_css":330,"response_angle_rdk":120,"angular_error_target":130,"angular_error_distractor":32,"target_direction":350,"target_group":"black","reward_points":0},{"rt":null,"stimulus":"\n          <p style=\"color: #FF3333;\">Your reward: 0 points</p>\n        ","response":null,"trial_type":"html-keyboard-response","trial_index":70,"plugin_version":"2.1.0","time_elapsed":1202145},{"rt":null,"stimulus":"<div class=\"fixation\" style=\"font-size: 60px;\">+</div>","response":null,"trial_type":"html-keyboard-response","trial_index":71,"plugin_version":"2.1.0","time_elapsed":1203148},{"phase":"learning-awareness","target_group":"black","condition_label":"B_H_vs_W_L_rep16","target_direction":332,"distractor_direction":94,"session_rotation":236,"rt":-1,"response":"","correct":false,"choices":"ALL_KEYS","correct_choice":["a"],"trial_duration":2000,"flip_timestamps":[],"response_ends_trial":false,"number_of_apertures":200,"number_of_dots":[1,1,1,1,1,1,1,1,1,1,1,1,1,1,1,1,1,1,1,1,1,1,1,1,1,1,1,1,1,1,1,1,1,1,1,1,1,1,1,1,1,1,1,1,1,1,1,1,1,1,1,1,1,1,1,1,1,1,1,1,1,1,1,1,1,1,1,1,1,1,1,1,1,1,1,1,1,1,1,1,1,1,1,1,1,1,1,1,1,1,1,1,1,1,1,1,1,1,1,1,1,1,1,1,1,1,1,1,1,1,1,1,1,1,1,1,1,1,1,1,1,1,1,1,1,1,1,1,1,1,1,1,1,1,1,1,1,1,1,1,1,1,1,1,1,1,1,1,1,1,1,1,1,1,1,1,1,1,1,1,1,1,1,1,1,1,1,1,1,1,1,1,1,1,1,1,1,1,1,1,1,1,1,1,1,1,1,1,1,1,1,1,1,1,1,1,1,1,1,1],"number_of_sets":1,"coherent_direction":[332,94,94,332,332,332,332,94,94,94,94,332,332,94,332,332,332,94,332,332,94,332,332,94,332,94,332,332,332,94,94,332,332,94,94,94,94,94,94,94,332,332,94,94,94,332,332,332,94,332,94,94,94,94,332,94,94,332,332,332,94,94,94,94,94,94,94,332,332,94,332,332,332,332,94,332,332,332,94,94,94,94,94,94,332,94,94,332,332,332,94,94,94,332,332,94,332,94,332,94,94,94,332,94,94,332,332,332,332,94,332,332,94,94,94,94,332,94,332,332,94,94,332,332,332,332,94,94,94,94,94,94,332,94,332,94,94,332,94,332,332,94,94,94,332,332,332,332,332,332,332,332,332,332,94,332,94,332,332,94,94,332,332,332,332,94,94,332,94,94,94,94,94,94,332,94,94,332,94,332,332,332,94,332,332,94,332,332,94,332,332,332,332,94,94,94,332,94,332,332],"coherence":1,"opposite_coherence":0,"dot_radius":2,"dot_side_length":1,"dot_life":-1,"move_distance":1,"aperture_width":300,"aperture_height":300,"dot_color":["black","white","white","black","black","black","black","white","white","white","white","black","black","white","black","black","black","white","black","black","white","black","black","white","black","white","black","black","black","white","white","black","black","white","white","white","white","white","white","white","black","black","white","white","white","black","black","black","white","black","white","white","white","white","black","white","white","black","black","black","white","white","white","white","white","white","white","black","black","white","black","black","black","black","white","black","black","black","white","white","white","white","white","white","black","white","white","black","black","black","white","white","white","black","black","white","black","white","black","white","white","white","black","white","white","black","black","black","black","white","black","black","white","white","white","white","black","white","black","black","white","white","black","black","black","black","white","white","white","white","white","white","black","white","black","white","white","black","white","black","black","white","white","white","black","black","black","black","black","black","black","black","black","black","white","black","white","black","black","white","white","black","black","black","black","white","white","black","white","white","white","white","white","white","black","white","white","black","white","black","black","black","white","black","black","white","black","black","white","black","black","black","black","white","white","white","black","white","black","black"],"dot_shape":"circle","background_color":"#AAA","RDK_type":3,"aperture_type":2,"reinsert_type":2,"frame_rate":16.71900826446281,"frame_rate_array":[2,15,16,17,17,17,17,16,17,17,17,17,17,16,17,17,17,17,17,17,16,17,17,17,17,16,17,17,17,17,17,16,17,17,17,17,17,16,16,17,17,17,17,17,17,17,17,17,17,17,17,17,17,17,17,17,17,17,17,17,17,17,16,17,17,17,17,17,16,17,17,17,17,17,17,16,17,17,17,17,16,17,17,17,17,17,17,17,16,17,17,17,17,17,17,17,17,17,17,17,17,17,16,17,16,17,17,17,17,17,16,17,17,17,18,16,16,17,17,17,17],"number_of_frames":121,"aperture_center_x":683,"aperture_center_y":384,"fixation_cross":true,"fixation_cross_width":15,"fixation_cross_height":15,"fixation_cross_color":"#111","fixation_cross_thickness":1,"border":true,"border_thickness":2,"border_color":"transparent","canvas_width":1366,"canvas_height":768,"trial_type":"rdk","trial_index":72,"plugin_version":"2.0.0","time_elapsed":1205158},{"rt":2567,"stimulus":"\n        <div class=\"response-container\">\n          <div class=\"response-instruction\">\n            <p>rotate the bar by using the left and right arrow keys.</p>\n            <p>when you are determined, press the Enter key.</p>\n          </div>\n          <div class=\"response-circle\">\n            <div class=\"response-fixation\"></div>\n            <div id=\"bar\" class=\"rotating-bar\"></div>\n          </div>\n        </div>\n      ","response":"Enter","trial_type":"html-keyboard-response","trial_index":73,"plugin_version":"2.1.0","time_elapsed":1207725,"random_initial_angle":181,"response_angle_css":-20,"response_angle_rdk":110,"angular_error_target":138,"angular_error_distractor":16,"target_direction":332,"target_group":"black","reward_points":0},{"rt":null,"stimulus":"\n          <p style=\"color: #FF3333;\">Your reward: 0 points</p>\n        ","response":null,"trial_type":"html-keyboard-response","trial_index":74,"plugin_version":"2.1.0","time_elapsed":1209728},{"rt":null,"stimulus":"<div class=\"fixation\" style=\"font-size: 60px;\">+</div>","response":null,"trial_type":"html-keyboard-response","trial_index":75,"plugin_version":"2.1.0","time_elapsed":1210729},{"phase":"learning-awareness","target_group":"white","condition_label":"W_H_vs_B_L_rep4","target_direction":271,"distractor_direction":172,"session_rotation":236,"rt":-1,"response":"","correct":false,"choices":"ALL_KEYS","correct_choice":["a"],"trial_duration":2000,"flip_timestamps":[],"response_ends_trial":false,"number_of_apertures":200,"number_of_dots":[1,1,1,1,1,1,1,1,1,1,1,1,1,1,1,1,1,1,1,1,1,1,1,1,1,1,1,1,1,1,1,1,1,1,1,1,1,1,1,1,1,1,1,1,1,1,1,1,1,1,1,1,1,1,1,1,1,1,1,1,1,1,1,1,1,1,1,1,1,1,1,1,1,1,1,1,1,1,1,1,1,1,1,1,1,1,1,1,1,1,1,1,1,1,1,1,1,1,1,1,1,1,1,1,1,1,1,1,1,1,1,1,1,1,1,1,1,1,1,1,1,1,1,1,1,1,1,1,1,1,1,1,1,1,1,1,1,1,1,1,1,1,1,1,1,1,1,1,1,1,1,1,1,1,1,1,1,1,1,1,1,1,1,1,1,1,1,1,1,1,1,1,1,1,1,1,1,1,1,1,1,1,1,1,1,1,1,1,1,1,1,1,1,1,1,1,1,1,1,1],"number_of_sets":1,"coherent_direction":[271,271,271,172,172,172,271,271,172,172,271,271,172,271,172,172,271,271,172,271,172,271,271,172,172,172,172,271,271,172,172,172,172,271,172,172,172,271,172,172,172,271,271,271,271,172,172,271,271,271,271,271,271,172,271,271,271,271,172,172,271,271,172,271,271,271,271,172,172,172,172,271,172,172,271,271,172,271,271,271,271,172,271,172,271,172,271,172,172,271,172,172,271,172,271,172,271,172,271,172,172,172,172,172,271,271,172,172,271,271,172,271,271,172,271,172,172,172,172,271,271,172,271,172,271,172,172,172,271,172,271,172,172,271,172,271,172,172,172,271,172,271,271,271,172,172,271,172,271,172,271,172,172,271,172,271,172,271,271,271,172,172,172,271,172,172,271,271,172,172,172,271,172,271,271,172,271,172,271,271,172,172,172,271,271,271,172,172,172,271,271,271,172,271,271,271,271,271,271,172],"coherence":1,"opposite_coherence":0,"dot_radius":2,"dot_side_length":1,"dot_life":-1,"move_distance":1,"aperture_width":300,"aperture_height":300,"dot_color":["white","white","white","black","black","black","white","white","black","black","white","white","black","white","black","black","white","white","black","white","black","white","white","black","black","black","black","white","white","black","black","black","black","white","black","black","black","white","black","black","black","white","white","white","white","black","black","white","white","white","white","white","white","black","white","white","white","white","black","black","white","white","black","white","white","white","white","black","black","black","black","white","black","black","white","white","black","white","white","white","white","black","white","black","white","black","white","black","black","white","black","black","white","black","white","black","white","black","white","black","black","black","black","black","white","white","black","black","white","white","black","white","white","black","white","black","black","black","black","white","white","black","white","black","white","black","black","black","white","black","white","black","black","white","black","white","black","black","black","white","black","white","white","white","black","black","white","black","white","black","white","black","black","white","black","white","black","white","white","white","black","black","black","white","black","black","white","white","black","black","black","white","black","white","white","black","white","black","white","white","black","black","black","white","white","white","black","black","black","white","white","white","black","white","white","white","white","white","white","black"],"dot_shape":"circle","background_color":"#AAA","RDK_type":3,"aperture_type":2,"reinsert_type":2,"frame_rate":16.833333333333332,"frame_rate_array":[14,16,17,17,17,17,16,17,17,17,17,17,17,17,17,17,17,17,17,17,17,17,17,17,17,17,17,17,17,17,17,16,17,17,17,16,17,17,17,17,17,16,17,16,16,17,17,17,17,17,17,17,17,17,17,17,17,17,17,16,17,17,17,17,16,17,17,17,17,17,17,17,16,17,17,17,17,16,17,17,17,17,17,17,16,17,17,17,17,16,17,17,17,17,17,17,17,16,17,17,17,17,16,17,17,17,17,17,17,16,17,17,17,17,16,17,17,17,17,17],"number_of_frames":120,"aperture_center_x":683,"aperture_center_y":384,"fixation_cross":true,"fixation_cross_width":15,"fixation_cross_height":15,"fixation_cross_color":"#111","fixation_cross_thickness":1,"border":true,"border_thickness":2,"border_color":"transparent","canvas_width":1366,"canvas_height":768,"trial_type":"rdk","trial_index":76,"plugin_version":"2.0.0","time_elapsed":1212742},{"rt":1239,"stimulus":"\n        <div class=\"response-container\">\n          <div class=\"response-instruction\">\n            <p>rotate the bar by using the left and right arrow keys.</p>\n            <p>when you are determined, press the Enter key.</p>\n          </div>\n          <div class=\"response-circle\">\n            <div class=\"response-fixation\"></div>\n            <div id=\"bar\" class=\"rotating-bar\"></div>\n          </div>\n        </div>\n      ","response":"Enter","trial_type":"html-keyboard-response","trial_index":77,"plugin_version":"2.1.0","time_elapsed":1213982,"random_initial_angle":277,"response_angle_css":307,"response_angle_rdk":143,"angular_error_target":-128,"angular_error_distractor":-29,"target_direction":271,"target_group":"white","reward_points":0},{"rt":null,"stimulus":"\n          <p style=\"color: #FF3333;\">Your reward: 0 points</p>\n        ","response":null,"trial_type":"html-keyboard-response","trial_index":78,"plugin_version":"2.1.0","time_elapsed":1215993},{"rt":null,"stimulus":"<div class=\"fixation\" style=\"font-size: 60px;\">+</div>","response":null,"trial_type":"html-keyboard-response","trial_index":79,"plugin_version":"2.1.0","time_elapsed":1216995},{"phase":"learning-awareness","target_group":"white","condition_label":"W_H_vs_B_L_rep23","target_direction":263,"distractor_direction":148,"session_rotation":236,"rt":-1,"response":"","correct":false,"choices":"ALL_KEYS","correct_choice":["a"],"trial_duration":2000,"flip_timestamps":[],"response_ends_trial":false,"number_of_apertures":200,"number_of_dots":[1,1,1,1,1,1,1,1,1,1,1,1,1,1,1,1,1,1,1,1,1,1,1,1,1,1,1,1,1,1,1,1,1,1,1,1,1,1,1,1,1,1,1,1,1,1,1,1,1,1,1,1,1,1,1,1,1,1,1,1,1,1,1,1,1,1,1,1,1,1,1,1,1,1,1,1,1,1,1,1,1,1,1,1,1,1,1,1,1,1,1,1,1,1,1,1,1,1,1,1,1,1,1,1,1,1,1,1,1,1,1,1,1,1,1,1,1,1,1,1,1,1,1,1,1,1,1,1,1,1,1,1,1,1,1,1,1,1,1,1,1,1,1,1,1,1,1,1,1,1,1,1,1,1,1,1,1,1,1,1,1,1,1,1,1,1,1,1,1,1,1,1,1,1,1,1,1,1,1,1,1,1,1,1,1,1,1,1,1,1,1,1,1,1,1,1,1,1,1,1],"number_of_sets":1,"coherent_direction":[148,263,148,148,148,263,148,148,263,148,263,148,148,148,263,263,148,148,148,263,263,148,263,148,263,148,148,263,148,148,263,263,263,263,263,148,263,148,148,263,263,263,263,148,263,148,263,263,148,148,148,263,263,263,263,263,148,263,148,148,263,263,148,148,148,148,148,148,148,148,148,148,148,263,148,263,263,263,263,148,148,263,263,263,263,263,263,263,263,263,148,148,148,263,263,148,148,148,148,148,263,263,263,148,148,263,263,148,148,148,148,148,263,148,148,148,148,263,148,148,263,148,148,148,263,263,148,263,263,263,263,148,263,263,263,263,263,263,148,263,263,263,148,263,263,263,148,263,148,263,148,148,263,263,263,148,263,148,263,263,148,148,263,263,263,263,148,148,263,263,263,263,263,148,148,148,263,263,148,148,263,148,263,263,263,148,148,148,148,263,148,148,148,263,148,148,148,263,148,148],"coherence":1,"opposite_coherence":0,"dot_radius":2,"dot_side_length":1,"dot_life":-1,"move_distance":1,"aperture_width":300,"aperture_height":300,"dot_color":["black","white","black","black","black","white","black","black","white","black","white","black","black","black","white","white","black","black","black","white","white","black","white","black","white","black","black","white","black","black","white","white","white","white","white","black","white","black","black","white","white","white","white","black","white","black","white","white","black","black","black","white","white","white","white","white","black","white","black","black","white","white","black","black","black","black","black","black","black","black","black","black","black","white","black","white","white","white","white","black","black","white","white","white","white","white","white","white","white","white","black","black","black","white","white","black","black","black","black","black","white","white","white","black","black","white","white","black","black","black","black","black","white","black","black","black","black","white","black","black","white","black","black","black","white","white","black","white","white","white","white","black","white","white","white","white","white","white","black","white","white","white","black","white","white","white","black","white","black","white","black","black","white","white","white","black","white","black","white","white","black","black","white","white","white","white","black","black","white","white","white","white","white","black","black","black","white","white","black","black","white","black","white","white","white","black","black","black","black","white","black","black","black","white","black","black","black","white","black","black"],"dot_shape":"circle","background_color":"#AAA","RDK_type":3,"aperture_type":2,"reinsert_type":2,"frame_rate":16.783333333333335,"frame_rate_array":[9,17,17,16,17,16,17,17,17,17,17,17,17,17,17,16,16,17,16,17,17,17,17,17,17,17,17,17,17,17,17,17,17,16,17,17,17,17,17,17,17,17,17,17,17,17,16,17,16,17,17,17,16,17,17,17,17,17,17,16,17,17,17,17,16,17,17,17,17,17,17,17,17,17,17,17,17,17,17,17,17,17,16,17,16,17,17,17,17,17,17,17,17,17,17,17,17,17,16,17,16,17,17,17,17,17,17,17,16,17,16,17,17,17,17,17,17,17,16,17],"number_of_frames":120,"aperture_center_x":683,"aperture_center_y":384,"fixation_cross":true,"fixation_cross_width":15,"fixation_cross_height":15,"fixation_cross_color":"#111","fixation_cross_thickness":1,"border":true,"border_thickness":2,"border_color":"transparent","canvas_width":1366,"canvas_height":768,"trial_type":"rdk","trial_index":80,"plugin_version":"2.0.0","time_elapsed":1219005},{"rt":1448,"stimulus":"\n        <div class=\"response-container\">\n          <div class=\"response-instruction\">\n            <p>rotate the bar by using the left and right arrow keys.</p>\n            <p>when you are determined, press the Enter key.</p>\n          </div>\n          <div class=\"response-circle\">\n            <div class=\"response-fixation\"></div>\n            <div id=\"bar\" class=\"rotating-bar\"></div>\n          </div>\n        </div>\n      ","response":"Enter","trial_type":"html-keyboard-response","trial_index":81,"plugin_version":"2.1.0","time_elapsed":1220453,"random_initial_angle":34,"response_angle_css":-26,"response_angle_rdk":116,"angular_error_target":-147,"angular_error_distractor":-32,"target_direction":263,"target_group":"white","reward_points":0},{"rt":null,"stimulus":"\n          <p style=\"color: #FF3333;\">Your reward: 0 points</p>\n        ","response":null,"trial_type":"html-keyboard-response","trial_index":82,"plugin_version":"2.1.0","time_elapsed":1222468},{"rt":null,"stimulus":"<div class=\"fixation\" style=\"font-size: 60px;\">+</div>","response":null,"trial_type":"html-keyboard-response","trial_index":83,"plugin_version":"2.1.0","time_elapsed":1223471},{"phase":"learning-awareness","target_group":"white","condition_label":"W_H_vs_B_L_rep20","target_direction":268,"distractor_direction":173,"session_rotation":236,"rt":-1,"response":"","correct":false,"choices":"ALL_KEYS","correct_choice":["a"],"trial_duration":2000,"flip_timestamps":[],"response_ends_trial":false,"number_of_apertures":200,"number_of_dots":[1,1,1,1,1,1,1,1,1,1,1,1,1,1,1,1,1,1,1,1,1,1,1,1,1,1,1,1,1,1,1,1,1,1,1,1,1,1,1,1,1,1,1,1,1,1,1,1,1,1,1,1,1,1,1,1,1,1,1,1,1,1,1,1,1,1,1,1,1,1,1,1,1,1,1,1,1,1,1,1,1,1,1,1,1,1,1,1,1,1,1,1,1,1,1,1,1,1,1,1,1,1,1,1,1,1,1,1,1,1,1,1,1,1,1,1,1,1,1,1,1,1,1,1,1,1,1,1,1,1,1,1,1,1,1,1,1,1,1,1,1,1,1,1,1,1,1,1,1,1,1,1,1,1,1,1,1,1,1,1,1,1,1,1,1,1,1,1,1,1,1,1,1,1,1,1,1,1,1,1,1,1,1,1,1,1,1,1,1,1,1,1,1,1,1,1,1,1,1,1],"number_of_sets":1,"coherent_direction":[268,268,173,268,268,173,268,268,268,268,268,268,268,173,268,173,173,173,268,173,268,173,268,173,173,173,268,173,173,173,268,268,268,268,268,173,173,173,268,268,173,268,173,173,268,268,268,268,173,268,268,268,173,268,268,268,268,173,268,173,173,173,173,268,268,268,268,268,268,268,173,173,173,173,268,268,173,173,173,173,173,173,268,268,173,173,173,173,173,268,268,268,268,173,173,268,173,173,268,268,268,173,173,173,268,173,173,268,268,173,173,268,173,268,268,173,173,173,268,173,268,173,268,268,268,268,173,268,268,268,173,173,173,173,268,173,173,268,268,268,268,173,173,173,173,268,173,173,268,173,173,173,268,268,268,268,268,268,173,173,173,173,268,268,268,268,173,173,173,173,173,268,268,268,268,268,268,173,173,173,173,268,268,268,173,268,173,173,173,173,173,268,268,173,173,268,173,173,173,173],"coherence":1,"opposite_coherence":0,"dot_radius":2,"dot_side_length":1,"dot_life":-1,"move_distance":1,"aperture_width":300,"aperture_height":300,"dot_color":["white","white","black","white","white","black","white","white","white","white","white","white","white","black","white","black","black","black","white","black","white","black","white","black","black","black","white","black","black","black","white","white","white","white","white","black","black","black","white","white","black","white","black","black","white","white","white","white","black","white","white","white","black","white","white","white","white","black","white","black","black","black","black","white","white","white","white","white","white","white","black","black","black","black","white","white","black","black","black","black","black","black","white","white","black","black","black","black","black","white","white","white","white","black","black","white","black","black","white","white","white","black","black","black","white","black","black","white","white","black","black","white","black","white","white","black","black","black","white","black","white","black","white","white","white","white","black","white","white","white","black","black","black","black","white","black","black","white","white","white","white","black","black","black","black","white","black","black","white","black","black","black","white","white","white","white","white","white","black","black","black","black","white","white","white","white","black","black","black","black","black","white","white","white","white","white","white","black","black","black","black","white","white","white","black","white","black","black","black","black","black","white","white","black","black","white","black","black","black","black"],"dot_shape":"circle","background_color":"#AAA","RDK_type":3,"aperture_type":2,"reinsert_type":2,"frame_rate":16.776859504132233,"frame_rate_array":[12,17,17,17,16,17,17,16,17,17,17,17,17,17,16,17,16,17,17,16,17,17,17,17,17,16,17,17,17,16,17,16,17,16,17,17,17,17,16,17,17,17,17,17,16,17,17,17,17,17,16,17,17,17,17,16,16,17,17,17,17,17,16,17,17,17,17,17,17,17,17,17,17,17,16,17,17,17,17,17,16,17,17,17,17,17,16,17,17,17,17,17,16,17,16,17,17,17,16,17,17,16,17,17,17,17,17,17,17,17,17,17,17,17,17,17,17,17,17,17,17],"number_of_frames":121,"aperture_center_x":683,"aperture_center_y":384,"fixation_cross":true,"fixation_cross_width":15,"fixation_cross_height":15,"fixation_cross_color":"#111","fixation_cross_thickness":1,"border":true,"border_thickness":2,"border_color":"transparent","canvas_width":1366,"canvas_height":768,"trial_type":"rdk","trial_index":84,"plugin_version":"2.0.0","time_elapsed":1225485},{"rt":920,"stimulus":"\n        <div class=\"response-container\">\n          <div class=\"response-instruction\">\n            <p>rotate the bar by using the left and right arrow keys.</p>\n            <p>when you are determined, press the Enter key.</p>\n          </div>\n          <div class=\"response-circle\">\n            <div class=\"response-fixation\"></div>\n            <div id=\"bar\" class=\"rotating-bar\"></div>\n          </div>\n        </div>\n      ","response":"Enter","trial_type":"html-keyboard-response","trial_index":85,"plugin_version":"2.1.0","time_elapsed":1226406,"random_initial_angle":109,"response_angle_css":136,"response_angle_rdk":314,"angular_error_target":46,"angular_error_distractor":141,"target_direction":268,"target_group":"white","reward_points":0},{"rt":null,"stimulus":"\n          <p style=\"color: #FF3333;\">Your reward: 0 points</p>\n        ","response":null,"trial_type":"html-keyboard-response","trial_index":86,"plugin_version":"2.1.0","time_elapsed":1228422},{"rt":null,"stimulus":"<div class=\"fixation\" style=\"font-size: 60px;\">+</div>","response":null,"trial_type":"html-keyboard-response","trial_index":87,"plugin_version":"2.1.0","time_elapsed":1229426},{"phase":"learning-awareness","target_group":"white","condition_label":"W_H_vs_B_L_rep13","target_direction":267,"distractor_direction":167,"session_rotation":236,"rt":-1,"response":"","correct":false,"choices":"ALL_KEYS","correct_choice":["a"],"trial_duration":2000,"flip_timestamps":[],"response_ends_trial":false,"number_of_apertures":200,"number_of_dots":[1,1,1,1,1,1,1,1,1,1,1,1,1,1,1,1,1,1,1,1,1,1,1,1,1,1,1,1,1,1,1,1,1,1,1,1,1,1,1,1,1,1,1,1,1,1,1,1,1,1,1,1,1,1,1,1,1,1,1,1,1,1,1,1,1,1,1,1,1,1,1,1,1,1,1,1,1,1,1,1,1,1,1,1,1,1,1,1,1,1,1,1,1,1,1,1,1,1,1,1,1,1,1,1,1,1,1,1,1,1,1,1,1,1,1,1,1,1,1,1,1,1,1,1,1,1,1,1,1,1,1,1,1,1,1,1,1,1,1,1,1,1,1,1,1,1,1,1,1,1,1,1,1,1,1,1,1,1,1,1,1,1,1,1,1,1,1,1,1,1,1,1,1,1,1,1,1,1,1,1,1,1,1,1,1,1,1,1,1,1,1,1,1,1,1,1,1,1,1,1],"number_of_sets":1,"coherent_direction":[167,167,167,267,267,267,267,267,267,167,267,167,167,167,167,267,167,267,167,167,267,267,267,267,167,267,267,267,267,267,267,167,267,167,267,267,167,167,167,267,267,167,267,167,167,167,267,267,167,167,267,167,267,267,167,267,167,267,167,267,267,167,167,267,267,267,167,267,267,267,267,167,267,267,267,167,267,267,267,267,167,167,167,267,167,167,267,167,267,267,267,267,167,167,267,167,167,167,167,267,267,167,167,167,167,167,167,267,167,167,167,167,267,167,167,167,267,167,267,167,167,267,167,167,167,167,167,167,267,267,167,267,167,267,167,267,167,167,167,167,267,167,167,167,267,267,267,167,267,267,267,167,267,267,167,267,267,167,167,267,167,167,167,267,267,167,167,267,267,267,167,167,267,267,267,267,167,267,167,267,267,267,167,267,167,167,267,267,167,267,267,167,167,167,267,167,267,267,167,167],"coherence":1,"opposite_coherence":0,"dot_radius":2,"dot_side_length":1,"dot_life":-1,"move_distance":1,"aperture_width":300,"aperture_height":300,"dot_color":["black","black","black","white","white","white","white","white","white","black","white","black","black","black","black","white","black","white","black","black","white","white","white","white","black","white","white","white","white","white","white","black","white","black","white","white","black","black","black","white","white","black","white","black","black","black","white","white","black","black","white","black","white","white","black","white","black","white","black","white","white","black","black","white","white","white","black","white","white","white","white","black","white","white","white","black","white","white","white","white","black","black","black","white","black","black","white","black","white","white","white","white","black","black","white","black","black","black","black","white","white","black","black","black","black","black","black","white","black","black","black","black","white","black","black","black","white","black","white","black","black","white","black","black","black","black","black","black","white","white","black","white","black","white","black","white","black","black","black","black","white","black","black","black","white","white","white","black","white","white","white","black","white","white","black","white","white","black","black","white","black","black","black","white","white","black","black","white","white","white","black","black","white","white","white","white","black","white","black","white","white","white","black","white","black","black","white","white","black","white","white","black","black","black","white","black","white","white","black","black"],"dot_shape":"circle","background_color":"#AAA","RDK_type":3,"aperture_type":2,"reinsert_type":2,"frame_rate":16.71900826446281,"frame_rate_array":[3,17,16,17,17,17,17,16,17,17,17,17,17,16,17,17,17,17,17,17,17,17,17,16,17,16,17,17,17,17,17,16,16,17,17,17,17,16,17,17,17,17,17,17,17,17,16,17,17,16,16,17,17,17,17,17,17,17,17,17,17,17,17,17,16,17,17,17,17,17,17,17,17,17,17,17,17,17,16,17,17,17,17,17,17,16,17,17,17,17,17,16,17,17,17,17,17,17,17,17,17,17,17,16,17,16,17,17,17,17,16,17,17,17,17,16,17,17,17,16,17],"number_of_frames":121,"aperture_center_x":683,"aperture_center_y":384,"fixation_cross":true,"fixation_cross_width":15,"fixation_cross_height":15,"fixation_cross_color":"#111","fixation_cross_thickness":1,"border":true,"border_thickness":2,"border_color":"transparent","canvas_width":1366,"canvas_height":768,"trial_type":"rdk","trial_index":88,"plugin_version":"2.0.0","time_elapsed":1231431},{"rt":1750,"stimulus":"\n        <div class=\"response-container\">\n          <div class=\"response-instruction\">\n            <p>rotate the bar by using the left and right arrow keys.</p>\n            <p>when you are determined, press the Enter key.</p>\n          </div>\n          <div class=\"response-circle\">\n            <div class=\"response-fixation\"></div>\n            <div id=\"bar\" class=\"rotating-bar\"></div>\n          </div>\n        </div>\n      ","response":"Enter","trial_type":"html-keyboard-response","trial_index":89,"plugin_version":"2.1.0","time_elapsed":1233181,"random_initial_angle":251,"response_angle_css":308,"response_angle_rdk":142,"angular_error_target":-125,"angular_error_distractor":-25,"target_direction":267,"target_group":"white","reward_points":0},{"rt":null,"stimulus":"\n          <p style=\"color: #FF3333;\">Your reward: 0 points</p>\n        ","response":null,"trial_type":"html-keyboard-response","trial_index":90,"plugin_version":"2.1.0","time_elapsed":1235187},{"rt":null,"stimulus":"<div class=\"fixation\" style=\"font-size: 60px;\">+</div>","response":null,"trial_type":"html-keyboard-response","trial_index":91,"plugin_version":"2.1.0","time_elapsed":1236189},{"phase":"learning-awareness","target_group":"white","condition_label":"W_H_vs_B_L_rep10","target_direction":252,"distractor_direction":155,"session_rotation":236,"rt":-1,"response":"","correct":false,"choices":"ALL_KEYS","correct_choice":["a"],"trial_duration":2000,"flip_timestamps":[],"response_ends_trial":false,"number_of_apertures":200,"number_of_dots":[1,1,1,1,1,1,1,1,1,1,1,1,1,1,1,1,1,1,1,1,1,1,1,1,1,1,1,1,1,1,1,1,1,1,1,1,1,1,1,1,1,1,1,1,1,1,1,1,1,1,1,1,1,1,1,1,1,1,1,1,1,1,1,1,1,1,1,1,1,1,1,1,1,1,1,1,1,1,1,1,1,1,1,1,1,1,1,1,1,1,1,1,1,1,1,1,1,1,1,1,1,1,1,1,1,1,1,1,1,1,1,1,1,1,1,1,1,1,1,1,1,1,1,1,1,1,1,1,1,1,1,1,1,1,1,1,1,1,1,1,1,1,1,1,1,1,1,1,1,1,1,1,1,1,1,1,1,1,1,1,1,1,1,1,1,1,1,1,1,1,1,1,1,1,1,1,1,1,1,1,1,1,1,1,1,1,1,1,1,1,1,1,1,1,1,1,1,1,1,1],"number_of_sets":1,"coherent_direction":[252,155,155,252,155,155,155,155,155,252,252,155,155,155,155,155,252,155,155,252,155,252,252,155,252,252,252,155,252,155,155,252,252,252,252,155,252,252,155,155,155,155,252,252,252,252,155,252,252,252,252,252,155,252,155,155,252,155,155,155,252,155,252,155,155,155,155,252,252,155,252,252,252,155,155,252,252,252,252,252,155,252,155,155,252,155,155,155,252,155,252,155,252,155,155,155,155,252,155,252,155,252,252,252,155,155,252,252,155,252,252,155,155,252,155,252,155,155,155,252,155,155,155,252,252,155,252,252,155,155,252,155,252,155,252,155,155,155,155,252,252,252,155,155,155,155,155,252,155,252,252,155,155,252,252,252,252,155,252,252,252,252,252,252,155,155,252,155,252,155,155,252,155,155,155,252,155,252,155,252,155,155,252,252,155,252,155,252,155,252,252,155,252,252,252,252,252,155,252,252],"coherence":1,"opposite_coherence":0,"dot_radius":2,"dot_side_length":1,"dot_life":-1,"move_distance":1,"aperture_width":300,"aperture_height":300,"dot_color":["white","black","black","white","black","black","black","black","black","white","white","black","black","black","black","black","white","black","black","white","black","white","white","black","white","white","white","black","white","black","black","white","white","white","white","black","white","white","black","black","black","black","white","white","white","white","black","white","white","white","white","white","black","white","black","black","white","black","black","black","white","black","white","black","black","black","black","white","white","black","white","white","white","black","black","white","white","white","white","white","black","white","black","black","white","black","black","black","white","black","white","black","white","black","black","black","black","white","black","white","black","white","white","white","black","black","white","white","black","white","white","black","black","white","black","white","black","black","black","white","black","black","black","white","white","black","white","white","black","black","white","black","white","black","white","black","black","black","black","white","white","white","black","black","black","black","black","white","black","white","white","black","black","white","white","white","white","black","white","white","white","white","white","white","black","black","white","black","white","black","black","white","black","black","black","white","black","white","black","white","black","black","white","white","black","white","black","white","black","white","white","black","white","white","white","white","white","black","white","white"],"dot_shape":"circle","background_color":"#AAA","RDK_type":3,"aperture_type":2,"reinsert_type":2,"frame_rate":16.68595041322314,"frame_rate_array":[2,17,17,17,17,17,17,17,16,17,17,17,17,17,16,17,17,17,16,17,17,17,17,17,16,16,17,17,16,17,17,17,17,16,17,17,17,16,16,17,17,17,16,17,17,17,17,17,16,17,17,17,17,17,16,17,17,16,17,17,16,17,17,17,17,17,16,17,17,16,17,17,16,17,17,17,16,17,16,17,17,17,17,17,17,17,17,17,17,17,17,16,17,17,17,17,17,16,17,17,17,17,16,17,17,17,17,17,17,17,17,17,17,17,17,17,17,17,17,17,16],"number_of_frames":121,"aperture_center_x":683,"aperture_center_y":384,"fixation_cross":true,"fixation_cross_width":15,"fixation_cross_height":15,"fixation_cross_color":"#111","fixation_cross_thickness":1,"border":true,"border_thickness":2,"border_color":"transparent","canvas_width":1366,"canvas_height":768,"trial_type":"rdk","trial_index":92,"plugin_version":"2.0.0","time_elapsed":1238193},{"rt":1764,"stimulus":"\n        <div class=\"response-container\">\n          <div class=\"response-instruction\">\n            <p>rotate the bar by using the left and right arrow keys.</p>\n            <p>when you are determined, press the Enter key.</p>\n          </div>\n          <div class=\"response-circle\">\n            <div class=\"response-fixation\"></div>\n            <div id=\"bar\" class=\"rotating-bar\"></div>\n          </div>\n        </div>\n      ","response":"Enter","trial_type":"html-keyboard-response","trial_index":93,"plugin_version":"2.1.0","time_elapsed":1239958,"random_initial_angle":22,"response_angle_css":-57,"response_angle_rdk":147,"angular_error_target":-105,"angular_error_distractor":-8,"target_direction":252,"target_group":"white","reward_points":0},{"rt":null,"stimulus":"\n          <p style=\"color: #FF3333;\">Your reward: 0 points</p>\n        ","response":null,"trial_type":"html-keyboard-response","trial_index":94,"plugin_version":"2.1.0","time_elapsed":1241962},{"rt":null,"stimulus":"<div class=\"fixation\" style=\"font-size: 60px;\">+</div>","response":null,"trial_type":"html-keyboard-response","trial_index":95,"plugin_version":"2.1.0","time_elapsed":1242965},{"phase":"learning-awareness","target_group":"white","condition_label":"W_H_vs_B_L_rep17","target_direction":259,"distractor_direction":157,"session_rotation":236,"rt":-1,"response":"","correct":false,"choices":"ALL_KEYS","correct_choice":["a"],"trial_duration":2000,"flip_timestamps":[],"response_ends_trial":false,"number_of_apertures":200,"number_of_dots":[1,1,1,1,1,1,1,1,1,1,1,1,1,1,1,1,1,1,1,1,1,1,1,1,1,1,1,1,1,1,1,1,1,1,1,1,1,1,1,1,1,1,1,1,1,1,1,1,1,1,1,1,1,1,1,1,1,1,1,1,1,1,1,1,1,1,1,1,1,1,1,1,1,1,1,1,1,1,1,1,1,1,1,1,1,1,1,1,1,1,1,1,1,1,1,1,1,1,1,1,1,1,1,1,1,1,1,1,1,1,1,1,1,1,1,1,1,1,1,1,1,1,1,1,1,1,1,1,1,1,1,1,1,1,1,1,1,1,1,1,1,1,1,1,1,1,1,1,1,1,1,1,1,1,1,1,1,1,1,1,1,1,1,1,1,1,1,1,1,1,1,1,1,1,1,1,1,1,1,1,1,1,1,1,1,1,1,1,1,1,1,1,1,1,1,1,1,1,1,1],"number_of_sets":1,"coherent_direction":[157,157,157,157,157,259,157,157,259,157,259,259,157,259,157,259,157,157,259,157,259,157,259,259,259,259,259,157,157,259,259,157,259,157,259,259,157,259,259,157,259,259,157,157,259,259,157,259,157,157,259,259,259,259,157,157,259,157,157,259,259,259,157,157,157,157,259,157,157,157,259,259,259,157,259,157,259,157,157,259,157,259,259,157,259,157,157,259,259,157,157,259,157,259,259,157,157,157,259,259,259,157,157,259,157,259,259,157,259,259,157,157,259,259,259,259,157,259,157,157,259,259,259,259,157,157,157,259,157,259,259,259,259,157,259,157,157,157,157,259,157,259,259,157,259,157,157,157,157,157,259,157,259,259,157,157,259,157,157,157,259,259,157,157,157,259,259,157,157,157,157,157,157,259,259,259,259,259,259,157,259,157,259,259,157,259,157,259,259,259,259,259,259,157,157,157,157,157,259,157],"coherence":1,"opposite_coherence":0,"dot_radius":2,"dot_side_length":1,"dot_life":-1,"move_distance":1,"aperture_width":300,"aperture_height":300,"dot_color":["black","black","black","black","black","white","black","black","white","black","white","white","black","white","black","white","black","black","white","black","white","black","white","white","white","white","white","black","black","white","white","black","white","black","white","white","black","white","white","black","white","white","black","black","white","white","black","white","black","black","white","white","white","white","black","black","white","black","black","white","white","white","black","black","black","black","white","black","black","black","white","white","white","black","white","black","white","black","black","white","black","white","white","black","white","black","black","white","white","black","black","white","black","white","white","black","black","black","white","white","white","black","black","white","black","white","white","black","white","white","black","black","white","white","white","white","black","white","black","black","white","white","white","white","black","black","black","white","black","white","white","white","white","black","white","black","black","black","black","white","black","white","white","black","white","black","black","black","black","black","white","black","white","white","black","black","white","black","black","black","white","white","black","black","black","white","white","black","black","black","black","black","black","white","white","white","white","white","white","black","white","black","white","white","black","white","black","white","white","white","white","white","white","black","black","black","black","black","white","black"],"dot_shape":"circle","background_color":"#AAA","RDK_type":3,"aperture_type":2,"reinsert_type":2,"frame_rate":16.71900826446281,"frame_rate_array":[4,16,17,16,16,17,17,17,17,17,16,17,17,17,17,17,17,17,17,17,18,16,16,17,17,17,17,17,17,17,17,17,17,17,16,16,17,17,17,16,17,17,17,17,17,17,17,16,17,17,16,17,16,17,17,17,17,17,17,17,17,17,17,17,17,17,17,17,17,17,16,17,17,16,17,17,17,17,17,17,17,17,17,17,17,17,17,17,16,17,17,17,17,17,16,17,17,17,16,16,17,17,17,17,17,17,16,16,17,17,16,17,17,17,17,17,17,17,17,16,17],"number_of_frames":121,"aperture_center_x":683,"aperture_center_y":384,"fixation_cross":true,"fixation_cross_width":15,"fixation_cross_height":15,"fixation_cross_color":"#111","fixation_cross_thickness":1,"border":true,"border_thickness":2,"border_color":"transparent","canvas_width":1366,"canvas_height":768,"trial_type":"rdk","trial_index":96,"plugin_version":"2.0.0","time_elapsed":1244970},{"rt":2003,"stimulus":"\n        <div class=\"response-container\">\n          <div class=\"response-instruction\">\n            <p>rotate the bar by using the left and right arrow keys.</p>\n            <p>when you are determined, press the Enter key.</p>\n          </div>\n          <div class=\"response-circle\">\n            <div class=\"response-fixation\"></div>\n            <div id=\"bar\" class=\"rotating-bar\"></div>\n          </div>\n        </div>\n      ","response":"Enter","trial_type":"html-keyboard-response","trial_index":97,"plugin_version":"2.1.0","time_elapsed":1246973,"random_initial_angle":163,"response_angle_css":304,"response_angle_rdk":146,"angular_error_target":-113,"angular_error_distractor":-11,"target_direction":259,"target_group":"white","reward_points":0},{"rt":null,"stimulus":"\n          <p style=\"color: #FF3333;\">Your reward: 0 points</p>\n        ","response":null,"trial_type":"html-keyboard-response","trial_index":98,"plugin_version":"2.1.0","time_elapsed":1248986},{"rt":null,"stimulus":"<div class=\"fixation\" style=\"font-size: 60px;\">+</div>","response":null,"trial_type":"html-keyboard-response","trial_index":99,"plugin_version":"2.1.0","time_elapsed":1249988},{"phase":"learning-awareness","target_group":"white","condition_label":"W_H_vs_B_L_rep2","target_direction":269,"distractor_direction":161,"session_rotation":236,"rt":-1,"response":"","correct":false,"choices":"ALL_KEYS","correct_choice":["a"],"trial_duration":2000,"flip_timestamps":[],"response_ends_trial":false,"number_of_apertures":200,"number_of_dots":[1,1,1,1,1,1,1,1,1,1,1,1,1,1,1,1,1,1,1,1,1,1,1,1,1,1,1,1,1,1,1,1,1,1,1,1,1,1,1,1,1,1,1,1,1,1,1,1,1,1,1,1,1,1,1,1,1,1,1,1,1,1,1,1,1,1,1,1,1,1,1,1,1,1,1,1,1,1,1,1,1,1,1,1,1,1,1,1,1,1,1,1,1,1,1,1,1,1,1,1,1,1,1,1,1,1,1,1,1,1,1,1,1,1,1,1,1,1,1,1,1,1,1,1,1,1,1,1,1,1,1,1,1,1,1,1,1,1,1,1,1,1,1,1,1,1,1,1,1,1,1,1,1,1,1,1,1,1,1,1,1,1,1,1,1,1,1,1,1,1,1,1,1,1,1,1,1,1,1,1,1,1,1,1,1,1,1,1,1,1,1,1,1,1,1,1,1,1,1,1],"number_of_sets":1,"coherent_direction":[269,161,269,269,161,269,269,161,161,161,161,269,161,161,161,269,269,269,161,269,269,161,161,269,269,269,269,161,269,269,269,269,269,161,269,161,269,269,161,269,269,161,161,161,269,161,269,161,161,269,161,269,161,269,161,269,269,161,161,269,161,269,161,161,161,269,269,269,269,269,269,161,161,269,161,269,161,161,161,161,269,161,161,269,269,269,269,269,161,161,161,161,269,161,269,161,269,269,269,269,161,269,269,269,269,269,269,269,269,269,269,161,269,269,269,161,161,161,161,269,161,269,161,161,161,161,269,161,269,161,161,269,269,161,161,269,269,161,161,269,161,161,269,269,161,161,269,269,161,269,161,161,161,161,161,161,269,269,161,269,161,269,269,161,161,161,269,161,161,161,161,161,269,161,161,161,161,161,269,161,269,161,161,269,161,269,269,161,269,161,161,161,269,269,269,161,269,161,269,269],"coherence":1,"opposite_coherence":0,"dot_radius":2,"dot_side_length":1,"dot_life":-1,"move_distance":1,"aperture_width":300,"aperture_height":300,"dot_color":["white","black","white","white","black","white","white","black","black","black","black","white","black","black","black","white","white","white","black","white","white","black","black","white","white","white","white","black","white","white","white","white","white","black","white","black","white","white","black","white","white","black","black","black","white","black","white","black","black","white","black","white","black","white","black","white","white","black","black","white","black","white","black","black","black","white","white","white","white","white","white","black","black","white","black","white","black","black","black","black","white","black","black","white","white","white","white","white","black","black","black","black","white","black","white","black","white","white","white","white","black","white","white","white","white","white","white","white","white","white","white","black","white","white","white","black","black","black","black","white","black","white","black","black","black","black","white","black","white","black","black","white","white","black","black","white","white","black","black","white","black","black","white","white","black","black","white","white","black","white","black","black","black","black","black","black","white","white","black","white","black","white","white","black","black","black","white","black","black","black","black","black","white","black","black","black","black","black","white","black","white","black","black","white","black","white","white","black","white","black","black","black","white","white","white","black","white","black","white","white"],"dot_shape":"circle","background_color":"#AAA","RDK_type":3,"aperture_type":2,"reinsert_type":2,"frame_rate":16.801652892561982,"frame_rate_array":[9,17,17,17,16,17,17,16,17,17,17,17,17,17,17,17,17,17,17,17,17,17,16,17,17,17,17,17,17,16,17,17,17,17,17,16,17,17,17,17,17,17,17,17,17,17,17,16,17,17,17,17,17,16,17,17,17,17,17,17,16,17,17,17,17,16,17,17,17,17,17,17,17,17,17,17,17,17,17,17,17,17,17,17,17,17,17,17,17,16,17,17,17,17,17,16,17,17,16,17,17,16,17,17,17,17,17,16,17,17,17,17,17,16,17,17,17,17,17,16,17],"number_of_frames":121,"aperture_center_x":683,"aperture_center_y":384,"fixation_cross":true,"fixation_cross_width":15,"fixation_cross_height":15,"fixation_cross_color":"#111","fixation_cross_thickness":1,"border":true,"border_thickness":2,"border_color":"transparent","canvas_width":1366,"canvas_height":768,"trial_type":"rdk","trial_index":100,"plugin_version":"2.0.0","time_elapsed":1251998},{"rt":1119,"stimulus":"\n        <div class=\"response-container\">\n          <div class=\"response-instruction\">\n            <p>rotate the bar by using the left and right arrow keys.</p>\n            <p>when you are determined, press the Enter key.</p>\n          </div>\n          <div class=\"response-circle\">\n            <div class=\"response-fixation\"></div>\n            <div id=\"bar\" class=\"rotating-bar\"></div>\n          </div>\n        </div>\n      ","response":"Enter","trial_type":"html-keyboard-response","trial_index":101,"plugin_version":"2.1.0","time_elapsed":1253118,"random_initial_angle":126,"response_angle_css":140,"response_angle_rdk":310,"angular_error_target":41,"angular_error_distractor":149,"target_direction":269,"target_group":"white","reward_points":1},{"rt":null,"stimulus":"\n          <p style=\"color: #FF3333;\">Your reward: 1 points</p>\n        ","response":null,"trial_type":"html-keyboard-response","trial_index":102,"plugin_version":"2.1.0","time_elapsed":1255119},{"rt":null,"stimulus":"<div class=\"fixation\" style=\"font-size: 60px;\">+</div>","response":null,"trial_type":"html-keyboard-response","trial_index":103,"plugin_version":"2.1.0","time_elapsed":1256122},{"phase":"learning-awareness","target_group":"white","condition_label":"W_H_vs_B_L_rep19","target_direction":272,"distractor_direction":180,"session_rotation":236,"rt":-1,"response":"","correct":false,"choices":"ALL_KEYS","correct_choice":["a"],"trial_duration":2000,"flip_timestamps":[],"response_ends_trial":false,"number_of_apertures":200,"number_of_dots":[1,1,1,1,1,1,1,1,1,1,1,1,1,1,1,1,1,1,1,1,1,1,1,1,1,1,1,1,1,1,1,1,1,1,1,1,1,1,1,1,1,1,1,1,1,1,1,1,1,1,1,1,1,1,1,1,1,1,1,1,1,1,1,1,1,1,1,1,1,1,1,1,1,1,1,1,1,1,1,1,1,1,1,1,1,1,1,1,1,1,1,1,1,1,1,1,1,1,1,1,1,1,1,1,1,1,1,1,1,1,1,1,1,1,1,1,1,1,1,1,1,1,1,1,1,1,1,1,1,1,1,1,1,1,1,1,1,1,1,1,1,1,1,1,1,1,1,1,1,1,1,1,1,1,1,1,1,1,1,1,1,1,1,1,1,1,1,1,1,1,1,1,1,1,1,1,1,1,1,1,1,1,1,1,1,1,1,1,1,1,1,1,1,1,1,1,1,1,1,1],"number_of_sets":1,"coherent_direction":[272,272,272,180,180,272,180,180,180,272,180,272,272,272,272,272,180,180,180,180,180,180,272,180,180,180,272,180,272,180,180,180,272,272,272,180,180,272,272,180,272,272,180,180,180,272,272,272,180,272,180,180,272,180,180,180,180,272,180,272,180,272,180,180,272,272,180,272,272,180,272,272,272,180,180,272,272,272,180,180,272,272,272,272,180,180,180,180,272,180,272,272,180,272,272,272,180,180,272,180,180,180,272,272,272,180,180,180,272,272,272,272,180,180,180,272,272,180,180,180,272,180,180,272,272,180,272,272,272,180,272,272,180,180,180,180,272,180,180,272,180,180,180,180,180,272,272,180,272,180,272,272,272,180,180,180,180,272,272,272,180,272,180,272,180,180,180,180,272,180,180,272,180,180,272,272,272,180,272,272,272,180,272,272,272,180,272,180,180,272,272,180,272,272,272,272,272,272,180,272],"coherence":1,"opposite_coherence":0,"dot_radius":2,"dot_side_length":1,"dot_life":-1,"move_distance":1,"aperture_width":300,"aperture_height":300,"dot_color":["white","white","white","black","black","white","black","black","black","white","black","white","white","white","white","white","black","black","black","black","black","black","white","black","black","black","white","black","white","black","black","black","white","white","white","black","black","white","white","black","white","white","black","black","black","white","white","white","black","white","black","black","white","black","black","black","black","white","black","white","black","white","black","black","white","white","black","white","white","black","white","white","white","black","black","white","white","white","black","black","white","white","white","white","black","black","black","black","white","black","white","white","black","white","white","white","black","black","white","black","black","black","white","white","white","black","black","black","white","white","white","white","black","black","black","white","white","black","black","black","white","black","black","white","white","black","white","white","white","black","white","white","black","black","black","black","white","black","black","white","black","black","black","black","black","white","white","black","white","black","white","white","white","black","black","black","black","white","white","white","black","white","black","white","black","black","black","black","white","black","black","white","black","black","white","white","white","black","white","white","white","black","white","white","white","black","white","black","black","white","white","black","white","white","white","white","white","white","black","white"],"dot_shape":"circle","background_color":"#AAA","RDK_type":3,"aperture_type":2,"reinsert_type":2,"frame_rate":16.74380165289256,"frame_rate_array":[3,17,17,17,17,17,17,17,17,17,17,16,17,16,17,17,17,17,17,17,17,17,17,16,16,17,17,17,17,16,17,17,17,17,17,17,17,17,16,17,17,17,17,17,17,17,17,17,17,17,17,16,18,16,17,17,17,17,17,17,17,17,17,17,17,16,17,17,17,17,17,17,17,17,17,17,17,16,17,17,17,17,17,16,17,17,17,17,17,17,16,17,17,17,17,17,16,17,17,17,18,16,16,17,17,17,17,16,16,17,17,17,17,17,16,17,17,17,17,17,16],"number_of_frames":121,"aperture_center_x":683,"aperture_center_y":384,"fixation_cross":true,"fixation_cross_width":15,"fixation_cross_height":15,"fixation_cross_color":"#111","fixation_cross_thickness":1,"border":true,"border_thickness":2,"border_color":"transparent","canvas_width":1366,"canvas_height":768,"trial_type":"rdk","trial_index":104,"plugin_version":"2.0.0","time_elapsed":1258126},{"rt":1951,"stimulus":"\n        <div class=\"response-container\">\n          <div class=\"response-instruction\">\n            <p>rotate the bar by using the left and right arrow keys.</p>\n            <p>when you are determined, press the Enter key.</p>\n          </div>\n          <div class=\"response-circle\">\n            <div class=\"response-fixation\"></div>\n            <div id=\"bar\" class=\"rotating-bar\"></div>\n          </div>\n        </div>\n      ","response":"Enter","trial_type":"html-keyboard-response","trial_index":105,"plugin_version":"2.1.0"