[{"rt":44241,"stimulus":"Welcome to the experiment. Press any key to begin.","response":"j","trial_type":"html-keyboard-response","trial_index":0,"plugin_version":"2.1.0","time_elapsed":44250},{"rt":100342,"stimulus":"\n        <div class=\"instructions-container\">\n          <h2>Instructions</h2>\n\n          <p>\n          In this experiment, you will see <strong>two Random Dot Kinematograms (RDKs)</strong> displayed simultaneously.\n          </p>\n\n          <p>\n          An RDK is a visual stimulus consisting of many small dots that move coherently in a single direction. \n          In this experiment, the dots will be either <strong>white</strong> or <strong>black</strong> \n          (see the short demo below for an example of an RDK stimulus).\n          </p>\n\n          <p>\n          On each trial, the two RDKs will move in different directions. \n          Your task is to decide <strong>which RDK appears to contain more dots</strong>.\n          </p>\n\n          <p>\n          The RDK that you judge to have more dots is called the <strong>target RDK</strong>. \n          For example, if the white RDK appears to have more dots than the black RDK, \n          you should report the motion direction of the white RDK.\n          </p>\n\n          <p>\n          After viewing the RDKs, you will rotate a bar to indicate the perceived direction of the target RDK \n          using the <strong>left</strong> and <strong>right arrow keys</strong>. \n          Press <strong>Enter</strong> when you are satisfied with your response.\n          When the bar is held down, the rotation speed increases.\n          </p>\n\n          <p>\n          You will receive points based on the <strong>accuracy of your response</strong>, \n          and your final <strong>bonus reward</strong> may depend on your overall performance. \n          Please try to respond as accurately as possible.\n          </p>\n\n          <p>\n          You will first complete <strong>16 practice trials</strong>. \n          Press the <strong>Enter</strong> key to start the practice phase.\n          </p>\n\n          <canvas id=\"instruction-demo-rdk\" width=\"200\" height=\"200\"style=\"display:block;margin:12px auto; border-radius: 50%;\"></canvas>\n        </div>\n      ","response":"Enter","trial_type":"html-keyboard-response","trial_index":1,"plugin_version":"2.1.0","time_elapsed":144609},{"rt":null,"stimulus":"<div class=\"fixation\" style=\"font-size: 60px;\">+</div>","response":null,"trial_type":"html-keyboard-response","trial_index":2,"plugin_version":"2.1.0","time_elapsed":145628},{"target_group":"black","target_index":1,"condition_label":"practice","rt":-1,"response":"","correct":false,"choices":"ALL_KEYS","correct_choice":["a"],"trial_duration":2000,"flip_timestamps":[],"response_ends_trial":false,"number_of_apertures":2,"number_of_dots":[77,100],"number_of_sets":1,"coherent_direction":[337,215],"coherence":1,"opposite_coherence":0,"dot_radius":2,"dot_side_length":1,"dot_life":-1,"move_distance":1,"aperture_width":300,"aperture_height":300,"dot_color":["white","black"],"dot_shape":"circle","background_color":"#AAA","RDK_type":3,"aperture_type":2,"reinsert_type":2,"frame_rate":16.907563025210084,"frame_rate_array":[21,18,16,17,16,17,16,17,17,17,17,17,17,17,17,17,17,17,17,17,17,17,17,17,17,17,16,17,17,17,17,17,17,17,16,17,16,17,17,17,17,17,17,16,17,17,17,17,17,17,17,17,17,16,17,17,17,17,17,16,17,17,17,17,17,17,17,17,16,17,16,17,17,17,17,17,17,17,17,17,17,17,17,17,17,16,17,17,17,17,16,17,17,17,17,16,17,17,17,17,16,17,18,16,17,17,17,17,17,17,17,17,17,17,17,17,16,17,17],"number_of_frames":119,"aperture_center_x":960,"aperture_center_y":540,"fixation_cross":true,"fixation_cross_width":15,"fixation_cross_height":15,"fixation_cross_color":"#111","fixation_cross_thickness":1,"border":true,"border_thickness":2,"border_color":"transparent","canvas_width":1920,"canvas_height":1080,"trial_type":"rdk","trial_index":3,"plugin_version":"2.0.0","time_elapsed":147663,"phase":"practice","target_direction":215,"distractor_direction":337},{"rt":26941,"stimulus":"\n        <div class=\"response-container\">\n          <div class=\"response-instruction\">\n            <p>rotate the bar by using the left and right arrow keys.</p>\n            <p>when you are determined, press the Enter key.</p>\n          </div>\n          <div class=\"response-circle\">\n            <div class=\"response-fixation\"></div>\n            <div id=\"bar\" class=\"rotating-bar\"></div>\n          </div>\n        </div>\n      ","response":"Enter","trial_type":"html-keyboard-response","trial_index":4,"plugin_version":"2.1.0","time_elapsed":174607,"random_initial_angle":276,"response_angle_css":225,"response_angle_rdk":225,"angular_error_target":10,"angular_error_distractor":-112,"target_direction":215,"target_group":"black","reward_points":8},{"rt":null,"stimulus":"\n          <p style=\"color: #00FF00;\">Your reward: 8 points</p>\n        ","response":null,"trial_type":"html-keyboard-response","trial_index":5,"plugin_version":"2.1.0","time_elapsed":176616},{"rt":null,"stimulus":"<div class=\"fixation\" style=\"font-size: 60px;\">+</div>","response":null,"trial_type":"html-keyboard-response","trial_index":6,"plugin_version":"2.1.0","time_elapsed":177630},{"target_group":"black","target_index":1,"condition_label":"practice","rt":-1,"response":"","correct":false,"choices":"ALL_KEYS","correct_choice":["a"],"trial_duration":2000,"flip_timestamps":[],"response_ends_trial":false,"number_of_apertures":2,"number_of_dots":[69,100],"number_of_sets":1,"coherent_direction":[232,332],"coherence":1,"opposite_coherence":0,"dot_radius":2,"dot_side_length":1,"dot_life":-1,"move_distance":1,"aperture_width":300,"aperture_height":300,"dot_color":["white","black"],"dot_shape":"circle","background_color":"#AAA","RDK_type":3,"aperture_type":2,"reinsert_type":2,"frame_rate":16.875,"frame_rate_array":[14,17,17,16,17,17,17,17,17,17,17,17,17,16,17,17,17,17,17,17,17,17,17,17,17,17,17,16,17,17,17,17,17,16,17,17,16,17,17,17,17,17,17,16,17,17,17,17,17,17,17,17,17,17,17,17,17,17,17,16,17,16,17,17,17,17,17,16,17,17,17,17,17,17,17,17,17,17,16,17,16,17,17,17,17,17,16,17,17,17,17,17,17,17,17,17,17,16,17,17,17,17,17,17,17,17,17,17,17,17,17,17,17,17,17,17,18,16,17,18],"number_of_frames":120,"aperture_center_x":960,"aperture_center_y":540,"fixation_cross":true,"fixation_cross_width":15,"fixation_cross_height":15,"fixation_cross_color":"#111","fixation_cross_thickness":1,"border":true,"border_thickness":2,"border_color":"transparent","canvas_width":1920,"canvas_height":1080,"trial_type":"rdk","trial_index":7,"plugin_version":"2.0.0","time_elapsed":179650,"phase":"practice","target_direction":332,"distractor_direction":232},{"rt":6655,"stimulus":"\n        <div class=\"response-container\">\n          <div class=\"response-instruction\">\n            <p>rotate the bar by using the left and right arrow keys.</p>\n            <p>when you are determined, press the Enter key.</p>\n          </div>\n          <div class=\"response-circle\">\n            <div class=\"response-fixation\"></div>\n            <div id=\"bar\" class=\"rotating-bar\"></div>\n          </div>\n        </div>\n      ","response":"Enter","trial_type":"html-keyboard-response","trial_index":8,"plugin_version":"2.1.0","time_elapsed":186308,"random_initial_angle":18,"response_angle_css":-140,"response_angle_rdk":230,"angular_error_target":-102,"angular_error_distractor":-2,"target_direction":332,"target_group":"black","reward_points":0},{"rt":null,"stimulus":"\n          <p style=\"color: #FF3333;\">Your reward: 0 points</p>\n        ","response":null,"trial_type":"html-keyboard-response","trial_index":9,"plugin_version":"2.1.0","time_elapsed":188323},{"rt":null,"stimulus":"<div class=\"fixation\" style=\"font-size: 60px;\">+</div>","response":null,"trial_type":"html-keyboard-response","trial_index":10,"plugin_version":"2.1.0","time_elapsed":189330},{"target_group":"black","target_index":1,"condition_label":"practice","rt":-1,"response":"","correct":false,"choices":"ALL_KEYS","correct_choice":["a"],"trial_duration":2000,"flip_timestamps":[],"response_ends_trial":false,"number_of_apertures":2,"number_of_dots":[69,100],"number_of_sets":1,"coherent_direction":[351,204],"coherence":1,"opposite_coherence":0,"dot_radius":2,"dot_side_length":1,"dot_life":-1,"move_distance":1,"aperture_width":300,"aperture_height":300,"dot_color":["white","black"],"dot_shape":"circle","background_color":"#AAA","RDK_type":3,"aperture_type":2,"reinsert_type":2,"frame_rate":16.85123966942149,"frame_rate_array":[15,15,13,17,17,17,17,17,17,17,17,17,16,17,17,17,18,16,17,17,17,17,17,17,17,16,17,16,17,17,17,17,17,17,17,17,17,17,17,17,17,17,17,17,16,17,16,17,17,17,17,17,17,17,17,17,17,17,17,17,17,17,16,17,17,17,17,17,17,17,17,17,17,17,17,17,17,17,17,17,17,17,17,17,17,16,18,16,17,17,17,17,17,17,17,17,17,17,17,17,17,17,17,17,16,17,17,17,16,17,16,17,17,17,17,17,17,17,17,17,17],"number_of_frames":121,"aperture_center_x":960,"aperture_center_y":540,"fixation_cross":true,"fixation_cross_width":15,"fixation_cross_height":15,"fixation_cross_color":"#111","fixation_cross_thickness":1,"border":true,"border_thickness":2,"border_color":"transparent","canvas_width":1920,"canvas_height":1080,"trial_type":"rdk","trial_index":11,"plugin_version":"2.0.0","time_elapsed":191347,"phase":"practice","target_direction":204,"distractor_direction":351},{"rt":3871,"stimulus":"\n        <div class=\"response-container\">\n          <div class=\"response-instruction\">\n            <p>rotate the bar by using the left and right arrow keys.</p>\n            <p>when you are determined, press the Enter key.</p>\n          </div>\n          <div class=\"response-circle\">\n            <div class=\"response-fixation\"></div>\n            <div id=\"bar\" class=\"rotating-bar\"></div>\n          </div>\n        </div>\n      ","response":"Enter","trial_type":"html-keyboard-response","trial_index":12,"plugin_version":"2.1.0","time_elapsed":195220,"random_initial_angle":254,"response_angle_css":254,"response_angle_rdk":196,"angular_error_target":-8,"angular_error_distractor":-155,"target_direction":204,"target_group":"black","reward_points":8},{"rt":null,"stimulus":"\n          <p style=\"color: #00FF00;\">Your reward: 8 points</p>\n        ","response":null,"trial_type":"html-keyboard-response","trial_index":13,"plugin_version":"2.1.0","time_elapsed":197234},{"rt":null,"stimulus":"<div class=\"fixation\" style=\"font-size: 60px;\">+</div>","response":null,"trial_type":"html-keyboard-response","trial_index":14,"plugin_version":"2.1.0","time_elapsed":198243},{"target_group":"black","target_index":1,"condition_label":"practice","rt":-1,"response":"","correct":false,"choices":"ALL_KEYS","correct_choice":["a"],"trial_duration":2000,"flip_timestamps":[],"response_ends_trial":false,"number_of_apertures":2,"number_of_dots":[73,100],"number_of_sets":1,"coherent_direction":[20,154],"coherence":1,"opposite_coherence":0,"dot_radius":2,"dot_side_length":1,"dot_life":-1,"move_distance":1,"aperture_width":300,"aperture_height":300,"dot_color":["white","black"],"dot_shape":"circle","background_color":"#AAA","RDK_type":3,"aperture_type":2,"reinsert_type":2,"frame_rate":16.52892561983471,"frame_rate_array":[7,8,13,17,17,16,18,16,18,17,16,18,17,16,17,17,17,16,17,16,17,17,17,17,16,17,16,18,15,18,16,16,17,17,17,18,16,16,16,19,16,16,17,16,22,12,16,17,17,16,20,14,17,16,16,17,16,17,17,17,16,18,16,16,16,19,15,16,17,17,17,16,16,17,16,18,15,17,16,17,17,16,17,18,16,16,16,16,18,15,17,18,17,16,18,19,13,17,17,17,17,17,21,13,16,17,19,15,17,16,17,17,16,17,17,17,16,17,17,18,16],"number_of_frames":121,"aperture_center_x":960,"aperture_center_y":540,"fixation_cross":true,"fixation_cross_width":15,"fixation_cross_height":15,"fixation_cross_color":"#111","fixation_cross_thickness":1,"border":true,"border_thickness":2,"border_color":"transparent","canvas_width":1920,"canvas_height":1080,"trial_type":"rdk","trial_index":15,"plugin_version":"2.0.0","time_elapsed":200261,"phase":"practice","target_direction":154,"distractor_direction":20},{"rt":5786,"stimulus":"\n        <div class=\"response-container\">\n          <div class=\"response-instruction\">\n            <p>rotate the bar by using the left and right arrow keys.</p>\n            <p>when you are determined, press the Enter key.</p>\n          </div>\n          <div class=\"response-circle\">\n            <div class=\"response-fixation\"></div>\n            <div id=\"bar\" class=\"rotating-bar\"></div>\n          </div>\n        </div>\n      ","response":"Enter","trial_type":"html-keyboard-response","trial_index":16,"plugin_version":"2.1.0","time_elapsed":206049,"random_initial_angle":345,"response_angle_css":298,"response_angle_rdk":152,"angular_error_target":-2,"angular_error_distractor":132,"target_direction":154,"target_group":"black","reward_points":9},{"rt":null,"stimulus":"\n          <p style=\"color: #00FF00;\">Your reward: 9 points</p>\n        ","response":null,"trial_type":"html-keyboard-response","trial_index":17,"plugin_version":"2.1.0","time_elapsed":208067},{"rt":null,"stimulus":"<div class=\"fixation\" style=\"font-size: 60px;\">+</div>","response":null,"trial_type":"html-keyboard-response","trial_index":18,"plugin_version":"2.1.0","time_elapsed":209075},{"target_group":"white","target_index":0,"condition_label":"practice","rt":-1,"response":"","correct":false,"choices":"ALL_KEYS","correct_choice":["a"],"trial_duration":2000,"flip_timestamps":[],"response_ends_trial":false,"number_of_apertures":2,"number_of_dots":[100,54],"number_of_sets":1,"coherent_direction":[309,50],"coherence":1,"opposite_coherence":0,"dot_radius":2,"dot_side_length":1,"dot_life":-1,"move_distance":1,"aperture_width":300,"aperture_height":300,"dot_color":["white","black"],"dot_shape":"circle","background_color":"#AAA","RDK_type":3,"aperture_type":2,"reinsert_type":2,"frame_rate":16.694214876033058,"frame_rate_array":[3,31,13,14,2,16,17,17,17,17,17,17,17,17,17,17,17,17,17,17,16,16,17,17,16,17,17,17,17,17,17,17,17,17,17,17,17,17,17,17,17,16,16,17,18,16,17,17,17,19,14,17,17,16,17,17,17,17,17,17,17,17,17,17,17,17,17,16,17,17,17,17,17,17,17,17,17,17,17,17,17,17,17,17,17,16,17,16,17,17,17,17,16,17,17,17,17,17,17,17,17,17,17,17,17,17,17,17,17,19,14,17,17,17,17,17,17,16,16,17,17],"number_of_frames":121,"aperture_center_x":960,"aperture_center_y":540,"fixation_cross":true,"fixation_cross_width":15,"fixation_cross_height":15,"fixation_cross_color":"#111","fixation_cross_thickness":1,"border":true,"border_thickness":2,"border_color":"transparent","canvas_width":1920,"canvas_height":1080,"trial_type":"rdk","trial_index":19,"plugin_version":"2.0.0","time_elapsed":211090,"phase":"practice","target_direction":309,"distractor_direction":50},{"rt":4979,"stimulus":"\n        <div class=\"response-container\">\n          <div class=\"response-instruction\">\n            <p>rotate the bar by using the left and right arrow keys.</p>\n            <p>when you are determined, press the Enter key.</p>\n          </div>\n          <div class=\"response-circle\">\n            <div class=\"response-fixation\"></div>\n            <div id=\"bar\" class=\"rotating-bar\"></div>\n          </div>\n        </div>\n      ","response":"Enter","trial_type":"html-keyboard-response","trial_index":20,"plugin_version":"2.1.0","time_elapsed":216070,"random_initial_angle":135,"response_angle_css":129,"response_angle_rdk":321,"angular_error_target":12,"angular_error_distractor":-89,"target_direction":309,"target_group":"white","reward_points":7},{"rt":null,"stimulus":"\n          <p style=\"color: #00FF00;\">Your reward: 7 points</p>\n        ","response":null,"trial_type":"html-keyboard-response","trial_index":21,"plugin_version":"2.1.0","time_elapsed":218073},{"rt":null,"stimulus":"<div class=\"fixation\" style=\"font-size: 60px;\">+</div>","response":null,"trial_type":"html-keyboard-response","trial_index":22,"plugin_version":"2.1.0","time_elapsed":219088},{"target_group":"white","target_index":0,"condition_label":"practice","rt":-1,"response":"","correct":false,"choices":"ALL_KEYS","correct_choice":["a"],"trial_duration":2000,"flip_timestamps":[],"response_ends_trial":false,"number_of_apertures":2,"number_of_dots":[100,100],"number_of_sets":1,"coherent_direction":[147,295],"coherence":1,"opposite_coherence":0,"dot_radius":2,"dot_side_length":1,"dot_life":-1,"move_distance":1,"aperture_width":300,"aperture_height":300,"dot_color":["white","black"],"dot_shape":"circle","background_color":"#AAA","RDK_type":3,"aperture_type":2,"reinsert_type":2,"frame_rate":16.619834710743802,"frame_rate_array":[1,15,20,15,16,17,16,18,17,16,17,17,16,17,17,16,17,17,16,17,18,17,16,18,16,16,18,16,17,17,16,17,17,17,17,15,18,16,17,16,17,17,16,18,17,16,17,17,17,16,20,13,18,15,17,17,16,17,17,17,16,17,17,16,17,17,16,17,17,17,16,17,16,16,18,16,18,16,18,16,17,16,17,18,16,17,17,17,19,14,16,17,16,17,17,17,17,16,17,18,16,17,17,17,17,17,16,17,16,17,19,14,17,19,16,16,18,17,17,17,16],"number_of_frames":121,"aperture_center_x":960,"aperture_center_y":540,"fixation_cross":true,"fixation_cross_width":15,"fixation_cross_height":15,"fixation_cross_color":"#111","fixation_cross_thickness":1,"border":true,"border_thickness":2,"border_color":"transparent","canvas_width":1920,"canvas_height":1080,"trial_type":"rdk","trial_index":23,"plugin_version":"2.0.0","time_elapsed":221098,"phase":"practice","target_direction":147,"distractor_direction":295},{"rt":3920,"stimulus":"\n        <div class=\"response-container\">\n          <div class=\"response-instruction\">\n            <p>rotate the bar by using the left and right arrow keys.</p>\n            <p>when you are determined, press the Enter key.</p>\n          </div>\n          <div class=\"response-circle\">\n            <div class=\"response-fixation\"></div>\n            <div id=\"bar\" class=\"rotating-bar\"></div>\n          </div>\n        </div>\n      ","response":"Enter","trial_type":"html-keyboard-response","trial_index":24,"plugin_version":"2.1.0","time_elapsed":225020,"random_initial_angle":49,"response_angle_css":-59,"response_angle_rdk":149,"angular_error_target":2,"angular_error_distractor":-146,"target_direction":147,"target_group":"white","reward_points":9},{"rt":null,"stimulus":"\n          <p style=\"color: #00FF00;\">Your reward: 9 points</p>\n        ","response":null,"trial_type":"html-keyboard-response","trial_index":25,"plugin_version":"2.1.0","time_elapsed":227036},{"rt":null,"stimulus":"<div class=\"fixation\" style=\"font-size: 60px;\">+</div>","response":null,"trial_type":"html-keyboard-response","trial_index":26,"plugin_version":"2.1.0","time_elapsed":228040},{"target_group":"white","target_index":0,"condition_label":"practice","rt":-1,"response":"","correct":false,"choices":"ALL_KEYS","correct_choice":["a"],"trial_duration":2000,"flip_timestamps":[],"response_ends_trial":false,"number_of_apertures":2,"number_of_dots":[100,62],"number_of_sets":1,"coherent_direction":[84,284],"coherence":1,"opposite_coherence":0,"dot_radius":2,"dot_side_length":1,"dot_life":-1,"move_distance":1,"aperture_width":300,"aperture_height":300,"dot_color":["white","black"],"dot_shape":"circle","background_color":"#AAA","RDK_type":3,"aperture_type":2,"reinsert_type":2,"frame_rate":16.793388429752067,"frame_rate_array":[18,13,16,16,17,16,17,17,17,17,17,16,18,16,17,17,16,17,17,17,17,17,17,17,17,17,17,17,16,17,17,17,17,17,17,17,17,17,17,17,17,17,17,16,17,17,18,15,17,17,17,17,17,17,17,17,16,17,16,17,17,16,17,17,17,17,17,18,16,17,17,16,16,17,17,16,18,17,16,17,17,17,17,16,17,17,17,17,16,17,16,18,16,16,17,17,17,16,18,16,17,17,17,17,17,17,17,16,17,17,16,18,17,16,17,19,15,18,15,17,17],"number_of_frames":121,"aperture_center_x":960,"aperture_center_y":540,"fixation_cross":true,"fixation_cross_width":15,"fixation_cross_height":15,"fixation_cross_color":"#111","fixation_cross_thickness":1,"border":true,"border_thickness":2,"border_color":"transparent","canvas_width":1920,"canvas_height":1080,"trial_type":"rdk","trial_index":27,"plugin_version":"2.0.0","time_elapsed":230076,"phase":"practice","target_direction":84,"distractor_direction":284},{"rt":3469,"stimulus":"\n        <div class=\"response-container\">\n          <div class=\"response-instruction\">\n            <p>rotate the bar by using the left and right arrow keys.</p>\n            <p>when you are determined, press the Enter key.</p>\n          </div>\n          <div class=\"response-circle\">\n            <div class=\"response-fixation\"></div>\n            <div id=\"bar\" class=\"rotating-bar\"></div>\n          </div>\n        </div>\n      ","response":"Enter","trial_type":"html-keyboard-response","trial_index":28,"plugin_version":"2.1.0","time_elapsed":233546,"random_initial_angle":346,"response_angle_css":362,"response_angle_rdk":88,"angular_error_target":4,"angular_error_distractor":164,"target_direction":84,"target_group":"white","reward_points":9},{"rt":null,"stimulus":"\n          <p style=\"color: #00FF00;\">Your reward: 9 points</p>\n        ","response":null,"trial_type":"html-keyboard-response","trial_index":29,"plugin_version":"2.1.0","time_elapsed":235556},{"rt":null,"stimulus":"<div class=\"fixation\" style=\"font-size: 60px;\">+</div>","response":null,"trial_type":"html-keyboard-response","trial_index":30,"plugin_version":"2.1.0","time_elapsed":236572},{"target_group":"white","target_index":0,"condition_label":"practice","rt":-1,"response":"","correct":false,"choices":"ALL_KEYS","correct_choice":["a"],"trial_duration":2000,"flip_timestamps":[],"response_ends_trial":false,"number_of_apertures":2,"number_of_dots":[100,95],"number_of_sets":1,"coherent_direction":[68,164],"coherence":1,"opposite_coherence":0,"dot_radius":2,"dot_side_length":1,"dot_life":-1,"move_distance":1,"aperture_width":300,"aperture_height":300,"dot_color":["white","black"],"dot_shape":"circle","background_color":"#AAA","RDK_type":3,"aperture_type":2,"reinsert_type":2,"frame_rate":16.785123966942148,"frame_rate_array":[17,12,16,17,18,17,16,17,16,17,17,16,17,17,17,17,17,17,16,17,17,16,17,17,16,17,17,17,16,18,22,9,17,17,17,17,17,17,17,17,17,17,17,17,17,17,17,17,17,16,17,18,16,17,17,17,17,17,17,17,17,16,17,17,17,17,17,17,17,17,17,17,17,17,17,17,17,16,17,17,17,16,17,17,16,17,17,17,17,16,18,15,18,16,17,17,17,17,16,17,17,17,17,17,17,16,17,17,17,16,17,17,17,17,16,17,17,17,16,18,16],"number_of_frames":121,"aperture_center_x":960,"aperture_center_y":540,"fixation_cross":true,"fixation_cross_width":15,"fixation_cross_height":15,"fixation_cross_color":"#111","fixation_cross_thickness":1,"border":true,"border_thickness":2,"border_color":"transparent","canvas_width":1920,"canvas_height":1080,"trial_type":"rdk","trial_index":31,"plugin_version":"2.0.0","time_elapsed":238597,"phase":"practice","target_direction":68,"distractor_direction":164},{"rt":5838,"stimulus":"\n        <div class=\"response-container\">\n          <div class=\"response-instruction\">\n            <p>rotate the bar by using the left and right arrow keys.</p>\n            <p>when you are determined, press the Enter key.</p>\n          </div>\n          <div class=\"response-circle\">\n            <div class=\"response-fixation\"></div>\n            <div id=\"bar\" class=\"rotating-bar\"></div>\n          </div>\n        </div>\n      ","response":"Enter","trial_type":"html-keyboard-response","trial_index":32,"plugin_version":"2.1.0","time_elapsed":244435,"random_initial_angle":285,"response_angle_css":406,"response_angle_rdk":44,"angular_error_target":-24,"angular_error_distractor":-120,"target_direction":68,"target_group":"white","reward_points":5},{"rt":null,"stimulus":"\n          <p style=\"color: #00FF00;\">Your reward: 5 points</p>\n        ","response":null,"trial_type":"html-keyboard-response","trial_index":33,"plugin_version":"2.1.0","time_elapsed":246439},{"rt":null,"stimulus":"<div class=\"fixation\" style=\"font-size: 60px;\">+</div>","response":null,"trial_type":"html-keyboard-response","trial_index":34,"plugin_version":"2.1.0","time_elapsed":247445},{"target_group":"black","target_index":1,"condition_label":"practice","rt":-1,"response":"","correct":false,"choices":"ALL_KEYS","correct_choice":["a"],"trial_duration":2000,"flip_timestamps":[],"response_ends_trial":false,"number_of_apertures":2,"number_of_dots":[69,100],"number_of_sets":1,"coherent_direction":[342,184],"coherence":1,"opposite_coherence":0,"dot_radius":2,"dot_side_length":1,"dot_life":-1,"move_distance":1,"aperture_width":300,"aperture_height":300,"dot_color":["white","black"],"dot_shape":"circle","background_color":"#AAA","RDK_type":3,"aperture_type":2,"reinsert_type":2,"frame_rate":16.628099173553718,"frame_rate_array":[25,13,6,16,17,17,17,16,17,18,16,17,16,17,17,16,17,16,18,17,17,16,16,17,17,16,17,16,17,17,16,17,17,16,17,16,17,16,17,17,17,17,17,16,17,17,16,16,17,17,17,16,17,16,17,16,17,17,16,17,16,17,17,16,17,16,17,16,17,17,16,17,16,17,17,17,16,17,17,17,16,18,16,17,17,17,17,17,16,17,16,18,16,16,18,16,17,17,17,16,17,16,19,16,15,17,16,17,16,17,16,17,16,18,17,16,17,16,17,16,18],"number_of_frames":121,"aperture_center_x":960,"aperture_center_y":540,"fixation_cross":true,"fixation_cross_width":15,"fixation_cross_height":15,"fixation_cross_color":"#111","fixation_cross_thickness":1,"border":true,"border_thickness":2,"border_color":"transparent","canvas_width":1920,"canvas_height":1080,"trial_type":"rdk","trial_index":35,"plugin_version":"2.0.0","time_elapsed":249466,"phase":"practice","target_direction":184,"distractor_direction":342},{"rt":5529,"stimulus":"\n        <div class=\"response-container\">\n          <div class=\"response-instruction\">\n            <p>rotate the bar by using the left and right arrow keys.</p>\n            <p>when you are determined, press the Enter key.</p>\n          </div>\n          <div class=\"response-circle\">\n            <div class=\"response-fixation\"></div>\n            <div id=\"bar\" class=\"rotating-bar\"></div>\n          </div>\n        </div>\n      ","response":"Enter","trial_type":"html-keyboard-response","trial_index":36,"plugin_version":"2.1.0","time_elapsed":254996,"random_initial_angle":121,"response_angle_css":-97,"response_angle_rdk":187,"angular_error_target":3,"angular_error_distractor":-155,"target_direction":184,"target_group":"black","reward_points":9},{"rt":null,"stimulus":"\n          <p style=\"color: #00FF00;\">Your reward: 9 points</p>\n        ","response":null,"trial_type":"html-keyboard-response","trial_index":37,"plugin_version":"2.1.0","time_elapsed":257004},{"rt":null,"stimulus":"<div class=\"fixation\" style=\"font-size: 60px;\">+</div>","response":null,"trial_type":"html-keyboard-response","trial_index":38,"plugin_version":"2.1.0","time_elapsed":258022},{"target_group":"white","target_index":0,"condition_label":"practice","rt":-1,"response":"","correct":false,"choices":"ALL_KEYS","correct_choice":["a"],"trial_duration":2000,"flip_timestamps":[],"response_ends_trial":false,"number_of_apertures":2,"number_of_dots":[100,82],"number_of_sets":1,"coherent_direction":[183,80],"coherence":1,"opposite_coherence":0,"dot_radius":2,"dot_side_length":1,"dot_life":-1,"move_distance":1,"aperture_width":300,"aperture_height":300,"dot_color":["white","black"],"dot_shape":"circle","background_color":"#AAA","RDK_type":3,"aperture_type":2,"reinsert_type":2,"frame_rate":16.628099173553718,"frame_rate_array":[6,11,20,12,16,17,16,17,17,17,16,17,17,16,17,19,18,13,18,17,16,17,17,15,17,17,17,17,17,16,21,13,18,16,16,18,17,17,17,16,18,16,16,18,17,16,18,17,16,17,16,17,20,14,17,17,16,17,17,17,16,17,17,17,17,17,16,16,17,17,16,19,16,18,15,21,12,18,17,17,16,17,17,17,16,18,15,18,16,18,16,17,16,17,17,17,17,16,18,18,15,16,19,15,17,17,18,16,18,16,17,16,18,16,16,17,17,17,16,16,17],"number_of_frames":121,"aperture_center_x":960,"aperture_center_y":540,"fixation_cross":true,"fixation_cross_width":15,"fixation_cross_height":15,"fixation_cross_color":"#111","fixation_cross_thickness":1,"border":true,"border_thickness":2,"border_color":"transparent","canvas_width":1920,"canvas_height":1080,"trial_type":"rdk","trial_index":39,"plugin_version":"2.0.0","time_elapsed":260028,"phase":"practice","target_direction":183,"distractor_direction":80},{"rt":5496,"stimulus":"\n        <div class=\"response-container\">\n          <div class=\"response-instruction\">\n            <p>rotate the bar by using the left and right arrow keys.</p>\n            <p>when you are determined, press the Enter key.</p>\n          </div>\n          <div class=\"response-circle\">\n            <div class=\"response-fixation\"></div>\n            <div id=\"bar\" class=\"rotating-bar\"></div>\n          </div>\n        </div>\n      ","response":"Enter","trial_type":"html-keyboard-response","trial_index":40,"plugin_version":"2.1.0","time_elapsed":265525,"random_initial_angle":84,"response_angle_css":-114,"response_angle_rdk":204,"angular_error_target":21,"angular_error_distractor":124,"target_direction":183,"target_group":"white","reward_points":5},{"rt":null,"stimulus":"\n          <p style=\"color: #00FF00;\">Your reward: 5 points</p>\n        ","response":null,"trial_type":"html-keyboard-response","trial_index":41,"plugin_version":"2.1.0","time_elapsed":267535},{"rt":null,"stimulus":"<div class=\"fixation\" style=\"font-size: 60px;\">+</div>","response":null,"trial_type":"html-keyboard-response","trial_index":42,"plugin_version":"2.1.0","time_elapsed":268541},{"target_group":"white","target_index":0,"condition_label":"practice","rt":-1,"response":"","correct":false,"choices":"ALL_KEYS","correct_choice":["a"],"trial_duration":2000,"flip_timestamps":[],"response_ends_trial":false,"number_of_apertures":2,"number_of_dots":[100,82],"number_of_sets":1,"coherent_direction":[255,45],"coherence":1,"opposite_coherence":0,"dot_radius":2,"dot_side_length":1,"dot_life":-1,"move_distance":1,"aperture_width":300,"aperture_height":300,"dot_color":["white","black"],"dot_shape":"circle","background_color":"#AAA","RDK_type":3,"aperture_type":2,"reinsert_type":2,"frame_rate":16.875,"frame_rate_array":[18,11,16,17,17,17,17,16,18,16,17,17,17,17,17,17,17,16,17,17,17,17,16,17,17,17,17,17,17,17,17,17,17,17,17,17,17,16,17,16,17,17,17,17,17,17,17,18,16,17,17,17,17,17,17,17,17,17,17,17,17,17,17,17,17,17,17,17,17,16,17,17,16,17,17,17,17,17,17,17,17,17,17,17,17,17,17,17,17,17,17,17,17,17,17,17,17,17,17,17,17,16,17,17,17,17,16,17,17,17,17,17,17,17,17,17,17,17,17,17],"number_of_frames":120,"aperture_center_x":960,"aperture_center_y":540,"fixation_cross":true,"fixation_cross_width":15,"fixation_cross_height":15,"fixation_cross_color":"#111","fixation_cross_thickness":1,"border":true,"border_thickness":2,"border_color":"transparent","canvas_width":1920,"canvas_height":1080,"trial_type":"rdk","trial_index":43,"plugin_version":"2.0.0","time_elapsed":270558,"phase":"practice","target_direction":255,"distractor_direction":45},{"rt":3580,"stimulus":"\n        <div class=\"response-container\">\n          <div class=\"response-instruction\">\n            <p>rotate the bar by using the left and right arrow keys.</p>\n            <p>when you are determined, press the Enter key.</p>\n          </div>\n          <div class=\"response-circle\">\n            <div class=\"response-fixation\"></div>\n            <div id=\"bar\" class=\"rotating-bar\"></div>\n          </div>\n        </div>\n      ","response":"Enter","trial_type":"html-keyboard-response","trial_index":44,"plugin_version":"2.1.0","time_elapsed":274139,"random_initial_angle":353,"response_angle_css":216,"response_angle_rdk":234,"angular_error_target":-21,"angular_error_distractor":-171,"target_direction":255,"target_group":"white","reward_points":5},{"rt":null,"stimulus":"\n          <p style=\"color: #00FF00;\">Your reward: 5 points</p>\n        ","response":null,"trial_type":"html-keyboard-response","trial_index":45,"plugin_version":"2.1.0","time_elapsed":276151},{"rt":null,"stimulus":"<div class=\"fixation\" style=\"font-size: 60px;\">+</div>","response":null,"trial_type":"html-keyboard-response","trial_index":46,"plugin_version":"2.1.0","time_elapsed":277155},{"target_group":"black","target_index":1,"condition_label":"practice","rt":-1,"response":"","correct":false,"choices":"ALL_KEYS","correct_choice":["a"],"trial_duration":2000,"flip_timestamps":[],"response_ends_trial":false,"number_of_apertures":2,"number_of_dots":[51,100],"number_of_sets":1,"coherent_direction":[264,8],"coherence":1,"opposite_coherence":0,"dot_radius":2,"dot_side_length":1,"dot_life":-1,"move_distance":1,"aperture_width":300,"aperture_height":300,"dot_color":["white","black"],"dot_shape":"circle","background_color":"#AAA","RDK_type":3,"aperture_type":2,"reinsert_type":2,"frame_rate":16.553719008264462,"frame_rate_array":[8,8,18,18,12,16,17,16,18,17,15,17,16,18,16,17,16,17,16,17,16,18,16,16,17,17,16,16,18,16,16,18,17,16,17,16,17,17,17,19,16,16,16,17,17,17,16,18,16,16,17,17,16,17,16,17,16,17,17,16,18,16,17,17,17,16,17,18,16,17,18,16,17,21,16,12,17,17,17,17,18,16,17,16,17,17,16,18,17,17,16,17,17,17,16,17,16,18,15,18,16,17,17,15,17,17,16,20,15,17,15,17,17,16,17,17,17,16,18,17,16],"number_of_frames":121,"aperture_center_x":960,"aperture_center_y":540,"fixation_cross":true,"fixation_cross_width":15,"fixation_cross_height":15,"fixation_cross_color":"#111","fixation_cross_thickness":1,"border":true,"border_thickness":2,"border_color":"transparent","canvas_width":1920,"canvas_height":1080,"trial_type":"rdk","trial_index":47,"plugin_version":"2.0.0","time_elapsed":279174,"phase":"practice","target_direction":8,"distractor_direction":264},{"rt":4513,"stimulus":"\n        <div class=\"response-container\">\n          <div class=\"response-instruction\">\n            <p>rotate the bar by using the left and right arrow keys.</p>\n            <p>when you are determined, press the Enter key.</p>\n          </div>\n          <div class=\"response-circle\">\n            <div class=\"response-fixation\"></div>\n            <div id=\"bar\" class=\"rotating-bar\"></div>\n          </div>\n        </div>\n      ","response":"Enter","trial_type":"html-keyboard-response","trial_index":48,"plugin_version":"2.1.0","time_elapsed":283687,"random_initial_angle":254,"response_angle_css":421,"response_angle_rdk":29,"angular_error_target":21,"angular_error_distractor":125,"target_direction":8,"target_group":"black","reward_points":5},{"rt":null,"stimulus":"\n          <p style=\"color: #00FF00;\">Your reward: 5 points</p>\n        ","response":null,"trial_type":"html-keyboard-response","trial_index":49,"plugin_version":"2.1.0","time_elapsed":285702},{"rt":null,"stimulus":"<div class=\"fixation\" style=\"font-size: 60px;\">+</div>","response":null,"trial_type":"html-keyboard-response","trial_index":50,"plugin_version":"2.1.0","time_elapsed":286712},{"target_group":"white","target_index":0,"condition_label":"practice","rt":-1,"response":"","correct":false,"choices":"ALL_KEYS","correct_choice":["a"],"trial_duration":2000,"flip_timestamps":[],"response_ends_trial":false,"number_of_apertures":2,"number_of_dots":[100,87],"number_of_sets":1,"coherent_direction":[120,242],"coherence":1,"opposite_coherence":0,"dot_radius":2,"dot_side_length":1,"dot_life":-1,"move_distance":1,"aperture_width":300,"aperture_height":300,"dot_color":["white","black"],"dot_shape":"circle","background_color":"#AAA","RDK_type":3,"aperture_type":2,"reinsert_type":2,"frame_rate":16.570247933884296,"frame_rate_array":[16,12,11,17,16,17,16,17,16,17,17,16,17,17,16,18,16,17,17,17,16,17,16,17,16,17,17,17,17,16,17,16,16,18,15,17,17,16,17,16,17,17,16,18,16,18,15,17,16,17,16,17,17,16,17,17,17,16,17,17,16,17,17,16,17,16,17,17,16,17,17,16,17,17,16,17,17,17,16,17,17,17,17,17,16,17,17,16,17,16,17,17,16,17,16,17,17,16,17,17,17,17,17,17,16,18,15,17,17,16,17,16,17,18,16,16,17,16,17,17,16],"number_of_frames":121,"aperture_center_x":960,"aperture_center_y":540,"fixation_cross":true,"fixation_cross_width":15,"fixation_cross_height":15,"fixation_cross_color":"#111","fixation_cross_thickness":1,"border":true,"border_thickness":2,"border_color":"transparent","canvas_width":1920,"canvas_height":1080,"trial_type":"rdk","trial_index":51,"plugin_version":"2.0.0","time_elapsed":288724,"phase":"practice","target_direction":120,"distractor_direction":242},{"rt":3238,"stimulus":"\n        <div class=\"response-container\">\n          <div class=\"response-instruction\">\n            <p>rotate the bar by using the left and right arrow keys.</p>\n            <p>when you are determined, press the Enter key.</p>\n          </div>\n          <div class=\"response-circle\">\n            <div class=\"response-fixation\"></div>\n            <div id=\"bar\" class=\"rotating-bar\"></div>\n          </div>\n        </div>\n      ","response":"Enter","trial_type":"html-keyboard-response","trial_index":52,"plugin_version":"2.1.0","time_elapsed":291963,"random_initial_angle":8,"response_angle_css":-17,"response_angle_rdk":107,"angular_error_target":-13,"angular_error_distractor":-135,"target_direction":120,"target_group":"white","reward_points":7},{"rt":null,"stimulus":"\n          <p style=\"color: #00FF00;\">Your reward: 7 points</p>\n        ","response":null,"trial_type":"html-keyboard-response","trial_index":53,"plugin_version":"2.1.0","time_elapsed":293966},{"rt":null,"stimulus":"<div class=\"fixation\" style=\"font-size: 60px;\">+</div>","response":null,"trial_type":"html-keyboard-response","trial_index":54,"plugin_version":"2.1.0","time_elapsed":294984},{"target_group":"white","target_index":0,"condition_label":"practice","rt":-1,"response":"","correct":false,"choices":"ALL_KEYS","correct_choice":["a"],"trial_duration":2000,"flip_timestamps":[],"response_ends_trial":false,"number_of_apertures":2,"number_of_dots":[100,53],"number_of_sets":1,"coherent_direction":[350,255],"coherence":1,"opposite_coherence":0,"dot_radius":2,"dot_side_length":1,"dot_life":-1,"move_distance":1,"aperture_width":300,"aperture_height":300,"dot_color":["white","black"],"dot_shape":"circle","background_color":"#AAA","RDK_type":3,"aperture_type":2,"reinsert_type":2,"frame_rate":16.59504132231405,"frame_rate_array":[6,16,20,8,16,17,17,17,16,17,17,16,17,16,17,17,17,17,16,17,16,19,15,17,17,17,16,17,16,18,21,12,18,17,16,17,15,17,16,18,17,17,16,17,18,16,17,17,17,16,17,16,18,16,17,16,17,16,18,17,17,16,17,17,16,17,16,17,17,17,16,16,17,16,17,17,16,17,17,16,17,17,17,18,15,17,17,17,17,17,19,13,19,16,17,16,18,17,16,18,16,16,16,18,17,17,17,16,17,16,17,16,17,16,17,17,16,17,18,16,17],"number_of_frames":121,"aperture_center_x":960,"aperture_center_y":540,"fixation_cross":true,"fixation_cross_width":15,"fixation_cross_height":15,"fixation_cross_color":"#111","fixation_cross_thickness":1,"border":true,"border_thickness":2,"border_color":"transparent","canvas_width":1920,"canvas_height":1080,"trial_type":"rdk","trial_index":55,"plugin_version":"2.0.0","time_elapsed":296996,"phase":"practice","target_direction":350,"distractor_direction":255},{"rt":3317,"stimulus":"\n        <div class=\"response-container\">\n          <div class=\"response-instruction\">\n            <p>rotate the bar by using the left and right arrow keys.</p>\n            <p>when you are determined, press the Enter key.</p>\n          </div>\n          <div class=\"response-circle\">\n            <div class=\"response-fixation\"></div>\n            <div id=\"bar\" class=\"rotating-bar\"></div>\n          </div>\n        </div>\n      ","response":"Enter","trial_type":"html-keyboard-response","trial_index":56,"plugin_version":"2.1.0","time_elapsed":300314,"random_initial_angle":42,"response_angle_css":72,"response_angle_rdk":18,"angular_error_target":28,"angular_error_distractor":123,"target_direction":350,"target_group":"white","reward_points":4},{"rt":null,"stimulus":"\n          <p style=\"color: #00FF00;\">Your reward: 4 points</p>\n        ","response":null,"trial_type":"html-keyboard-response","trial_index":57,"plugin_version":"2.1.0","time_elapsed":302320},{"rt":null,"stimulus":"<div class=\"fixation\" style=\"font-size: 60px;\">+</div>","response":null,"trial_type":"html-keyboard-response","trial_index":58,"plugin_version":"2.1.0","time_elapsed":303326},{"target_group":"black","target_index":1,"condition_label":"practice","rt":-1,"response":"","correct":false,"choices":"ALL_KEYS","correct_choice":["a"],"trial_duration":2000,"flip_timestamps":[],"response_ends_trial":false,"number_of_apertures":2,"number_of_dots":[56,100],"number_of_sets":1,"coherent_direction":[84,207],"coherence":1,"opposite_coherence":0,"dot_radius":2,"dot_side_length":1,"dot_life":-1,"move_distance":1,"aperture_width":300,"aperture_height":300,"dot_color":["white","black"],"dot_shape":"circle","background_color":"#AAA","RDK_type":3,"aperture_type":2,"reinsert_type":2,"frame_rate":16.733333333333334,"frame_rate_array":[18,14,15,17,17,17,18,16,17,16,17,17,17,17,18,15,18,15,17,16,17,17,18,16,17,16,17,17,16,17,17,17,16,17,17,17,17,17,16,19,15,17,17,17,17,16,17,16,17,17,17,17,17,16,17,17,16,18,16,17,16,17,18,16,17,17,17,17,17,17,17,17,16,18,16,19,14,15,17,17,16,17,17,17,17,17,16,19,14,17,17,17,17,16,17,17,17,17,17,16,18,16,17,16,17,16,17,17,16,18,16,17,17,17,17,16,17,16,16,17],"number_of_frames":120,"aperture_center_x":960,"aperture_center_y":540,"fixation_cross":true,"fixation_cross_width":15,"fixation_cross_height":15,"fixation_cross_color":"#111","fixation_cross_thickness":1,"border":true,"border_thickness":2,"border_color":"transparent","canvas_width":1920,"canvas_height":1080,"trial_type":"rdk","trial_index":59,"plugin_version":"2.0.0","time_elapsed":305359,"phase":"practice","target_direction":207,"distractor_direction":84},{"rt":4286,"stimulus":"\n        <div class=\"response-container\">\n          <div class=\"response-instruction\">\n            <p>rotate the bar by using the left and right arrow keys.</p>\n            <p>when you are determined, press the Enter key.</p>\n          </div>\n          <div class=\"response-circle\">\n            <div class=\"response-fixation\"></div>\n            <div id=\"bar\" class=\"rotating-bar\"></div>\n          </div>\n        </div>\n      ","response":"Enter","trial_type":"html-keyboard-response","trial_index":60,"plugin_version":"2.1.0","time_elapsed":309646,"random_initial_angle":40,"response_angle_css":-133,"response_angle_rdk":223,"angular_error_target":16,"angular_error_distractor":139,"target_direction":207,"target_group":"black","reward_points":6},{"rt":null,"stimulus":"\n          <p style=\"color: #00FF00;\">Your reward: 6 points</p>\n        ","response":null,"trial_type":"html-keyboard-response","trial_index":61,"plugin_version":"2.1.0","time_elapsed":311653},{"rt":null,"stimulus":"<div class=\"fixation\" style=\"font-size: 60px;\">+</div>","response":null,"trial_type":"html-keyboard-response","trial_index":62,"plugin_version":"2.1.0","time_elapsed":312658},{"target_group":"white","target_index":0,"condition_label":"practice","rt":-1,"response":"","correct":false,"choices":"ALL_KEYS","correct_choice":["a"],"trial_duration":2000,"flip_timestamps":[],"response_ends_trial":false,"number_of_apertures":2,"number_of_dots":[100,96],"number_of_sets":1,"coherent_direction":[157,295],"coherence":1,"opposite_coherence":0,"dot_radius":2,"dot_side_length":1,"dot_life":-1,"move_distance":1,"aperture_width":300,"aperture_height":300,"dot_color":["white","black"],"dot_shape":"circle","background_color":"#AAA","RDK_type":3,"aperture_type":2,"reinsert_type":2,"frame_rate":16.875,"frame_rate_array":[18,13,15,16,17,17,17,17,17,17,16,17,16,17,17,17,17,17,17,17,17,17,17,17,17,17,17,16,17,17,17,17,17,17,17,17,17,17,16,17,17,17,17,17,17,17,16,17,17,17,17,17,17,17,17,17,17,17,16,17,17,16,17,17,17,17,17,17,17,17,16,17,17,17,17,17,17,17,17,17,17,17,17,17,17,17,17,17,17,17,17,17,17,17,17,17,17,17,17,17,17,17,16,17,17,17,17,17,17,17,17,17,17,17,17,17,17,17,17,17],"number_of_frames":120,"aperture_center_x":960,"aperture_center_y":540,"fixation_cross":true,"fixation_cross_width":15,"fixation_cross_height":15,"fixation_cross_color":"#111","fixation_cross_thickness":1,"border":true,"border_thickness":2,"border_color":"transparent","canvas_width":1920,"canvas_height":1080,"trial_type":"rdk","trial_index":63,"plugin_version":"2.0.0","time_elapsed":314691,"phase":"practice","target_direction":157,"distractor_direction":295},{"rt":2125,"stimulus":"\n        <div class=\"response-container\">\n          <div class=\"response-instruction\">\n            <p>rotate the bar by using the left and right arrow keys.</p>\n            <p>when you are determined, press the Enter key.</p>\n          </div>\n          <div class=\"response-circle\">\n            <div class=\"response-fixation\"></div>\n            <div id=\"bar\" class=\"rotating-bar\"></div>\n          </div>\n        </div>\n      ","response":"Enter","trial_type":"html-keyboard-response","trial_index":64,"plugin_version":"2.1.0","time_elapsed":316818,"random_initial_angle":331,"response_angle_css":331,"response_angle_rdk":119,"angular_error_target":-38,"angular_error_distractor":-176,"target_direction":157,"target_group":"white","reward_points":2},{"rt":null,"stimulus":"\n          <p style=\"color: #FF3333;\">Your reward: 2 points</p>\n        ","response":null,"trial_type":"html-keyboard-response","trial_index":65,"plugin_version":"2.1.0","time_elapsed":318820},{"rt":10083,"stimulus":"\n        <div class=\"instructions-container\">\n          <h2>End of Practice</h2>\n          <p>You have completed the practice trials.</p>\n          <p>Press <strong>Enter</strong> key to begin the main experiment.</p>\n        </div>\n      ","response":"Enter","trial_type":"html-keyboard-response","trial_index":66,"plugin_version":"2.1.0","time_elapsed":328905},{"rt":null,"stimulus":"<div class=\"fixation\" style=\"font-size: 60px;\">+</div>","response":null,"trial_type":"html-keyboard-response","trial_index":67,"plugin_version":"2.1.0","time_elapsed":329924},{"phase":"learning-awareness","target_group":"black","condition_label":"B_H_vs_W_L_rep16","target_direction":182,"distractor_direction":295,"session_rotation":87,"rt":-1,"response":"","correct":false,"choices":"ALL_KEYS","correct_choice":["a"],"trial_duration":2000,"flip_timestamps":[],"response_ends_trial":false,"number_of_apertures":200,"number_of_dots":[1,1,1,1,1,1,1,1,1,1,1,1,1,1,1,1,1,1,1,1,1,1,1,1,1,1,1,1,1,1,1,1,1,1,1,1,1,1,1,1,1,1,1,1,1,1,1,1,1,1,1,1,1,1,1,1,1,1,1,1,1,1,1,1,1,1,1,1,1,1,1,1,1,1,1,1,1,1,1,1,1,1,1,1,1,1,1,1,1,1,1,1,1,1,1,1,1,1,1,1,1,1,1,1,1,1,1,1,1,1,1,1,1,1,1,1,1,1,1,1,1,1,1,1,1,1,1,1,1,1,1,1,1,1,1,1,1,1,1,1,1,1,1,1,1,1,1,1,1,1,1,1,1,1,1,1,1,1,1,1,1,1,1,1,1,1,1,1,1,1,1,1,1,1,1,1,1,1,1,1,1,1,1,1,1,1,1,1,1,1,1,1,1,1,1,1,1,1,1,1],"number_of_sets":1,"coherent_direction":[182,182,182,295,182,182,295,182,295,295,182,182,295,295,295,295,182,295,295,295,182,295,182,182,182,182,182,182,182,182,182,182,295,182,182,182,295,182,295,295,295,182,182,295,182,295,182,295,295,295,295,182,295,182,182,295,182,295,182,295,295,295,295,295,295,182,295,295,295,182,182,295,182,295,295,295,182,182,182,182,182,182,295,295,295,295,182,182,182,295,182,182,182,295,295,182,295,295,295,295,182,182,182,182,182,295,182,182,295,182,182,295,295,295,295,182,295,295,295,295,295,182,182,295,182,295,295,295,295,182,295,295,295,295,295,182,182,182,295,295,295,295,182,182,182,295,182,295,295,182,295,182,182,295,182,295,182,182,295,182,295,182,295,182,182,182,182,182,295,182,295,182,295,182,295,182,295,295,182,182,295,295,295,295,295,295,182,295,182,295,182,295,182,182,295,182,182,182,182,182],"coherence":1,"opposite_coherence":0,"dot_radius":2,"dot_side_length":1,"dot_life":-1,"move_distance":1,"aperture_width":300,"aperture_height":300,"dot_color":["black","black","black","white","black","black","white","black","white","white","black","black","white","white","white","white","black","white","white","white","black","white","black","black","black","black","black","black","black","black","black","black","white","black","black","black","white","black","white","white","white","black","black","white","black","white","black","white","white","white","white","black","white","black","black","white","black","white","black","white","white","white","white","white","white","black","white","white","white","black","black","white","black","white","white","white","black","black","black","black","black","black","white","white","white","white","black","black","black","white","black","black","black","white","white","black","white","white","white","white","black","black","black","black","black","white","black","black","white","black","black","white","white","white","white","black","white","white","white","white","white","black","black","white","black","white","white","white","white","black","white","white","white","white","white","black","black","black","white","white","white","white","black","black","black","white","black","white","white","black","white","black","black","white","black","white","black","black","white","black","white","black","white","black","black","black","black","black","white","black","white","black","white","black","white","black","white","white","black","black","white","white","white","white","white","white","black","white","black","white","black","white","black","black","white","black","black","black","black","black"],"dot_shape":"circle","background_color":"#AAA","RDK_type":3,"aperture_type":2,"reinsert_type":2,"frame_rate":17.678260869565218,"frame_rate_array":[29,31,23,10,16,17,17,17,17,17,17,16,17,17,17,17,17,17,16,17,17,17,17,16,17,17,17,17,16,17,17,17,17,17,17,17,17,17,17,17,17,16,17,17,17,17,17,17,16,17,17,18,91,8,17,16,17,17,17,17,17,17,17,17,17,16,17,17,17,17,16,17,17,17,17,17,17,17,17,17,17,17,17,17,17,17,17,17,17,17,17,16,17,17,17,16,17,17,17,17,17,17,17,17,17,17,17,20,15,17,18,16,16,17,16],"number_of_frames":115,"aperture_center_x":960,"aperture_center_y":540,"fixation_cross":true,"fixation_cross_width":15,"fixation_cross_height":15,"fixation_cross_color":"#111","fixation_cross_thickness":1,"border":true,"border_thickness":2,"border_color":"transparent","canvas_width":1920,"canvas_height":1080,"trial_type":"rdk","trial_index":68,"plugin_version":"2.0.0","time_elapsed":331941},{"rt":5202,"stimulus":"\n        <div class=\"response-container\">\n          <div class=\"response-instruction\">\n            <p>rotate the bar by using the left and right arrow keys.</p>\n            <p>when you are determined, press the Enter key.</p>\n          </div>\n          <div class=\"response-circle\">\n            <div class=\"response-fixation\"></div>\n            <div id=\"bar\" class=\"rotating-bar\"></div>\n          </div>\n        </div>\n      ","response":"Enter","trial_type":"html-keyboard-response","trial_index":69,"plugin_version":"2.1.0","time_elapsed":337144,"random_initial_angle":78,"response_angle_css":-93,"response_angle_rdk":183,"angular_error_target":1,"angular_error_distractor":-112,"target_direction":182,"target_group":"black","reward_points":9},{"rt":null,"stimulus":"\n          <p style=\"color: #00FF00;\">Your reward: 9 points</p>\n        ","response":null,"trial_type":"html-keyboard-response","trial_index":70,"plugin_version":"2.1.0","time_elapsed":339152},{"rt":null,"stimulus":"<div class=\"fixation\" style=\"font-size: 60px;\">+</div>","response":null,"trial_type":"html-keyboard-response","trial_index":71,"plugin_version":"2.1.0","time_elapsed":340167},{"phase":"learning-awareness","target_group":"black","condition_label":"B_H_vs_W_L_rep4","target_direction":183,"distractor_direction":295,"session_rotation":87,"rt":-1,"response":"","correct":false,"choices":"ALL_KEYS","correct_choice":["a"],"trial_duration":2000,"flip_timestamps":[],"response_ends_trial":false,"number_of_apertures":200,"number_of_dots":[1,1,1,1,1,1,1,1,1,1,1,1,1,1,1,1,1,1,1,1,1,1,1,1,1,1,1,1,1,1,1,1,1,1,1,1,1,1,1,1,1,1,1,1,1,1,1,1,1,1,1,1,1,1,1,1,1,1,1,1,1,1,1,1,1,1,1,1,1,1,1,1,1,1,1,1,1,1,1,1,1,1,1,1,1,1,1,1,1,1,1,1,1,1,1,1,1,1,1,1,1,1,1,1,1,1,1,1,1,1,1,1,1,1,1,1,1,1,1,1,1,1,1,1,1,1,1,1,1,1,1,1,1,1,1,1,1,1,1,1,1,1,1,1,1,1,1,1,1,1,1,1,1,1,1,1,1,1,1,1,1,1,1,1,1,1,1,1,1,1,1,1,1,1,1,1,1,1,1,1,1,1,1,1,1,1,1,1,1,1,1,1,1,1,1,1,1,1,1,1],"number_of_sets":1,"coherent_direction":[295,295,295,295,183,295,295,183,183,183,183,183,295,295,183,183,295,295,295,295,183,295,183,295,183,295,295,295,295,183,183,183,183,295,295,295,295,183,295,183,295,183,295,183,183,183,183,183,183,295,183,295,295,183,183,295,295,183,295,183,183,183,183,295,183,295,295,295,183,295,295,295,295,295,183,295,183,295,183,295,183,183,295,183,183,183,183,183,295,295,183,183,295,183,183,295,295,295,183,183,295,295,183,183,183,183,295,183,295,183,183,295,295,295,183,295,295,183,295,183,183,183,183,183,295,295,295,295,183,295,295,295,183,295,295,183,183,183,295,183,295,295,295,183,295,295,183,183,183,183,295,295,183,183,183,183,183,295,183,183,295,183,183,183,183,295,295,183,295,295,295,295,183,183,295,183,183,295,183,183,295,295,295,183,295,295,295,295,183,295,183,183,295,183,295,295,295,295,183,183],"coherence":1,"opposite_coherence":0,"dot_radius":2,"dot_side_length":1,"dot_life":-1,"move_distance":1,"aperture_width":300,"aperture_height":300,"dot_color":["white","white","white","white","black","white","white","black","black","black","black","black","white","white","black","black","white","white","white","white","black","white","black","white","black","white","white","white","white","black","black","black","black","white","white","white","white","black","white","black","white","black","white","black","black","black","black","black","black","white","black","white","white","black","black","white","white","black","white","black","black","black","black","white","black","white","white","white","black","white","white","white","white","white","black","white","black","white","black","white","black","black","white","black","black","black","black","black","white","white","black","black","white","black","black","white","white","white","black","black","white","white","black","black","black","black","white","black","white","black","black","white","white","white","black","white","white","black","white","black","black","black","black","black","white","white","white","white","black","white","white","white","black","white","white","black","black","black","white","black","white","white","white","black","white","white","black","black","black","black","white","white","black","black","black","black","black","white","black","black","white","black","black","black","black","white","white","black","white","white","white","white","black","black","white","black","black","white","black","black","white","white","white","black","white","white","white","white","black","white","black","black","white","black","white","white","white","white","black","black"],"dot_shape":"circle","background_color":"#AAA","RDK_type":3,"aperture_type":2,"reinsert_type":2,"frame_rate":16.545454545454547,"frame_rate_array":[12,3,18,12,17,17,16,18,16,16,17,17,17,17,21,13,16,16,17,17,16,18,16,16,17,17,17,16,17,16,18,16,17,17,17,17,16,17,17,17,16,17,17,17,22,17,10,17,18,16,17,17,17,16,17,16,22,12,17,25,8,17,17,17,16,17,17,16,17,17,17,17,16,17,17,17,16,17,17,16,17,16,18,15,17,18,16,16,17,18,16,17,18,16,17,17,16,17,17,16,17,18,16,16,24,8,18,15,18,16,17,17,17,16,16,18,16,16,17,18,16],"number_of_frames":121,"aperture_center_x":960,"aperture_center_y":540,"fixation_cross":true,"fixation_cross_width":15,"fixation_cross_height":15,"fixation_cross_color":"#111","fixation_cross_thickness":1,"border":true,"border_thickness":2,"border_color":"transparent","canvas_width":1920,"canvas_height":1080,"trial_type":"rdk","trial_index":72,"plugin_version":"2.0.0","time_elapsed":342174},{"rt":3513,"stimulus":"\n        <div class=\"response-container\">\n          <div class=\"response-instruction\">\n            <p>rotate the bar by using the left and right arrow keys.</p>\n            <p>when you are determined, press the Enter key.</p>\n          </div>\n          <div class=\"response-circle\">\n            <div class=\"response-fixation\"></div>\n            <div id=\"bar\" class=\"rotating-bar\"></div>\n          </div>\n        </div>\n      ","response":"Enter","trial_type":"html-keyboard-response","trial_index":73,"plugin_version":"2.1.0","time_elapsed":345688,"random_initial_angle":72,"response_angle_css":118,"response_angle_rdk":332,"angular_error_target":149,"angular_error_distractor":37,"target_direction":183,"target_group":"black","reward_points":0},{"rt":null,"stimulus":"\n          <p style=\"color: #FF3333;\">Your reward: 0 points</p>\n        ","response":null,"trial_type":"html-keyboard-response","trial_index":74,"plugin_version":"2.1.0","time_elapsed":347694},{"rt":null,"stimulus":"<div class=\"fixation\" style=\"font-size: 60px;\">+</div>","response":null,"trial_type":"html-keyboard-response","trial_index":75,"plugin_version":"2.1.0","time_elapsed":348701},{"phase":"learning-awareness","target_group":"black","condition_label":"B_H_vs_W_L_rep3","target_direction":212,"distractor_direction":309,"session_rotation":87,"rt":-1,"response":"","correct":false,"choices":"ALL_KEYS","correct_choice":["a"],"trial_duration":2000,"flip_timestamps":[],"response_ends_trial":false,"number_of_apertures":200,"number_of_dots":[1,1,1,1,1,1,1,1,1,1,1,1,1,1,1,1,1,1,1,1,1,1,1,1,1,1,1,1,1,1,1,1,1,1,1,1,1,1,1,1,1,1,1,1,1,1,1,1,1,1,1,1,1,1,1,1,1,1,1,1,1,1,1,1,1,1,1,1,1,1,1,1,1,1,1,1,1,1,1,1,1,1,1,1,1,1,1,1,1,1,1,1,1,1,1,1,1,1,1,1,1,1,1,1,1,1,1,1,1,1,1,1,1,1,1,1,1,1,1,1,1,1,1,1,1,1,1,1,1,1,1,1,1,1,1,1,1,1,1,1,1,1,1,1,1,1,1,1,1,1,1,1,1,1,1,1,1,1,1,1,1,1,1,1,1,1,1,1,1,1,1,1,1,1,1,1,1,1,1,1,1,1,1,1,1,1,1,1,1,1,1,1,1,1,1,1,1,1,1,1],"number_of_sets":1,"coherent_direction":[212,309,212,309,309,212,309,212,309,212,309,212,212,212,309,309,309,309,212,309,309,212,212,212,309,309,212,309,309,309,309,212,212,212,212,309,212,309,309,309,309,212,212,309,309,212,212,212,309,309,309,309,212,309,212,212,212,212,309,309,309,309,212,309,212,212,309,309,309,309,309,309,309,309,212,309,212,309,309,309,212,212,309,309,309,212,309,212,212,309,309,309,309,309,212,212,309,212,212,309,309,309,212,212,309,212,309,212,309,309,309,212,212,212,212,309,212,212,309,212,309,309,309,212,309,212,309,212,309,212,309,309,212,309,212,309,309,309,212,212,309,309,309,212,212,309,212,212,212,309,309,212,309,309,309,212,212,212,309,212,212,212,309,212,309,309,212,212,212,212,212,212,309,212,309,212,309,309,309,212,212,212,309,212,212,212,212,212,212,212,212,212,212,212,212,309,212,212,309,212],"coherence":1,"opposite_coherence":0,"dot_radius":2,"dot_side_length":1,"dot_life":-1,"move_distance":1,"aperture_width":300,"aperture_height":300,"dot_color":["black","white","black","white","white","black","white","black","white","black","white","black","black","black","white","white","white","white","black","white","white","black","black","black","white","white","black","white","white","white","white","black","black","black","black","white","black","white","white","white","white","black","black","white","white","black","black","black","white","white","white","white","black","white","black","black","black","black","white","white","white","white","black","white","black","black","white","white","white","white","white","white","white","white","black","white","black","white","white","white","black","black","white","white","white","black","white","black","black","white","white","white","white","white","black","black","white","black","black","white","white","white","black","black","white","black","white","black","white","white","white","black","black","black","black","white","black","black","white","black","white","white","white","black","white","black","white","black","white","black","white","white","black","white","black","white","white","white","black","black","white","white","white","black","black","white","black","black","black","white","white","black","white","white","white","black","black","black","white","black","black","black","white","black","white","white","black","black","black","black","black","black","white","black","white","black","white","white","white","black","black","black","white","black","black","black","black","black","black","black","black","black","black","black","black","white","black","black","white","black"],"dot_shape":"circle","background_color":"#AAA","RDK_type":3,"aperture_type":2,"reinsert_type":2,"frame_rate":16.537190082644628,"frame_rate_array":[12,5,12,17,17,17,17,17,22,11,17,16,17,17,17,17,16,22,11,17,17,17,17,16,17,19,14,17,17,16,17,17,16,17,17,16,17,17,19,14,18,15,17,17,16,17,17,17,17,17,16,16,17,17,17,17,17,16,17,17,17,16,17,16,18,16,16,18,17,18,19,12,17,17,17,17,16,20,14,16,17,17,16,17,17,16,17,16,17,17,17,17,16,17,16,17,16,18,16,18,16,16,18,15,17,16,17,17,17,16,16,17,18,17,16,18,16,16,17,16,17],"number_of_frames":121,"aperture_center_x":960,"aperture_center_y":540,"fixation_cross":true,"fixation_cross_width":15,"fixation_cross_height":15,"fixation_cross_color":"#111","fixation_cross_thickness":1,"border":true,"border_thickness":2,"border_color":"transparent","canvas_width":1920,"canvas_height":1080,"trial_type":"rdk","trial_index":76,"plugin_version":"2.0.0","time_elapsed":350707},{"rt":4559,"stimulus":"\n        <div class=\"response-container\">\n          <div class=\"response-instruction\">\n            <p>rotate the bar by using the left and right arrow keys.</p>\n            <p>when you are determined, press the Enter key.</p>\n          </div>\n          <div class=\"response-circle\">\n            <div class=\"response-fixation\"></div>\n            <div id=\"bar\" class=\"rotating-bar\"></div>\n          </div>\n        </div>\n      ","response":"Enter","trial_type":"html-keyboard-response","trial_index":77,"plugin_version":"2.1.0","time_elapsed":355268,"random_initial_angle":309,"response_angle_css":469,"response_angle_rdk":341,"angular_error_target":129,"angular_error_distractor":32,"target_direction":212,"target_group":"black","reward_points":0},{"rt":null,"stimulus":"\n          <p style=\"color: #FF3333;\">Your reward: 0 points</p>\n        ","response":null,"trial_type":"html-keyboard-response","trial_index":78,"plugin_version":"2.1.0","time_elapsed":357287},{"rt":null,"stimulus":"<div class=\"fixation\" style=\"font-size: 60px;\">+</div>","response":null,"trial_type":"html-keyboard-response","trial_index":79,"plugin_version":"2.1.0","time_elapsed":358305},{"phase":"learning-awareness","target_group":"white","condition_label":"W_H_vs_B_L_rep5","target_direction":123,"distractor_direction":23,"session_rotation":87,"rt":-1,"response":"","correct":false,"choices":"ALL_KEYS","correct_choice":["a"],"trial_duration":2000,"flip_timestamps":[],"response_ends_trial":false,"number_of_apertures":200,"number_of_dots":[1,1,1,1,1,1,1,1,1,1,1,1,1,1,1,1,1,1,1,1,1,1,1,1,1,1,1,1,1,1,1,1,1,1,1,1,1,1,1,1,1,1,1,1,1,1,1,1,1,1,1,1,1,1,1,1,1,1,1,1,1,1,1,1,1,1,1,1,1,1,1,1,1,1,1,1,1,1,1,1,1,1,1,1,1,1,1,1,1,1,1,1,1,1,1,1,1,1,1,1,1,1,1,1,1,1,1,1,1,1,1,1,1,1,1,1,1,1,1,1,1,1,1,1,1,1,1,1,1,1,1,1,1,1,1,1,1,1,1,1,1,1,1,1,1,1,1,1,1,1,1,1,1,1,1,1,1,1,1,1,1,1,1,1,1,1,1,1,1,1,1,1,1,1,1,1,1,1,1,1,1,1,1,1,1,1,1,1,1,1,1,1,1,1,1,1,1,1,1,1],"number_of_sets":1,"coherent_direction":[123,23,23,23,23,123,123,23,23,23,123,23,23,23,23,23,23,23,23,23,123,123,123,23,23,23,123,123,123,23,123,23,123,23,123,23,123,123,123,123,23,123,123,123,23,123,23,23,123,23,123,23,23,123,23,123,23,23,123,123,23,123,123,123,23,123,123,23,23,123,23,123,123,23,123,123,23,123,23,123,123,123,23,123,23,23,23,123,123,123,123,123,23,23,123,123,23,123,123,23,123,123,123,23,23,123,123,23,23,123,123,123,23,123,23,123,23,123,123,123,123,123,23,23,123,23,23,23,23,123,123,23,123,23,23,123,23,123,23,23,123,23,123,123,123,23,23,123,123,23,23,123,123,23,123,123,123,123,23,123,23,123,123,23,23,123,23,23,23,23,23,23,23,123,123,123,23,23,123,123,123,23,123,23,23,23,123,23,23,123,23,23,23,23,123,123,23,23,123,23],"coherence":1,"opposite_coherence":0,"dot_radius":2,"dot_side_length":1,"dot_life":-1,"move_distance":1,"aperture_width":300,"aperture_height":300,"dot_color":["white","black","black","black","black","white","white","black","black","black","white","black","black","black","black","black","black","black","black","black","white","white","white","black","black","black","white","white","white","black","white","black","white","black","white","black","white","white","white","white","black","white","white","white","black","white","black","black","white","black","white","black","black","white","black","white","black","black","white","white","black","white","white","white","black","white","white","black","black","white","black","white","white","black","white","white","black","white","black","white","white","white","black","white","black","black","black","white","white","white","white","white","black","black","white","white","black","white","white","black","white","white","white","black","black","white","white","black","black","white","white","white","black","white","black","white","black","white","white","white","white","white","black","black","white","black","black","black","black","white","white","black","white","black","black","white","black","white","black","black","white","black","white","white","white","black","black","white","white","black","black","white","white","black","white","white","white","white","black","white","black","white","white","black","black","white","black","black","black","black","black","black","black","white","white","white","black","black","white","white","white","black","white","black","black","black","white","black","black","white","black","black","black","black","white","white","black","black","white","black"],"dot_shape":"circle","background_color":"#AAA","RDK_type":3,"aperture_type":2,"reinsert_type":2,"frame_rate":16.570247933884296,"frame_rate_array":[15,8,12,12,15,17,18,17,16,17,17,17,16,18,16,17,17,17,17,16,17,17,17,17,17,17,17,16,16,17,17,16,17,17,17,16,16,18,17,16,17,17,18,16,17,17,18,15,23,11,20,14,17,17,16,17,17,17,16,17,16,17,17,17,17,16,16,20,13,18,16,17,17,17,16,17,18,16,18,16,16,17,16,16,18,16,17,17,16,17,17,16,16,18,17,15,17,17,17,17,17,16,16,18,15,17,17,17,19,14,17,17,17,16,17,17,19,13,17,18,16],"number_of_frames":121,"aperture_center_x":960,"aperture_center_y":540,"fixation_cross":true,"fixation_cross_width":15,"fixation_cross_height":15,"fixation_cross_color":"#111","fixation_cross_thickness":1,"border":true,"border_thickness":2,"border_color":"transparent","canvas_width":1920,"canvas_height":1080,"trial_type":"rdk","trial_index":80,"plugin_version":"2.0.0","time_elapsed":360311},{"rt":1849,"stimulus":"\n        <div class=\"response-container\">\n          <div class=\"response-instruction\">\n            <p>rotate the bar by using the left and right arrow keys.</p>\n            <p>when you are determined, press the Enter key.</p>\n          </div>\n          <div class=\"response-circle\">\n            <div class=\"response-fixation\"></div>\n            <div id=\"bar\" class=\"rotating-bar\"></div>\n          </div>\n        </div>\n      ","response":"Enter","trial_type":"html-keyboard-response","trial_index":81,"plugin_version":"2.1.0","time_elapsed":362162,"random_initial_angle":91,"response_angle_css":91,"response_angle_rdk":359,"angular_error_target":-124,"angular_error_distractor":-24,"target_direction":123,"target_group":"white","reward_points":0},{"rt":null,"stimulus":"\n          <p style=\"color: #FF3333;\">Your reward: 0 points</p>\n        ","response":null,"trial_type":"html-keyboard-response","trial_index":82,"plugin_version":"2.1.0","time_elapsed":364166},{"rt":null,"stimulus":"<div class=\"fixation\" style=\"font-size: 60px;\">+</div>","response":null,"trial_type":"html-keyboard-response","trial_index":83,"plugin_version":"2.1.0","time_elapsed":365175},{"phase":"learning-awareness","target_group":"black","condition_label":"B_H_vs_W_L_rep6","target_direction":216,"distractor_direction":309,"session_rotation":87,"rt":-1,"response":"","correct":false,"choices":"ALL_KEYS","correct_choice":["a"],"trial_duration":2000,"flip_timestamps":[],"response_ends_trial":false,"number_of_apertures":200,"number_of_dots":[1,1,1,1,1,1,1,1,1,1,1,1,1,1,1,1,1,1,1,1,1,1,1,1,1,1,1,1,1,1,1,1,1,1,1,1,1,1,1,1,1,1,1,1,1,1,1,1,1,1,1,1,1,1,1,1,1,1,1,1,1,1,1,1,1,1,1,1,1,1,1,1,1,1,1,1,1,1,1,1,1,1,1,1,1,1,1,1,1,1,1,1,1,1,1,1,1,1,1,1,1,1,1,1,1,1,1,1,1,1,1,1,1,1,1,1,1,1,1,1,1,1,1,1,1,1,1,1,1,1,1,1,1,1,1,1,1,1,1,1,1,1,1,1,1,1,1,1,1,1,1,1,1,1,1,1,1,1,1,1,1,1,1,1,1,1,1,1,1,1,1,1,1,1,1,1,1,1,1,1,1,1,1,1,1,1,1,1,1,1,1,1,1,1,1,1,1,1,1,1],"number_of_sets":1,"coherent_direction":[309,309,216,216,309,216,216,216,216,309,309,216,216,216,309,216,309,216,216,216,216,309,309,309,309,216,309,309,216,309,216,309,309,309,309,309,216,216,216,309,216,216,309,216,216,216,309,309,309,309,309,309,216,216,216,216,216,216,216,216,216,309,216,216,309,309,309,216,216,309,309,309,309,309,309,309,309,216,309,309,216,216,309,216,309,309,216,216,309,309,309,216,216,216,216,216,309,309,216,309,216,309,216,216,216,216,309,309,309,309,216,309,309,216,309,216,216,216,216,309,309,309,309,216,216,309,216,216,216,216,216,216,216,309,309,309,216,309,309,309,309,309,216,309,309,216,216,216,216,216,309,309,309,216,309,309,309,309,309,216,309,216,216,216,309,216,216,309,309,309,216,216,216,309,216,309,309,216,216,309,309,216,216,216,216,309,216,309,216,309,216,309,309,216,216,216,309,309,309,309],"coherence":1,"opposite_coherence":0,"dot_radius":2,"dot_side_length":1,"dot_life":-1,"move_distance":1,"aperture_width":300,"aperture_height":300,"dot_color":["white","white","black","black","white","black","black","black","black","white","white","black","black","black","white","black","white","black","black","black","black","white","white","white","white","black","white","white","black","white","black","white","white","white","white","white","black","black","black","white","black","black","white","black","black","black","white","white","white","white","white","white","black","black","black","black","black","black","black","black","black","white","black","black","white","white","white","black","black","white","white","white","white","white","white","white","white","black","white","white","black","black","white","black","white","white","black","black","white","white","white","black","black","black","black","black","white","white","black","white","black","white","black","black","black","black","white","white","white","white","black","white","white","black","white","black","black","black","black","white","white","white","white","black","black","white","black","black","black","black","black","black","black","white","white","white","black","white","white","white","white","white","black","white","white","black","black","black","black","black","white","white","white","black","white","white","white","white","white","black","white","black","black","black","white","black","black","white","white","white","black","black","black","white","black","white","white","black","black","white","white","black","black","black","black","white","black","white","black","white","black","white","white","black","black","black","white","white","white","white"],"dot_shape":"circle","background_color":"#AAA","RDK_type":3,"aperture_type":2,"reinsert_type":2,"frame_rate":16.841666666666665,"frame_rate_array":[11,14,17,17,17,17,17,16,17,16,17,17,17,17,17,17,17,17,17,17,17,17,17,16,17,17,17,17,17,17,17,16,17,17,17,17,17,17,17,16,17,17,17,17,17,17,17,17,17,17,17,17,17,17,18,16,17,17,17,17,17,17,17,17,17,17,17,17,17,17,17,16,17,16,17,17,17,17,17,17,17,17,17,17,17,17,17,16,17,17,17,17,17,17,17,17,16,17,17,17,17,17,17,16,17,17,17,17,17,17,17,17,17,17,17,17,17,17,17,17],"number_of_frames":120,"aperture_center_x":960,"aperture_center_y":540,"fixation_cross":true,"fixation_cross_width":15,"fixation_cross_height":15,"fixation_cross_color":"#111","fixation_cross_thickness":1,"border":true,"border_thickness":2,"border_color":"transparent","canvas_width":1920,"canvas_height":1080,"trial_type":"rdk","trial_index":84,"plugin_version":"2.0.0","time_elapsed":367182},{"rt":6554,"stimulus":"\n        <div class=\"response-container\">\n          <div class=\"response-instruction\">\n            <p>rotate the bar by using the left and right arrow keys.</p>\n            <p>when you are determined, press the Enter key.</p>\n          </div>\n          <div class=\"response-circle\">\n            <div class=\"response-fixation\"></div>\n            <div id=\"bar\" class=\"rotating-bar\"></div>\n          </div>\n        </div>\n      ","response":"Enter","trial_type":"html-keyboard-response","trial_index":85,"plugin_version":"2.1.0","time_elapsed":373738,"random_initial_angle":62,"response_angle_css":-120,"response_angle_rdk":210,"angular_error_target":-6,"angular_error_distractor":-99,"target_direction":216,"target_group":"black","reward_points":8},{"rt":null,"stimulus":"\n          <p style=\"color: #00FF00;\">Your reward: 8 points</p>\n        ","response":null,"trial_type":"html-keyboard-response","trial_index":86,"plugin_version":"2.1.0","time_elapsed":375745},{"rt":null,"stimulus":"<div class=\"fixation\" style=\"font-size: 60px;\">+</div>","response":null,"trial_type":"html-keyboard-response","trial_index":87,"plugin_version":"2.1.0","time_elapsed":376753},{"phase":"learning-awareness","target_group":"white","condition_label":"W_H_vs_B_L_rep10","target_direction":97,"distractor_direction":7,"session_rotation":87,"rt":-1,"response":"","correct":false,"choices":"ALL_KEYS","correct_choice":["a"],"trial_duration":2000,"flip_timestamps":[],"response_ends_trial":false,"number_of_apertures":200,"number_of_dots":[1,1,1,1,1,1,1,1,1,1,1,1,1,1,1,1,1,1,1,1,1,1,1,1,1,1,1,1,1,1,1,1,1,1,1,1,1,1,1,1,1,1,1,1,1,1,1,1,1,1,1,1,1,1,1,1,1,1,1,1,1,1,1,1,1,1,1,1,1,1,1,1,1,1,1,1,1,1,1,1,1,1,1,1,1,1,1,1,1,1,1,1,1,1,1,1,1,1,1,1,1,1,1,1,1,1,1,1,1,1,1,1,1,1,1,1,1,1,1,1,1,1,1,1,1,1,1,1,1,1,1,1,1,1,1,1,1,1,1,1,1,1,1,1,1,1,1,1,1,1,1,1,1,1,1,1,1,1,1,1,1,1,1,1,1,1,1,1,1,1,1,1,1,1,1,1,1,1,1,1,1,1,1,1,1,1,1,1,1,1,1,1,1,1,1,1,1,1,1,1],"number_of_sets":1,"coherent_direction":[97,97,97,97,7,7,7,97,97,97,7,7,7,97,7,7,97,7,7,7,7,97,7,97,97,97,7,7,97,7,7,97,97,97,97,7,97,7,97,7,7,7,97,97,97,97,97,7,7,97,7,97,7,97,97,97,97,7,7,97,97,7,97,7,97,97,7,7,97,97,7,97,97,7,7,7,7,7,7,7,7,7,7,97,97,7,97,97,97,7,7,97,7,97,7,97,97,7,97,97,97,97,97,97,7,97,7,97,97,97,7,97,97,7,97,7,97,97,7,7,97,97,97,97,7,7,7,7,7,7,7,7,97,97,97,7,97,7,97,7,97,7,7,7,97,7,97,7,97,7,7,7,97,97,7,97,97,97,97,97,7,97,7,7,97,97,7,7,7,7,97,7,7,97,97,7,7,97,97,97,97,97,97,7,7,7,7,7,7,97,7,97,7,97,7,7,7,7,7,97],"coherence":1,"opposite_coherence":0,"dot_radius":2,"dot_side_length":1,"dot_life":-1,"move_distance":1,"aperture_width":300,"aperture_height":300,"dot_color":["white","white","white","white","black","black","black","white","white","white","black","black","black","white","black","black","white","black","black","black","black","white","black","white","white","white","black","black","white","black","black","white","white","white","white","black","white","black","white","black","black","black","white","white","white","white","white","black","black","white","black","white","black","white","white","white","white","black","black","white","white","black","white","black","white","white","black","black","white","white","black","white","white","black","black","black","black","black","black","black","black","black","black","white","white","black","white","white","white","black","black","white","black","white","black","white","white","black","white","white","white","white","white","white","black","white","black","white","white","white","black","white","white","black","white","black","white","white","black","black","white","white","white","white","black","black","black","black","black","black","black","black","white","white","white","black","white","black","white","black","white","black","black","black","white","black","white","black","white","black","black","black","white","white","black","white","white","white","white","white","black","white","black","black","white","white","black","black","black","black","white","black","black","white","white","black","black","white","white","white","white","white","white","black","black","black","black","black","black","white","black","white","black","white","black","black","black","black","black","white"],"dot_shape":"circle","background_color":"#AAA","RDK_type":3,"aperture_type":2,"reinsert_type":2,"frame_rate":16.60330578512397,"frame_rate_array":[5,12,16,17,17,17,16,17,17,16,17,16,17,18,17,16,17,17,16,17,16,17,17,17,16,17,17,16,17,16,17,16,18,16,23,10,18,15,16,17,16,17,17,17,16,17,17,16,17,18,16,16,18,16,16,17,18,16,16,17,16,17,16,17,17,17,17,17,18,16,16,18,16,16,17,17,17,17,17,17,18,16,16,17,16,17,17,17,17,16,17,17,16,17,22,12,17,18,17,17,17,16,17,17,18,16,17,17,16,17,16,17,17,17,17,16,17,17,21,12,17],"number_of_frames":121,"aperture_center_x":960,"aperture_center_y":540,"fixation_cross":true,"fixation_cross_width":15,"fixation_cross_height":15,"fixation_cross_color":"#111","fixation_cross_thickness":1,"border":true,"border_thickness":2,"border_color":"transparent","canvas_width":1920,"canvas_height":1080,"trial_type":"rdk","trial_index":88,"plugin_version":"2.0.0","time_elapsed":378757},{"rt":5474,"stimulus":"\n        <div class=\"response-container\">\n          <div class=\"response-instruction\">\n            <p>rotate the bar by using the left and right arrow keys.</p>\n            <p>when you are determined, press the Enter key.</p>\n          </div>\n          <div class=\"response-circle\">\n            <div class=\"response-fixation\"></div>\n            <div id=\"bar\" class=\"rotating-bar\"></div>\n          </div>\n        </div>\n      ","response":"Enter","trial_type":"html-keyboard-response","trial_index":89,"plugin_version":"2.1.0","time_elapsed":384233,"random_initial_angle":227,"response_angle_css":307,"response_angle_rdk":143,"angular_error_target":46,"angular_error_distractor":136,"target_direction":97,"target_group":"white","reward_points":0},{"rt":null,"stimulus":"\n          <p style=\"color: #FF3333;\">Your reward: 0 points</p>\n        ","response":null,"trial_type":"html-keyboard-response","trial_index":90,"plugin_version":"2.1.0","time_elapsed":386236},{"rt":null,"stimulus":"<div class=\"fixation\" style=\"font-size: 60px;\">+</div>","response":null,"trial_type":"html-keyboard-response","trial_index":91,"plugin_version":"2.1.0","time_elapsed":387252},{"phase":"learning-awareness","target_group":"black","condition_label":"B_H_vs_W_L_rep21","target_direction":181,"distractor_direction":285,"session_rotation":87,"rt":-1,"response":"","correct":false,"choices":"ALL_KEYS","correct_choice":["a"],"trial_duration":2000,"flip_timestamps":[],"response_ends_trial":false,"number_of_apertures":200,"number_of_dots":[1,1,1,1,1,1,1,1,1,1,1,1,1,1,1,1,1,1,1,1,1,1,1,1,1,1,1,1,1,1,1,1,1,1,1,1,1,1,1,1,1,1,1,1,1,1,1,1,1,1,1,1,1,1,1,1,1,1,1,1,1,1,1,1,1,1,1,1,1,1,1,1,1,1,1,1,1,1,1,1,1,1,1,1,1,1,1,1,1,1,1,1,1,1,1,1,1,1,1,1,1,1,1,1,1,1,1,1,1,1,1,1,1,1,1,1,1,1,1,1,1,1,1,1,1,1,1,1,1,1,1,1,1,1,1,1,1,1,1,1,1,1,1,1,1,1,1,1,1,1,1,1,1,1,1,1,1,1,1,1,1,1,1,1,1,1,1,1,1,1,1,1,1,1,1,1,1,1,1,1,1,1,1,1,1,1,1,1,1,1,1,1,1,1,1,1,1,1,1,1],"number_of_sets":1,"coherent_direction":[285,285,285,181,181,181,285,285,285,181,285,181,285,285,285,181,181,181,181,181,285,285,285,285,181,285,285,181,285,285,285,181,181,285,181,181,285,285,181,181,181,181,181,285,181,181,285,181,285,285,285,181,285,285,285,181,181,181,181,181,181,285,181,285,181,181,285,285,285,285,181,181,285,285,181,181,285,181,181,181,181,285,181,181,181,285,181,181,285,285,181,181,181,181,181,181,285,181,285,285,285,181,181,181,285,181,285,181,181,181,181,285,285,285,181,285,181,285,285,181,285,285,181,285,181,285,181,181,181,285,181,285,285,181,285,181,181,181,285,181,181,285,285,285,285,181,181,285,285,181,181,181,285,181,285,285,285,285,285,285,285,285,181,285,181,285,285,181,285,181,181,285,285,181,181,181,181,181,285,285,285,181,285,285,285,181,285,285,285,285,181,285,181,285,181,285,285,285,181,181],"coherence":1,"opposite_coherence":0,"dot_radius":2,"dot_side_length":1,"dot_life":-1,"move_distance":1,"aperture_width":300,"aperture_height":300,"dot_color":["white","white","white","black","black","black","white","white","white","black","white","black","white","white","white","black","black","black","black","black","white","white","white","white","black","white","white","black","white","white","white","black","black","white","black","black","white","white","black","black","black","black","black","white","black","black","white","black","white","white","white","black","white","white","white","black","black","black","black","black","black","white","black","white","black","black","white","white","white","white","black","black","white","white","black","black","white","black","black","black","black","white","black","black","black","white","black","black","white","white","black","black","black","black","black","black","white","black","white","white","white","black","black","black","white","black","white","black","black","black","black","white","white","white","black","white","black","white","white","black","white","white","black","white","black","white","black","black","black","white","black","white","white","black","white","black","black","black","white","black","black","white","white","white","white","black","black","white","white","black","black","black","white","black","white","white","white","white","white","white","white","white","black","white","black","white","white","black","white","black","black","white","white","black","black","black","black","black","white","white","white","black","white","white","white","black","white","white","white","white","black","white","black","white","black","white","white","white","black","black"],"dot_shape":"circle","background_color":"#AAA","RDK_type":3,"aperture_type":2,"reinsert_type":2,"frame_rate":16.520661157024794,"frame_rate_array":[14,8,11,11,16,17,17,16,18,15,22,11,18,17,16,18,17,16,17,17,16,17,17,17,16,17,17,17,16,17,17,16,17,17,17,17,18,16,16,17,17,17,16,18,16,17,17,16,18,17,16,17,16,17,17,17,16,17,18,16,16,18,16,17,15,17,17,16,17,17,21,11,17,17,16,17,21,13,16,16,18,17,16,17,17,17,16,18,17,15,16,17,17,17,16,18,16,17,16,17,17,16,18,16,17,16,18,17,16,16,17,17,16,18,16,16,17,18,15,17,16],"number_of_frames":121,"aperture_center_x":960,"aperture_center_y":540,"fixation_cross":true,"fixation_cross_width":15,"fixation_cross_height":15,"fixation_cross_color":"#111","fixation_cross_thickness":1,"border":true,"border_thickness":2,"border_color":"transparent","canvas_width":1920,"canvas_height":1080,"trial_type":"rdk","trial_index":92,"plugin_version":"2.0.0","time_elapsed":389271},{"rt":4420,"stimulus":"\n        <div class=\"response-container\">\n          <div class=\"response-instruction\">\n            <p>rotate the bar by using the left and right arrow keys.</p>\n            <p>when you are determined, press the Enter key.</p>\n          </div>\n          <div class=\"response-circle\">\n            <div class=\"response-fixation\"></div>\n            <div id=\"bar\" class=\"rotating-bar\"></div>\n          </div>\n        </div>\n      ","response":"Enter","trial_type":"html-keyboard-response","trial_index":93,"plugin_version":"2.1.0","time_elapsed":393692,"random_initial_angle":261,"response_angle_css":482,"response_angle_rdk":328,"angular_error_target":147,"angular_error_distractor":43,"target_direction":181,"target_group":"black","reward_points":0},{"rt":null,"stimulus":"\n          <p style=\"color: #FF3333;\">Your reward: 0 points</p>\n        ","response":null,"trial_type":"html-keyboard-response","trial_index":94,"plugin_version":"2.1.0","time_elapsed":395707},{"rt":null,"stimulus":"<div class=\"fixation\" style=\"font-size: 60px;\">+</div>","response":null,"trial_type":"html-keyboard-response","trial_index":95,"plugin_version":"2.1.0","time_elapsed":396716},{"phase":"learning-awareness","target_group":"black","condition_label":"B_H_vs_W_L_rep17","target_direction":179,"distractor_direction":270,"session_rotation":87,"rt":-1,"response":"","correct":false,"choices":"ALL_KEYS","correct_choice":["a"],"trial_duration":2000,"flip_timestamps":[],"response_ends_trial":false,"number_of_apertures":200,"number_of_dots":[1,1,1,1,1,1,1,1,1,1,1,1,1,1,1,1,1,1,1,1,1,1,1,1,1,1,1,1,1,1,1,1,1,1,1,1,1,1,1,1,1,1,1,1,1,1,1,1,1,1,1,1,1,1,1,1,1,1,1,1,1,1,1,1,1,1,1,1,1,1,1,1,1,1,1,1,1,1,1,1,1,1,1,1,1,1,1,1,1,1,1,1,1,1,1,1,1,1,1,1,1,1,1,1,1,1,1,1,1,1,1,1,1,1,1,1,1,1,1,1,1,1,1,1,1,1,1,1,1,1,1,1,1,1,1,1,1,1,1,1,1,1,1,1,1,1,1,1,1,1,1,1,1,1,1,1,1,1,1,1,1,1,1,1,1,1,1,1,1,1,1,1,1,1,1,1,1,1,1,1,1,1,1,1,1,1,1,1,1,1,1,1,1,1,1,1,1,1,1,1],"number_of_sets":1,"coherent_direction":[270,270,179,270,270,179,270,179,179,270,270,270,179,179,270,179,270,179,179,270,270,270,270,179,270,270,270,270,179,270,179,270,179,179,270,270,179,179,270,179,179,179,270,179,179,179,179,270,270,179,179,179,270,179,270,270,179,270,179,270,270,270,179,270,179,179,179,179,270,179,270,270,270,270,179,179,270,270,179,179,179,179,179,179,179,179,179,270,270,270,179,179,270,270,179,270,270,270,179,179,179,179,270,270,270,179,179,270,179,270,270,270,270,179,179,179,179,270,270,270,270,270,270,270,270,270,179,179,179,179,179,179,270,270,179,270,179,270,179,270,179,270,179,179,179,179,270,270,270,270,179,179,270,179,179,179,270,179,179,179,270,270,179,179,270,270,270,270,179,270,179,270,179,270,179,270,270,179,179,179,270,270,179,270,179,179,270,270,270,179,179,270,270,179,270,179,270,179,270,179],"coherence":1,"opposite_coherence":0,"dot_radius":2,"dot_side_length":1,"dot_life":-1,"move_distance":1,"aperture_width":300,"aperture_height":300,"dot_color":["white","white","black","white","white","black","white","black","black","white","white","white","black","black","white","black","white","black","black","white","white","white","white","black","white","white","white","white","black","white","black","white","black","black","white","white","black","black","white","black","black","black","white","black","black","black","black","white","white","black","black","black","white","black","white","white","black","white","black","white","white","white","black","white","black","black","black","black","white","black","white","white","white","white","black","black","white","white","black","black","black","black","black","black","black","black","black","white","white","white","black","black","white","white","black","white","white","white","black","black","black","black","white","white","white","black","black","white","black","white","white","white","white","black","black","black","black","white","white","white","white","white","white","white","white","white","black","black","black","black","black","black","white","white","black","white","black","white","black","white","black","white","black","black","black","black","white","white","white","white","black","black","white","black","black","black","white","black","black","black","white","white","black","black","white","white","white","white","black","white","black","white","black","white","black","white","white","black","black","black","white","white","black","white","black","black","white","white","white","black","black","white","white","black","white","black","white","black","white","black"],"dot_shape":"circle","background_color":"#AAA","RDK_type":3,"aperture_type":2,"reinsert_type":2,"frame_rate":16.50413223140496,"frame_rate_array":[15,19,3,8,17,16,18,15,17,17,17,17,17,16,17,16,17,17,16,17,19,14,17,16,17,17,16,17,17,17,16,18,16,17,17,16,17,17,17,17,18,16,16,18,22,11,17,17,17,16,17,18,16,16,16,18,16,17,16,17,17,16,18,16,19,15,16,17,18,16,16,18,16,16,18,16,16,18,16,17,17,16,16,17,16,18,15,18,16,16,17,17,16,17,17,16,17,17,16,17,17,16,17,16,23,10,17,17,16,17,16,17,16,16,17,16,17,17,16,18,16],"number_of_frames":121,"aperture_center_x":960,"aperture_center_y":540,"fixation_cross":true,"fixation_cross_width":15,"fixation_cross_height":15,"fixation_cross_color":"#111","fixation_cross_thickness":1,"border":true,"border_thickness":2,"border_color":"transparent","canvas_width":1920,"canvas_height":1080,"trial_type":"rdk","trial_index":96,"plugin_version":"2.0.0","time_elapsed":398735},{"rt":3280,"stimulus":"\n        <div class=\"response-container\">\n          <div class=\"response-instruction\">\n            <p>rotate the bar by using the left and right arrow keys.</p>\n            <p>when you are determined, press the Enter key.</p>\n          </div>\n          <div class=\"response-circle\">\n            <div class=\"response-fixation\"></div>\n            <div id=\"bar\" class=\"rotating-bar\"></div>\n          </div>\n        </div>\n      ","response":"Enter","trial_type":"html-keyboard-response","trial_index":97,"plugin_version":"2.1.0","time_elapsed":402017,"random_initial_angle":94,"response_angle_css":131,"response_angle_rdk":319,"angular_error_target":140,"angular_error_distractor":49,"target_direction":179,"target_group":"black","reward_points":0},{"rt":null,"stimulus":"\n          <p style=\"color: #FF3333;\">Your reward: 0 points</p>\n        ","response":null,"trial_type":"html-keyboard-response","trial_index":98,"plugin_version":"2.1.0","time_elapsed":404032},{"rt":null,"stimulus":"<div class=\"fixation\" style=\"font-size: 60px;\">+</div>","response":null,"trial_type":"html-keyboard-response","trial_index":99,"plugin_version":"2.1.0","time_elapsed":405035},{"phase":"learning-awareness","target_group":"white","condition_label":"W_H_vs_B_L_rep21","target_direction":118,"distractor_direction":14,"session_rotation":87,"rt":-1,"response":"","correct":false,"choices":"ALL_KEYS","correct_choice":["a"],"trial_duration":2000,"flip_timestamps":[],"response_ends_trial":false,"number_of_apertures":200,"number_of_dots":[1,1,1,1,1,1,1,1,1,1,1,1,1,1,1,1,1,1,1,1,1,1,1,1,1,1,1,1,1,1,1,1,1,1,1,1,1,1,1,1,1,1,1,1,1,1,1,1,1,1,1,1,1,1,1,1,1,1,1,1,1,1,1,1,1,1,1,1,1,1,1,1,1,1,1,1,1,1,1,1,1,1,1,1,1,1,1,1,1,1,1,1,1,1,1,1,1,1,1,1,1,1,1,1,1,1,1,1,1,1,1,1,1,1,1,1,1,1,1,1,1,1,1,1,1,1,1,1,1,1,1,1,1,1,1,1,1,1,1,1,1,1,1,1,1,1,1,1,1,1,1,1,1,1,1,1,1,1,1,1,1,1,1,1,1,1,1,1,1,1,1,1,1,1,1,1,1,1,1,1,1,1,1,1,1,1,1,1,1,1,1,1,1,1,1,1,1,1,1,1],"number_of_sets":1,"coherent_direction":[14,118,118,14,14,14,118,14,118,14,118,118,118,14,14,14,118,14,118,118,118,118,118,118,14,118,118,14,118,14,118,118,14,14,14,118,14,118,118,14,14,118,118,14,118,14,118,14,118,14,14,118,14,118,14,118,118,14,118,14,14,118,14,118,118,14,14,118,118,14,14,118,118,118,14,14,14,14,14,118,14,118,14,14,118,118,118,118,118,118,14,14,14,118,14,118,118,14,14,14,14,118,118,118,14,118,14,14,14,118,118,118,118,118,118,14,14,14,14,118,118,14,14,14,14,118,14,118,118,14,14,14,14,118,14,118,14,14,14,118,118,118,118,14,118,14,14,14,118,118,118,14,118,14,14,14,14,14,14,118,118,14,14,118,118,118,118,14,118,14,118,118,118,118,14,14,118,118,14,14,14,118,14,14,118,14,14,14,118,118,14,118,118,118,14,14,14,118,118,118],"coherence":1,"opposite_coherence":0,"dot_radius":2,"dot_side_length":1,"dot_life":-1,"move_distance":1,"aperture_width":300,"aperture_height":300,"dot_color":["black","white","white","black","black","black","white","black","white","black","white","white","white","black","black","black","white","black","white","white","white","white","white","white","black","white","white","black","white","black","white","white","black","black","black","white","black","white","white","black","black","white","white","black","white","black","white","black","white","black","black","white","black","white","black","white","white","black","white","black","black","white","black","white","white","black","black","white","white","black","black","white","white","white","black","black","black","black","black","white","black","white","black","black","white","white","white","white","white","white","black","black","black","white","black","white","white","black","black","black","black","white","white","white","black","white","black","black","black","white","white","white","white","white","white","black","black","black","black","white","white","black","black","black","black","white","black","white","white","black","black","black","black","white","black","white","black","black","black","white","white","white","white","black","white","black","black","black","white","white","white","black","white","black","black","black","black","black","black","white","white","black","black","white","white","white","white","black","white","black","white","white","white","white","black","black","white","white","black","black","black","white","black","black","white","black","black","black","white","white","black","white","white","white","black","black","black","white","white","white"],"dot_shape":"circle","background_color":"#AAA","RDK_type":3,"aperture_type":2,"reinsert_type":2,"frame_rate":16.727272727272727,"frame_rate_array":[18,8,17,17,17,17,17,16,18,16,17,17,17,17,16,18,16,17,17,16,17,17,16,17,17,16,17,17,16,17,17,16,17,17,16,17,17,16,17,16,17,16,17,17,18,16,17,17,17,17,17,17,16,17,17,17,17,17,17,17,17,17,17,17,16,17,17,17,17,17,16,16,17,17,17,17,17,17,17,16,17,17,16,17,16,17,17,17,16,17,17,17,17,17,16,17,17,16,17,17,16,17,17,16,17,17,17,17,17,17,17,16,17,16,17,17,17,17,17,17,17],"number_of_frames":121,"aperture_center_x":960,"aperture_center_y":540,"fixation_cross":true,"fixation_cross_width":15,"fixation_cross_height":15,"fixation_cross_color":"#111","fixation_cross_thickness":1,"border":true,"border_thickness":2,"border_color":"transparent","canvas_width":1920,"canvas_height":1080,"trial_type":"rdk","trial_index":100,"plugin_version":"2.0.0","time_elapsed":407054},{"rt":4728,"stimulus":"\n        <div class=\"response-container\">\n          <div class=\"response-instruction\">\n            <p>rotate the bar by using the left and right arrow keys.</p>\n            <p>when you are determined, press the Enter key.</p>\n          </div>\n          <div class=\"response-circle\">\n            <div class=\"response-fixation\"></div>\n            <div id=\"bar\" class=\"rotating-bar\"></div>\n          </div>\n        </div>\n      ","response":"Enter","trial_type":"html-keyboard-response","trial_index":101,"plugin_version":"2.1.0","time_elapsed":411784,"random_initial_angle":66,"response_angle_css":-59,"response_angle_rdk":149,"angular_error_target":31,"angular_error_distractor":135,"target_direction":118,"target_group":"white","reward_points":3},{"rt":null,"stimulus":"\n          <p style=\"color: #00FF00;\">Your reward: 3 points</p>\n        ","response":null,"trial_type":"html-keyboard-response","trial_index":102,"plugin_version":"2.1.0","time_elapsed":413794},{"rt":null,"stimulus":"<div class=\"fixation\" style=\"font-size: 60px;\">+</div>","response":null,"trial_type":"html-keyboard-response","trial_index":103,"plugin_version":"2.1.0","time_elapsed":414799},{"phase":"learning-awareness","target_group":"black","condition_label":"B_H_vs_W_L_rep15","target_direction":184,"distractor_direction":298,"session_rotation":87,"rt":-1,"response":"","correct":false,"choices":"ALL_KEYS","correct_choice":["a"],"trial_duration":2000,"flip_timestamps":[],"response_ends_trial":false,"number_of_apertures":200,"number_of_dots":[1,1,1,1,1,1,1,1,1,1,1,1,1,1,1,1,1,1,1,1,1,1,1,1,1,1,1,1,1,1,1,1,1,1,1,1,1,1,1,1,1,1,1,1,1,1,1,1,1,1,1,1,1,1,1,1,1,1,1,1,1,1,1,1,1,1,1,1,1,1,1,1,1,1,1,1,1,1,1,1,1,1,1,1,1,1,1,1,1,1,1,1,1,1,1,1,1,1,1,1,1,1,1,1,1,1,1,1,1,1,1,1,1,1,1,1,1,1,1,1,1,1,1,1,1,1,1,1,1,1,1,1,1,1,1,1,1,1,1,1,1,1,1,1,1,1,1,1,1,1,1,1,1,1,1,1,1,1,1,1,1,1,1,1,1,1,1,1,1,1,1,1,1,1,1,1,1,1,1,1,1,1,1,1,1,1,1,1,1,1,1,1,1,1,1,1,1,1,1,1],"number_of_sets":1,"coherent_direction":[184,298,298,298,184,184,298,184,184,184,298,298,298,298,298,298,298,298,298,184,298,184,298,184,184,184,298,298,184,298,184,184,184,184,298,184,184,184,298,184,184,298,184,184,184,298,184,184,184,298,298,184,298,184,298,184,298,184,298,298,184,184,298,184,298,298,298,298,298,298,298,298,298,184,298,298,298,184,184,298,184,298,298,184,298,184,298,298,298,184,184,184,184,298,298,298,298,184,298,184,184,184,298,298,298,298,184,184,184,298,298,184,184,184,298,298,298,298,184,298,298,184,298,184,298,298,298,184,184,184,184,298,298,298,298,184,298,184,298,184,184,184,184,184,184,298,298,298,184,184,298,184,184,184,298,184,298,184,184,298,184,298,298,298,298,298,184,298,298,184,298,298,184,298,184,184,184,184,298,298,184,184,184,184,184,184,184,184,298,298,184,298,298,184,298,184,184,184,184,184],"coherence":1,"opposite_coherence":0,"dot_radius":2,"dot_side_length":1,"dot_life":-1,"move_distance":1,"aperture_width":300,"aperture_height":300,"dot_color":["black","white","white","white","black","black","white","black","black","black","white","white","white","white","white","white","white","white","white","black","white","black","white","black","black","black","white","white","black","white","black","black","black","black","white","black","black","black","white","black","black","white","black","black","black","white","black","black","black","white","white","black","white","black","white","black","white","black","white","white","black","black","white","black","white","white","white","white","white","white","white","white","white","black","white","white","white","black","black","white","black","white","white","black","white","black","white","white","white","black","black","black","black","white","white","white","white","black","white","black","black","black","white","white","white","white","black","black","black","white","white","black","black","black","white","white","white","white","black","white","white","black","white","black","white","white","white","black","black","black","black","white","white","white","white","black","white","black","white","black","black","black","black","black","black","white","white","white","black","black","white","black","black","black","white","black","white","black","black","white","black","white","white","white","white","white","black","white","white","black","white","white","black","white","black","black","black","black","white","white","black","black","black","black","black","black","black","black","white","white","black","white","white","black","white","black","black","black","black","black"],"dot_shape":"circle","background_color":"#AAA","RDK_type":3,"aperture_type":2,"reinsert_type":2,"frame_rate":16.691666666666666,"frame_rate_array":[27,2,16,18,16,18,16,17,16,17,16,17,16,17,17,16,17,18,16,16,17,18,16,16,17,17,17,18,20,13,18,16,16,17,16,17,16,17,17,16,18,17,16,18,17,16,20,13,17,17,17,16,16,18,16,17,17,17,16,18,16,17,16,17,16,18,15,18,16,16,17,18,16,17,16,17,17,17,16,17,17,16,17,16,17,17,17,17,16,17,21,12,17,17,16,17,16,17,17,17,16,18,16,18,17,16,21,13,17,17,17,16,17,17,17,16,17,16,16,17],"number_of_frames":120,"aperture_center_x":960,"aperture_center_y":540,"fixation_cross":true,"fixation_cross_width":15,"fixation_cross_height":15,"fixation_cross_color":"#111","fixation_cross_thickness":1,"border":true,"border_thickness":2,"border_color":"transparent","canvas_width":1920,"canvas_height":1080,"trial_type":"rdk","trial_index":104,"plugin_version":"2.0.0","time_elapsed":416821},{"rt":4481,"stimulus":"\n        <div class=\"response-container\">\n          <div class=\"response-instruction\">\n            <p>rotate the bar by using the left and right arrow keys.</p>\n            <p>when you are determined, press the Enter key.</p>\n          </div>\n          <div class=\"response-circle\">\n            <div class=\"response-fixation\"></div>\n            <div id=\"bar\" class=\"rotating-bar\"></div>\n          </div>\n        </div>\n      ","response":"Enter","trial_type":"html-keyboard-response","trial_index":105,"plugin_version":"2.1.0","time_elapsed":421309,"random_initial_angle":175,"response_angle_css":124,"response_angle_rdk":326,"angular_error_target":142,"angular_error_distractor":28,"target_direction":184,"target_group":"black","reward_points":0},{"rt":null,"stimulus":"\n          <p style=\"color: #FF3333;\">Your reward: 0 points</p>\n        ","response":null,"trial_type":"html-keyboard-response","trial_index":106,"plugin_v