[{"rt":4465,"stimulus":"Welcome to the experiment. Press any key to begin.","response":" ","trial_type":"html-keyboard-response","trial_index":0,"plugin_version":"2.1.0","time_elapsed":4473},{"rt":49348,"stimulus":"\n        <div class=\"instructions-container\">\n          <h2>Instructions</h2>\n\n          <p>\n          In this experiment, you will see <strong>two Random Dot Kinematograms (RDKs)</strong> displayed simultaneously.\n          </p>\n\n          <p>\n          An RDK is a visual stimulus consisting of many small dots that move coherently in a single direction. \n          In this experiment, the dots will be either <strong>white</strong> or <strong>black</strong> \n          (see the short demo below for an example of an RDK stimulus).\n          </p>\n\n          <p>\n          On each trial, the two RDKs will move in different directions. \n          Your task is to decide <strong>which RDK appears to contain more dots</strong>.\n          </p>\n\n          <p>\n          The RDK that you judge to have more dots is called the <strong>target RDK</strong>. \n          For example, if the white RDK appears to have more dots than the black RDK, \n          you should report the motion direction of the white RDK.\n          </p>\n\n          <p>\n          After viewing the RDKs, you will rotate a bar to indicate the perceived direction of the target RDK \n          using the <strong>left</strong> and <strong>right arrow keys</strong>. \n          Press <strong>Enter</strong> when you are satisfied with your response.\n          </p>\n\n          <p>\n          You will receive points based on the <strong>accuracy of your response</strong>, \n          and your final <strong>bonus reward</strong> may depend on your overall performance. \n          Please try to respond as accurately as possible.\n          </p>\n\n          <p>\n          You will first complete <strong>16 practice trials</strong>. \n          Press the <strong>Enter</strong> key to start the practice phase.\n          </p>\n\n          <canvas id=\"instruction-demo-rdk\" width=\"200\" height=\"200\"style=\"display:block;margin:12px auto; border-radius: 50%;\"></canvas>\n        </div>\n      ","response":"Enter","trial_type":"html-keyboard-response","trial_index":1,"plugin_version":"2.1.0","time_elapsed":53836},{"rt":null,"stimulus":"<div class=\"fixation\" style=\"font-size: 60px;\">+</div>","response":null,"trial_type":"html-keyboard-response","trial_index":2,"plugin_version":"2.1.0","time_elapsed":54842},{"target_group":"white","target_index":0,"condition_label":"practice","rt":-1,"response":"","correct":false,"choices":"ALL_KEYS","correct_choice":["a"],"trial_duration":2000,"flip_timestamps":[],"response_ends_trial":false,"number_of_apertures":2,"number_of_dots":[100,91],"number_of_sets":1,"coherent_direction":[239,39],"coherence":1,"opposite_coherence":0,"dot_radius":2,"dot_side_length":1,"dot_life":-1,"move_distance":1,"aperture_width":300,"aperture_height":300,"dot_color":["white","black"],"dot_shape":"circle","background_color":"#AAA","RDK_type":3,"aperture_type":2,"reinsert_type":2,"frame_rate":16.52892561983471,"frame_rate_array":[4,8,17,15,17,18,18,16,18,17,15,16,16,17,17,16,18,16,17,18,18,20,16,16,15,16,15,16,17,17,17,17,17,16,17,17,16,17,17,16,17,17,16,17,18,17,16,17,17,17,17,19,14,18,16,17,19,15,17,18,15,18,16,20,14,18,13,16,17,19,14,19,17,16,18,18,13,18,16,16,17,17,17,17,17,16,18,16,16,17,17,17,18,14,16,17,15,17,17,16,16,17,17,17,17,16,17,17,16,17,17,16,17,17,16,17,17,17,17,16,17],"number_of_frames":121,"aperture_center_x":768,"aperture_center_y":432,"fixation_cross":true,"fixation_cross_width":15,"fixation_cross_height":15,"fixation_cross_color":"#111","fixation_cross_thickness":1,"border":true,"border_thickness":2,"border_color":"transparent","canvas_width":1536,"canvas_height":864,"trial_type":"rdk","trial_index":3,"plugin_version":"2.0.0","time_elapsed":56857,"target_direction":239,"distractor_direction":39},{"rt":10253,"stimulus":"\n        <div class=\"response-container\">\n          <div class=\"response-instruction\">\n            <p>rotate the bar by using the left and right arrow keys.</p>\n            <p>when you are determined, press the Enter key.</p>\n          </div>\n          <div class=\"response-circle\">\n            <div class=\"response-fixation\"></div>\n            <div id=\"bar\" class=\"rotating-bar\"></div>\n          </div>\n        </div>\n      ","response":"Enter","trial_type":"html-keyboard-response","trial_index":4,"plugin_version":"2.1.0","time_elapsed":67111,"random_initial_angle":14,"response_angle_css":29,"response_angle_rdk":61,"angular_error_target":-178,"angular_error_distractor":22,"target_direction":239,"target_group":"white","reward_points":0},{"rt":null,"stimulus":"\n          <p style=\"color: #FF3333;\">Your reward: 0 points</p>\n        ","response":null,"trial_type":"html-keyboard-response","trial_index":5,"plugin_version":"2.1.0","time_elapsed":69118},{"rt":null,"stimulus":"<div class=\"fixation\" style=\"font-size: 60px;\">+</div>","response":null,"trial_type":"html-keyboard-response","trial_index":6,"plugin_version":"2.1.0","time_elapsed":70139},{"target_group":"white","target_index":0,"condition_label":"practice","rt":-1,"response":"","correct":false,"choices":"ALL_KEYS","correct_choice":["a"],"trial_duration":2000,"flip_timestamps":[],"response_ends_trial":false,"number_of_apertures":2,"number_of_dots":[100,95],"number_of_sets":1,"coherent_direction":[63,187],"coherence":1,"opposite_coherence":0,"dot_radius":2,"dot_side_length":1,"dot_life":-1,"move_distance":1,"aperture_width":300,"aperture_height":300,"dot_color":["white","black"],"dot_shape":"circle","background_color":"#AAA","RDK_type":3,"aperture_type":2,"reinsert_type":2,"frame_rate":16.694214876033058,"frame_rate_array":[21,5,16,18,16,17,18,17,16,16,16,17,17,18,17,17,16,17,18,17,16,17,15,16,18,17,16,18,16,17,19,15,17,17,19,15,16,17,15,17,16,17,17,16,17,18,16,17,20,17,21,13,14,15,16,18,17,19,15,18,20,17,13,16,16,16,17,16,18,17,17,17,16,18,16,16,18,16,17,18,21,14,12,18,17,18,20,15,13,17,17,17,19,16,17,15,16,17,18,18,17,20,13,16,15,18,15,17,18,19,14,16,15,17,17,17,20,14,16,18,18],"number_of_frames":121,"aperture_center_x":768,"aperture_center_y":432,"fixation_cross":true,"fixation_cross_width":15,"fixation_cross_height":15,"fixation_cross_color":"#111","fixation_cross_thickness":1,"border":true,"border_thickness":2,"border_color":"transparent","canvas_width":1536,"canvas_height":864,"trial_type":"rdk","trial_index":7,"plugin_version":"2.0.0","time_elapsed":72162,"target_direction":63,"distractor_direction":187},{"rt":5278,"stimulus":"\n        <div class=\"response-container\">\n          <div class=\"response-instruction\">\n            <p>rotate the bar by using the left and right arrow keys.</p>\n            <p>when you are determined, press the Enter key.</p>\n          </div>\n          <div class=\"response-circle\">\n            <div class=\"response-fixation\"></div>\n            <div id=\"bar\" class=\"rotating-bar\"></div>\n          </div>\n        </div>\n      ","response":"Enter","trial_type":"html-keyboard-response","trial_index":8,"plugin_version":"2.1.0","time_elapsed":77442,"random_initial_angle":116,"response_angle_css":211,"response_angle_rdk":239,"angular_error_target":176,"angular_error_distractor":52,"target_direction":63,"target_group":"white","reward_points":0},{"rt":null,"stimulus":"\n          <p style=\"color: #FF3333;\">Your reward: 0 points</p>\n        ","response":null,"trial_type":"html-keyboard-response","trial_index":9,"plugin_version":"2.1.0","time_elapsed":79445},{"rt":null,"stimulus":"<div class=\"fixation\" style=\"font-size: 60px;\">+</div>","response":null,"trial_type":"html-keyboard-response","trial_index":10,"plugin_version":"2.1.0","time_elapsed":80460},{"target_group":"white","target_index":0,"condition_label":"practice","rt":-1,"response":"","correct":false,"choices":"ALL_KEYS","correct_choice":["a"],"trial_duration":2000,"flip_timestamps":[],"response_ends_trial":false,"number_of_apertures":2,"number_of_dots":[100,55],"number_of_sets":1,"coherent_direction":[225,122],"coherence":1,"opposite_coherence":0,"dot_radius":2,"dot_side_length":1,"dot_life":-1,"move_distance":1,"aperture_width":300,"aperture_height":300,"dot_color":["white","black"],"dot_shape":"circle","background_color":"#AAA","RDK_type":3,"aperture_type":2,"reinsert_type":2,"frame_rate":16.59504132231405,"frame_rate_array":[1,15,17,16,18,22,11,18,15,16,17,17,16,18,17,16,17,19,16,20,13,19,14,18,18,18,13,16,18,17,16,17,18,19,14,17,21,17,16,13,16,16,17,21,18,17,15,18,16,12,17,20,13,18,16,17,18,17,18,16,15,16,16,17,17,23,11,19,17,16,18,17,19,12,19,18,15,19,13,16,17,16,16,18,16,21,16,15,16,21,14,14,16,19,21,13,18,15,20,13,18,17,13,18,16,15,17,17,17,17,18,17,18,18,19,15,15,14,17,16,18],"number_of_frames":121,"aperture_center_x":768,"aperture_center_y":432,"fixation_cross":true,"fixation_cross_width":15,"fixation_cross_height":15,"fixation_cross_color":"#111","fixation_cross_thickness":1,"border":true,"border_thickness":2,"border_color":"transparent","canvas_width":1536,"canvas_height":864,"trial_type":"rdk","trial_index":11,"plugin_version":"2.0.0","time_elapsed":82466,"target_direction":225,"distractor_direction":122},{"rt":6116,"stimulus":"\n        <div class=\"response-container\">\n          <div class=\"response-instruction\">\n            <p>rotate the bar by using the left and right arrow keys.</p>\n            <p>when you are determined, press the Enter key.</p>\n          </div>\n          <div class=\"response-circle\">\n            <div class=\"response-fixation\"></div>\n            <div id=\"bar\" class=\"rotating-bar\"></div>\n          </div>\n        </div>\n      ","response":"Enter","trial_type":"html-keyboard-response","trial_index":12,"plugin_version":"2.1.0","time_elapsed":88584,"random_initial_angle":151,"response_angle_css":209,"response_angle_rdk":241,"angular_error_target":16,"angular_error_distractor":119,"target_direction":225,"target_group":"white","reward_points":6},{"rt":null,"stimulus":"\n          <p style=\"color: #00FF00;\">Your reward: 6 points</p>\n        ","response":null,"trial_type":"html-keyboard-response","trial_index":13,"plugin_version":"2.1.0","time_elapsed":90587},{"rt":null,"stimulus":"<div class=\"fixation\" style=\"font-size: 60px;\">+</div>","response":null,"trial_type":"html-keyboard-response","trial_index":14,"plugin_version":"2.1.0","time_elapsed":91600},{"target_group":"white","target_index":0,"condition_label":"practice","rt":-1,"response":"","correct":false,"choices":"ALL_KEYS","correct_choice":["a"],"trial_duration":2000,"flip_timestamps":[],"response_ends_trial":false,"number_of_apertures":2,"number_of_dots":[100,86],"number_of_sets":1,"coherent_direction":[55,283],"coherence":1,"opposite_coherence":0,"dot_radius":2,"dot_side_length":1,"dot_life":-1,"move_distance":1,"aperture_width":300,"aperture_height":300,"dot_color":["white","black"],"dot_shape":"circle","background_color":"#AAA","RDK_type":3,"aperture_type":2,"reinsert_type":2,"frame_rate":16.553719008264462,"frame_rate_array":[1,14,16,16,17,20,15,18,16,16,17,20,13,18,19,12,16,17,16,19,19,14,18,21,14,12,17,16,16,18,16,18,16,19,15,19,16,16,18,16,17,17,16,20,17,14,14,18,17,17,17,17,18,17,15,16,16,16,17,16,17,18,16,16,19,14,18,18,17,15,18,20,12,16,21,14,16,16,15,17,17,17,17,17,19,16,17,16,18,18,14,17,19,19,12,21,17,12,17,17,19,19,14,19,15,16,15,16,18,15,16,17,16,17,18,18,18,14,17,17,17],"number_of_frames":121,"aperture_center_x":768,"aperture_center_y":432,"fixation_cross":true,"fixation_cross_width":15,"fixation_cross_height":15,"fixation_cross_color":"#111","fixation_cross_thickness":1,"border":true,"border_thickness":2,"border_color":"transparent","canvas_width":1536,"canvas_height":864,"trial_type":"rdk","trial_index":15,"plugin_version":"2.0.0","time_elapsed":93607,"target_direction":55,"distractor_direction":283},{"rt":2653,"stimulus":"\n        <div class=\"response-container\">\n          <div class=\"response-instruction\">\n            <p>rotate the bar by using the left and right arrow keys.</p>\n            <p>when you are determined, press the Enter key.</p>\n          </div>\n          <div class=\"response-circle\">\n            <div class=\"response-fixation\"></div>\n            <div id=\"bar\" class=\"rotating-bar\"></div>\n          </div>\n        </div>\n      ","response":"Enter","trial_type":"html-keyboard-response","trial_index":16,"plugin_version":"2.1.0","time_elapsed":96263,"random_initial_angle":39,"response_angle_css":28,"response_angle_rdk":62,"angular_error_target":7,"angular_error_distractor":139,"target_direction":55,"target_group":"white","reward_points":8},{"rt":null,"stimulus":"\n          <p style=\"color: #00FF00;\">Your reward: 8 points</p>\n        ","response":null,"trial_type":"html-keyboard-response","trial_index":17,"plugin_version":"2.1.0","time_elapsed":98278},{"rt":null,"stimulus":"<div class=\"fixation\" style=\"font-size: 60px;\">+</div>","response":null,"trial_type":"html-keyboard-response","trial_index":18,"plugin_version":"2.1.0","time_elapsed":99289},{"target_group":"black","target_index":1,"condition_label":"practice","rt":-1,"response":"","correct":false,"choices":"ALL_KEYS","correct_choice":["a"],"trial_duration":2000,"flip_timestamps":[],"response_ends_trial":false,"number_of_apertures":2,"number_of_dots":[67,100],"number_of_sets":1,"coherent_direction":[315,101],"coherence":1,"opposite_coherence":0,"dot_radius":2,"dot_side_length":1,"dot_life":-1,"move_distance":1,"aperture_width":300,"aperture_height":300,"dot_color":["white","black"],"dot_shape":"circle","background_color":"#AAA","RDK_type":3,"aperture_type":2,"reinsert_type":2,"frame_rate":16.628099173553718,"frame_rate_array":[7,13,16,19,22,12,16,16,19,17,13,17,18,14,18,25,8,21,15,13,16,18,18,18,18,14,17,15,16,17,16,16,18,17,18,17,15,18,17,18,15,16,20,12,15,17,16,17,17,17,18,18,17,18,17,16,19,15,16,20,14,14,17,16,17,19,16,17,17,20,12,15,17,18,16,17,18,18,18,16,14,16,17,17,18,16,16,16,18,18,17,17,14,16,17,16,19,16,21,15,19,16,14,16,15,17,17,17,17,17,17,16,17,18,16,15,19,17,17,16,21],"number_of_frames":121,"aperture_center_x":768,"aperture_center_y":432,"fixation_cross":true,"fixation_cross_width":15,"fixation_cross_height":15,"fixation_cross_color":"#111","fixation_cross_thickness":1,"border":true,"border_thickness":2,"border_color":"transparent","canvas_width":1536,"canvas_height":864,"trial_type":"rdk","trial_index":19,"plugin_version":"2.0.0","time_elapsed":101302,"target_direction":101,"distractor_direction":315},{"rt":1669,"stimulus":"\n        <div class=\"response-container\">\n          <div class=\"response-instruction\">\n            <p>rotate the bar by using the left and right arrow keys.</p>\n            <p>when you are determined, press the Enter key.</p>\n          </div>\n          <div class=\"response-circle\">\n            <div class=\"response-fixation\"></div>\n            <div id=\"bar\" class=\"rotating-bar\"></div>\n          </div>\n        </div>\n      ","response":"Enter","trial_type":"html-keyboard-response","trial_index":20,"plugin_version":"2.1.0","time_elapsed":102973,"random_initial_angle":129,"response_angle_css":129,"response_angle_rdk":321,"angular_error_target":-140,"angular_error_distractor":6,"target_direction":101,"target_group":"black","reward_points":0},{"rt":null,"stimulus":"\n          <p style=\"color: #FF3333;\">Your reward: 0 points</p>\n        ","response":null,"trial_type":"html-keyboard-response","trial_index":21,"plugin_version":"2.1.0","time_elapsed":104975},{"rt":null,"stimulus":"<div class=\"fixation\" style=\"font-size: 60px;\">+</div>","response":null,"trial_type":"html-keyboard-response","trial_index":22,"plugin_version":"2.1.0","time_elapsed":105995},{"target_group":"black","target_index":1,"condition_label":"practice","rt":-1,"response":"","correct":false,"choices":"ALL_KEYS","correct_choice":["a"],"trial_duration":2000,"flip_timestamps":[],"response_ends_trial":false,"number_of_apertures":2,"number_of_dots":[63,100],"number_of_sets":1,"coherent_direction":[273,139],"coherence":1,"opposite_coherence":0,"dot_radius":2,"dot_side_length":1,"dot_life":-1,"move_distance":1,"aperture_width":300,"aperture_height":300,"dot_color":["white","black"],"dot_shape":"circle","background_color":"#AAA","RDK_type":3,"aperture_type":2,"reinsert_type":2,"frame_rate":16.694214876033058,"frame_rate_array":[7,17,16,18,17,17,16,17,17,17,16,18,16,16,16,17,16,17,17,17,17,18,16,17,17,17,18,16,16,16,17,17,16,17,17,17,18,17,16,17,16,16,17,17,17,18,16,17,17,17,16,16,17,17,18,17,16,17,17,17,17,17,16,16,16,17,17,17,17,17,17,17,17,17,17,17,16,17,16,17,17,17,17,17,17,17,17,17,16,17,18,16,16,17,16,17,17,17,17,18,16,17,16,17,16,17,16,16,17,16,17,17,17,18,17,17,17,16,16,16,17],"number_of_frames":121,"aperture_center_x":768,"aperture_center_y":432,"fixation_cross":true,"fixation_cross_width":15,"fixation_cross_height":15,"fixation_cross_color":"#111","fixation_cross_thickness":1,"border":true,"border_thickness":2,"border_color":"transparent","canvas_width":1536,"canvas_height":864,"trial_type":"rdk","trial_index":23,"plugin_version":"2.0.0","time_elapsed":108004,"target_direction":139,"distractor_direction":273},{"rt":2846,"stimulus":"\n        <div class=\"response-container\">\n          <div class=\"response-instruction\">\n            <p>rotate the bar by using the left and right arrow keys.</p>\n            <p>when you are determined, press the Enter key.</p>\n          </div>\n          <div class=\"response-circle\">\n            <div class=\"response-fixation\"></div>\n            <div id=\"bar\" class=\"rotating-bar\"></div>\n          </div>\n        </div>\n      ","response":"Enter","trial_type":"html-keyboard-response","trial_index":24,"plugin_version":"2.1.0","time_elapsed":110852,"random_initial_angle":26,"response_angle_css":159,"response_angle_rdk":291,"angular_error_target":152,"angular_error_distractor":18,"target_direction":139,"target_group":"black","reward_points":0},{"rt":null,"stimulus":"\n          <p style=\"color: #FF3333;\">Your reward: 0 points</p>\n        ","response":null,"trial_type":"html-keyboard-response","trial_index":25,"plugin_version":"2.1.0","time_elapsed":112867},{"rt":null,"stimulus":"<div class=\"fixation\" style=\"font-size: 60px;\">+</div>","response":null,"trial_type":"html-keyboard-response","trial_index":26,"plugin_version":"2.1.0","time_elapsed":113884},{"target_group":"black","target_index":1,"condition_label":"practice","rt":-1,"response":"","correct":false,"choices":"ALL_KEYS","correct_choice":["a"],"trial_duration":2000,"flip_timestamps":[],"response_ends_trial":false,"number_of_apertures":2,"number_of_dots":[75,100],"number_of_sets":1,"coherent_direction":[358,131],"coherence":1,"opposite_coherence":0,"dot_radius":2,"dot_side_length":1,"dot_life":-1,"move_distance":1,"aperture_width":300,"aperture_height":300,"dot_color":["white","black"],"dot_shape":"circle","background_color":"#AAA","RDK_type":3,"aperture_type":2,"reinsert_type":2,"frame_rate":16.735537190082646,"frame_rate_array":[9,17,17,17,16,17,16,17,17,17,17,17,17,17,17,17,17,17,16,16,17,17,17,17,16,17,17,17,17,17,17,16,17,17,17,17,17,17,17,17,17,17,17,17,18,16,17,17,17,17,17,17,16,16,17,17,18,17,16,17,17,15,16,17,17,18,17,16,17,18,16,16,16,17,17,17,17,17,17,17,17,17,17,17,17,17,17,17,16,17,16,16,17,17,16,17,17,16,17,17,16,17,18,16,17,17,17,17,17,17,16,16,18,17,15,17,17,16,16,17,17],"number_of_frames":121,"aperture_center_x":768,"aperture_center_y":432,"fixation_cross":true,"fixation_cross_width":15,"fixation_cross_height":15,"fixation_cross_color":"#111","fixation_cross_thickness":1,"border":true,"border_thickness":2,"border_color":"transparent","canvas_width":1536,"canvas_height":864,"trial_type":"rdk","trial_index":27,"plugin_version":"2.0.0","time_elapsed":115898,"target_direction":131,"distractor_direction":358},{"rt":4705,"stimulus":"\n        <div class=\"response-container\">\n          <div class=\"response-instruction\">\n            <p>rotate the bar by using the left and right arrow keys.</p>\n            <p>when you are determined, press the Enter key.</p>\n          </div>\n          <div class=\"response-circle\">\n            <div class=\"response-fixation\"></div>\n            <div id=\"bar\" class=\"rotating-bar\"></div>\n          </div>\n        </div>\n      ","response":"Enter","trial_type":"html-keyboard-response","trial_index":28,"plugin_version":"2.1.0","time_elapsed":120605,"random_initial_angle":222,"response_angle_css":127,"response_angle_rdk":323,"angular_error_target":-168,"angular_error_distractor":-35,"target_direction":131,"target_group":"black","reward_points":0},{"rt":null,"stimulus":"\n          <p style=\"color: #FF3333;\">Your reward: 0 points</p>\n        ","response":null,"trial_type":"html-keyboard-response","trial_index":29,"plugin_version":"2.1.0","time_elapsed":122614},{"rt":null,"stimulus":"<div class=\"fixation\" style=\"font-size: 60px;\">+</div>","response":null,"trial_type":"html-keyboard-response","trial_index":30,"plugin_version":"2.1.0","time_elapsed":123616},{"target_group":"white","target_index":0,"condition_label":"practice","rt":-1,"response":"","correct":false,"choices":"ALL_KEYS","correct_choice":["a"],"trial_duration":2000,"flip_timestamps":[],"response_ends_trial":false,"number_of_apertures":2,"number_of_dots":[100,99],"number_of_sets":1,"coherent_direction":[227,132],"coherence":1,"opposite_coherence":0,"dot_radius":2,"dot_side_length":1,"dot_life":-1,"move_distance":1,"aperture_width":300,"aperture_height":300,"dot_color":["white","black"],"dot_shape":"circle","background_color":"#AAA","RDK_type":3,"aperture_type":2,"reinsert_type":2,"frame_rate":16.611570247933884,"frame_rate_array":[4,16,18,16,20,17,14,17,17,19,15,16,16,17,17,16,17,18,17,21,13,17,17,18,12,17,17,16,17,17,16,18,20,14,17,17,16,18,15,14,17,17,18,17,19,15,16,17,15,17,18,15,17,17,17,17,17,16,17,17,15,16,17,17,17,17,23,14,13,17,16,20,14,17,17,17,16,16,18,18,20,12,18,22,13,16,19,13,16,17,16,18,18,15,18,17,16,19,16,19,12,16,17,17,17,18,16,16,19,17,19,13,16,16,16,17,17,17,18,15,18],"number_of_frames":121,"aperture_center_x":768,"aperture_center_y":432,"fixation_cross":true,"fixation_cross_width":15,"fixation_cross_height":15,"fixation_cross_color":"#111","fixation_cross_thickness":1,"border":true,"border_thickness":2,"border_color":"transparent","canvas_width":1536,"canvas_height":864,"trial_type":"rdk","trial_index":31,"plugin_version":"2.0.0","time_elapsed":125628,"target_direction":227,"distractor_direction":132},{"rt":4724,"stimulus":"\n        <div class=\"response-container\">\n          <div class=\"response-instruction\">\n            <p>rotate the bar by using the left and right arrow keys.</p>\n            <p>when you are determined, press the Enter key.</p>\n          </div>\n          <div class=\"response-circle\">\n            <div class=\"response-fixation\"></div>\n            <div id=\"bar\" class=\"rotating-bar\"></div>\n          </div>\n        </div>\n      ","response":"Enter","trial_type":"html-keyboard-response","trial_index":32,"plugin_version":"2.1.0","time_elapsed":130354,"random_initial_angle":107,"response_angle_css":214,"response_angle_rdk":236,"angular_error_target":9,"angular_error_distractor":104,"target_direction":227,"target_group":"white","reward_points":8},{"rt":null,"stimulus":"\n          <p style=\"color: #00FF00;\">Your reward: 8 points</p>\n        ","response":null,"trial_type":"html-keyboard-response","trial_index":33,"plugin_version":"2.1.0","time_elapsed":132357},{"rt":null,"stimulus":"<div class=\"fixation\" style=\"font-size: 60px;\">+</div>","response":null,"trial_type":"html-keyboard-response","trial_index":34,"plugin_version":"2.1.0","time_elapsed":133369},{"target_group":"black","target_index":1,"condition_label":"practice","rt":-1,"response":"","correct":false,"choices":"ALL_KEYS","correct_choice":["a"],"trial_duration":2000,"flip_timestamps":[],"response_ends_trial":false,"number_of_apertures":2,"number_of_dots":[78,100],"number_of_sets":1,"coherent_direction":[28,298],"coherence":1,"opposite_coherence":0,"dot_radius":2,"dot_side_length":1,"dot_life":-1,"move_distance":1,"aperture_width":300,"aperture_height":300,"dot_color":["white","black"],"dot_shape":"circle","background_color":"#AAA","RDK_type":3,"aperture_type":2,"reinsert_type":2,"frame_rate":16.74380165289256,"frame_rate_array":[9,17,17,17,16,17,17,17,17,16,19,13,16,17,16,18,18,16,17,16,15,17,18,15,17,17,17,17,18,16,17,17,15,17,17,16,17,17,17,16,17,17,17,18,16,17,17,17,17,17,17,17,17,17,17,17,16,17,17,17,17,17,17,17,17,17,17,17,17,16,17,17,17,17,17,16,17,17,17,17,17,17,17,17,17,16,17,16,17,17,17,17,16,17,17,16,17,17,17,17,17,17,17,17,17,18,18,16,16,18,15,18,17,15,16,16,17,17,17,17,18],"number_of_frames":121,"aperture_center_x":768,"aperture_center_y":432,"fixation_cross":true,"fixation_cross_width":15,"fixation_cross_height":15,"fixation_cross_color":"#111","fixation_cross_thickness":1,"border":true,"border_thickness":2,"border_color":"transparent","canvas_width":1536,"canvas_height":864,"trial_type":"rdk","trial_index":35,"plugin_version":"2.0.0","time_elapsed":135384,"target_direction":298,"distractor_direction":28},{"rt":2950,"stimulus":"\n        <div class=\"response-container\">\n          <div class=\"response-instruction\">\n            <p>rotate the bar by using the left and right arrow keys.</p>\n            <p>when you are determined, press the Enter key.</p>\n          </div>\n          <div class=\"response-circle\">\n            <div class=\"response-fixation\"></div>\n            <div id=\"bar\" class=\"rotating-bar\"></div>\n          </div>\n        </div>\n      ","response":"Enter","trial_type":"html-keyboard-response","trial_index":36,"plugin_version":"2.1.0","time_elapsed":138337,"random_initial_angle":102,"response_angle_css":35,"response_angle_rdk":55,"angular_error_target":117,"angular_error_distractor":27,"target_direction":298,"target_group":"black","reward_points":0},{"rt":null,"stimulus":"\n          <p style=\"color: #FF3333;\">Your reward: 0 points</p>\n        ","response":null,"trial_type":"html-keyboard-response","trial_index":37,"plugin_version":"2.1.0","time_elapsed":140342},{"rt":null,"stimulus":"<div class=\"fixation\" style=\"font-size: 60px;\">+</div>","response":null,"trial_type":"html-keyboard-response","trial_index":38,"plugin_version":"2.1.0","time_elapsed":141351},{"target_group":"black","target_index":1,"condition_label":"practice","rt":-1,"response":"","correct":false,"choices":"ALL_KEYS","correct_choice":["a"],"trial_duration":2000,"flip_timestamps":[],"response_ends_trial":false,"number_of_apertures":2,"number_of_dots":[56,100],"number_of_sets":1,"coherent_direction":[250,40],"coherence":1,"opposite_coherence":0,"dot_radius":2,"dot_side_length":1,"dot_life":-1,"move_distance":1,"aperture_width":300,"aperture_height":300,"dot_color":["white","black"],"dot_shape":"circle","background_color":"#AAA","RDK_type":3,"aperture_type":2,"reinsert_type":2,"frame_rate":16.619834710743802,"frame_rate_array":[5,15,17,17,16,17,17,16,17,17,16,17,17,16,17,18,17,17,16,17,16,19,15,17,17,16,17,15,17,16,17,18,16,18,17,18,17,16,15,17,18,15,16,17,17,17,16,17,16,17,17,17,17,17,18,17,17,18,15,19,15,16,15,16,16,17,21,15,17,17,16,16,17,17,17,16,15,17,17,17,17,19,16,17,19,15,16,15,17,17,16,17,17,16,18,17,18,16,18,17,15,16,16,18,18,17,14,16,17,17,19,18,16,16,18,16,15,15,16,17,19],"number_of_frames":121,"aperture_center_x":768,"aperture_center_y":432,"fixation_cross":true,"fixation_cross_width":15,"fixation_cross_height":15,"fixation_cross_color":"#111","fixation_cross_thickness":1,"border":true,"border_thickness":2,"border_color":"transparent","canvas_width":1536,"canvas_height":864,"trial_type":"rdk","trial_index":39,"plugin_version":"2.0.0","time_elapsed":143359,"target_direction":40,"distractor_direction":250},{"rt":2646,"stimulus":"\n        <div class=\"response-container\">\n          <div class=\"response-instruction\">\n            <p>rotate the bar by using the left and right arrow keys.</p>\n            <p>when you are determined, press the Enter key.</p>\n          </div>\n          <div class=\"response-circle\">\n            <div class=\"response-fixation\"></div>\n            <div id=\"bar\" class=\"rotating-bar\"></div>\n          </div>\n        </div>\n      ","response":"Enter","trial_type":"html-keyboard-response","trial_index":40,"plugin_version":"2.1.0","time_elapsed":146007,"random_initial_angle":105,"response_angle_css":44,"response_angle_rdk":46,"angular_error_target":6,"angular_error_distractor":156,"target_direction":40,"target_group":"black","reward_points":8},{"rt":null,"stimulus":"\n          <p style=\"color: #00FF00;\">Your reward: 8 points</p>\n        ","response":null,"trial_type":"html-keyboard-response","trial_index":41,"plugin_version":"2.1.0","time_elapsed":148022},{"rt":null,"stimulus":"<div class=\"fixation\" style=\"font-size: 60px;\">+</div>","response":null,"trial_type":"html-keyboard-response","trial_index":42,"plugin_version":"2.1.0","time_elapsed":149040},{"target_group":"black","target_index":1,"condition_label":"practice","rt":-1,"response":"","correct":false,"choices":"ALL_KEYS","correct_choice":["a"],"trial_duration":2000,"flip_timestamps":[],"response_ends_trial":false,"number_of_apertures":2,"number_of_dots":[73,100],"number_of_sets":1,"coherent_direction":[243,102],"coherence":1,"opposite_coherence":0,"dot_radius":2,"dot_side_length":1,"dot_life":-1,"move_distance":1,"aperture_width":300,"aperture_height":300,"dot_color":["white","black"],"dot_shape":"circle","background_color":"#AAA","RDK_type":3,"aperture_type":2,"reinsert_type":2,"frame_rate":16.591666666666665,"frame_rate_array":[12,12,14,17,17,17,16,17,17,17,18,15,16,17,17,18,18,15,17,20,14,15,16,16,18,18,17,17,18,16,21,12,15,17,17,17,17,16,17,16,19,16,17,18,16,17,18,16,15,16,17,17,18,17,18,17,15,18,16,15,17,17,17,17,17,17,17,17,16,17,18,16,18,13,16,16,17,17,18,18,16,16,19,14,16,16,17,17,16,17,18,15,17,17,16,18,16,19,15,16,20,14,18,18,13,16,16,16,17,16,19,17,16,17,17,16,15,17,17,16],"number_of_frames":120,"aperture_center_x":768,"aperture_center_y":432,"fixation_cross":true,"fixation_cross_width":15,"fixation_cross_height":15,"fixation_cross_color":"#111","fixation_cross_thickness":1,"border":true,"border_thickness":2,"border_color":"transparent","canvas_width":1536,"canvas_height":864,"trial_type":"rdk","trial_index":43,"plugin_version":"2.0.0","time_elapsed":151048,"target_direction":102,"distractor_direction":243},{"rt":4450,"stimulus":"\n        <div class=\"response-container\">\n          <div class=\"response-instruction\">\n            <p>rotate the bar by using the left and right arrow keys.</p>\n            <p>when you are determined, press the Enter key.</p>\n          </div>\n          <div class=\"response-circle\">\n            <div class=\"response-fixation\"></div>\n            <div id=\"bar\" class=\"rotating-bar\"></div>\n          </div>\n        </div>\n      ","response":"Enter","trial_type":"html-keyboard-response","trial_index":44,"plugin_version":"2.1.0","time_elapsed":155501,"random_initial_angle":44,"response_angle_css":-1,"response_angle_rdk":91,"angular_error_target":-11,"angular_error_distractor":-152,"target_direction":102,"target_group":"black","reward_points":7},{"rt":null,"stimulus":"\n          <p style=\"color: #00FF00;\">Your reward: 7 points</p>\n        ","response":null,"trial_type":"html-keyboard-response","trial_index":45,"plugin_version":"2.1.0","time_elapsed":157508},{"rt":null,"stimulus":"<div class=\"fixation\" style=\"font-size: 60px;\">+</div>","response":null,"trial_type":"html-keyboard-response","trial_index":46,"plugin_version":"2.1.0","time_elapsed":158523},{"target_group":"white","target_index":0,"condition_label":"practice","rt":-1,"response":"","correct":false,"choices":"ALL_KEYS","correct_choice":["a"],"trial_duration":2000,"flip_timestamps":[],"response_ends_trial":false,"number_of_apertures":2,"number_of_dots":[100,86],"number_of_sets":1,"coherent_direction":[223,354],"coherence":1,"opposite_coherence":0,"dot_radius":2,"dot_side_length":1,"dot_life":-1,"move_distance":1,"aperture_width":300,"aperture_height":300,"dot_color":["white","black"],"dot_shape":"circle","background_color":"#AAA","RDK_type":3,"aperture_type":2,"reinsert_type":2,"frame_rate":16.677685950413224,"frame_rate_array":[13,18,16,18,16,17,16,19,17,14,16,16,18,19,17,15,18,18,15,18,15,16,20,13,17,16,15,16,17,16,17,18,17,17,19,15,17,17,19,16,17,18,15,15,15,17,17,17,17,18,17,18,17,16,16,18,17,16,18,17,15,16,16,16,17,16,17,17,17,17,17,16,18,18,18,15,16,18,15,18,16,17,19,16,13,16,16,17,18,16,18,17,15,17,19,14,17,16,15,17,17,16,16,18,17,17,17,17,17,20,14,17,18,17,16,15,14,17,18,18,17],"number_of_frames":121,"aperture_center_x":768,"aperture_center_y":432,"fixation_cross":true,"fixation_cross_width":15,"fixation_cross_height":15,"fixation_cross_color":"#111","fixation_cross_thickness":1,"border":true,"border_thickness":2,"border_color":"transparent","canvas_width":1536,"canvas_height":864,"trial_type":"rdk","trial_index":47,"plugin_version":"2.0.0","time_elapsed":160544,"target_direction":223,"distractor_direction":354},{"rt":2958,"stimulus":"\n        <div class=\"response-container\">\n          <div class=\"response-instruction\">\n            <p>rotate the bar by using the left and right arrow keys.</p>\n            <p>when you are determined, press the Enter key.</p>\n          </div>\n          <div class=\"response-circle\">\n            <div class=\"response-fixation\"></div>\n            <div id=\"bar\" class=\"rotating-bar\"></div>\n          </div>\n        </div>\n      ","response":"Enter","trial_type":"html-keyboard-response","trial_index":48,"plugin_version":"2.1.0","time_elapsed":163503,"random_initial_angle":346,"response_angle_css":241,"response_angle_rdk":209,"angular_error_target":-14,"angular_error_distractor":-145,"target_direction":223,"target_group":"white","reward_points":7},{"rt":null,"stimulus":"\n          <p style=\"color: #00FF00;\">Your reward: 7 points</p>\n        ","response":null,"trial_type":"html-keyboard-response","trial_index":49,"plugin_version":"2.1.0","time_elapsed":165509},{"rt":null,"stimulus":"<div class=\"fixation\" style=\"font-size: 60px;\">+</div>","response":null,"trial_type":"html-keyboard-response","trial_index":50,"plugin_version":"2.1.0","time_elapsed":166527},{"target_group":"white","target_index":0,"condition_label":"practice","rt":-1,"response":"","correct":false,"choices":"ALL_KEYS","correct_choice":["a"],"trial_duration":2000,"flip_timestamps":[],"response_ends_trial":false,"number_of_apertures":2,"number_of_dots":[100,67],"number_of_sets":1,"coherent_direction":[42,303],"coherence":1,"opposite_coherence":0,"dot_radius":2,"dot_side_length":1,"dot_life":-1,"move_distance":1,"aperture_width":300,"aperture_height":300,"dot_color":["white","black"],"dot_shape":"circle","background_color":"#AAA","RDK_type":3,"aperture_type":2,"reinsert_type":2,"frame_rate":16.537190082644628,"frame_rate_array":[3,14,15,17,18,19,15,20,17,13,15,17,16,17,17,17,17,18,17,17,20,14,13,18,16,17,20,15,24,13,13,17,16,15,17,17,17,17,18,17,17,20,14,18,19,13,17,16,15,17,16,18,17,19,16,15,19,13,16,16,18,22,13,20,14,19,12,16,16,17,18,22,13,15,20,15,15,16,16,17,18,15,18,17,21,12,20,17,17,16,17,12,16,16,17,17,17,17,18,15,19,21,12,17,19,13,16,17,16,18,18,16,19,18,12,16,16,17,18,16,16],"number_of_frames":121,"aperture_center_x":768,"aperture_center_y":432,"fixation_cross":true,"fixation_cross_width":15,"fixation_cross_height":15,"fixation_cross_color":"#111","fixation_cross_thickness":1,"border":true,"border_thickness":2,"border_color":"transparent","canvas_width":1536,"canvas_height":864,"trial_type":"rdk","trial_index":51,"plugin_version":"2.0.0","time_elapsed":168546,"target_direction":42,"distractor_direction":303},{"rt":4504,"stimulus":"\n        <div class=\"response-container\">\n          <div class=\"response-instruction\">\n            <p>rotate the bar by using the left and right arrow keys.</p>\n            <p>when you are determined, press the Enter key.</p>\n          </div>\n          <div class=\"response-circle\">\n            <div class=\"response-fixation\"></div>\n            <div id=\"bar\" class=\"rotating-bar\"></div>\n          </div>\n        </div>\n      ","response":"Enter","trial_type":"html-keyboard-response","trial_index":52,"plugin_version":"2.1.0","time_elapsed":173056,"random_initial_angle":148,"response_angle_css":375,"response_angle_rdk":75,"angular_error_target":33,"angular_error_distractor":132,"target_direction":42,"target_group":"white","reward_points":3},{"rt":null,"stimulus":"\n          <p style=\"color: #00FF00;\">Your reward: 3 points</p>\n        ","response":null,"trial_type":"html-keyboard-response","trial_index":53,"plugin_version":"2.1.0","time_elapsed":175069},{"rt":null,"stimulus":"<div class=\"fixation\" style=\"font-size: 60px;\">+</div>","response":null,"trial_type":"html-keyboard-response","trial_index":54,"plugin_version":"2.1.0","time_elapsed":176079},{"target_group":"black","target_index":1,"condition_label":"practice","rt":-1,"response":"","correct":false,"choices":"ALL_KEYS","correct_choice":["a"],"trial_duration":2000,"flip_timestamps":[],"response_ends_trial":false,"number_of_apertures":2,"number_of_dots":[97,100],"number_of_sets":1,"coherent_direction":[204,59],"coherence":1,"opposite_coherence":0,"dot_radius":2,"dot_side_length":1,"dot_life":-1,"move_distance":1,"aperture_width":300,"aperture_height":300,"dot_color":["white","black"],"dot_shape":"circle","background_color":"#AAA","RDK_type":3,"aperture_type":2,"reinsert_type":2,"frame_rate":16.58677685950413,"frame_rate_array":[16,10,14,18,18,15,16,17,16,17,20,15,16,19,17,13,16,16,17,17,17,16,18,17,17,17,20,14,16,17,17,17,16,18,15,15,17,17,16,17,19,18,15,17,17,17,17,15,16,17,17,18,16,16,17,20,13,15,17,16,18,16,17,17,19,16,15,19,15,16,17,16,18,18,16,16,18,15,16,16,17,16,17,16,17,18,17,16,16,17,19,18,15,16,19,14,16,16,16,17,18,17,17,17,16,16,19,14,16,17,16,18,17,18,17,16,16,15,16,17,17],"number_of_frames":121,"aperture_center_x":768,"aperture_center_y":432,"fixation_cross":true,"fixation_cross_width":15,"fixation_cross_height":15,"fixation_cross_color":"#111","fixation_cross_thickness":1,"border":true,"border_thickness":2,"border_color":"transparent","canvas_width":1536,"canvas_height":864,"trial_type":"rdk","trial_index":55,"plugin_version":"2.0.0","time_elapsed":178091,"target_direction":59,"distractor_direction":204},{"rt":4496,"stimulus":"\n        <div class=\"response-container\">\n          <div class=\"response-instruction\">\n            <p>rotate the bar by using the left and right arrow keys.</p>\n            <p>when you are determined, press the Enter key.</p>\n          </div>\n          <div class=\"response-circle\">\n            <div class=\"response-fixation\"></div>\n            <div id=\"bar\" class=\"rotating-bar\"></div>\n          </div>\n        </div>\n      ","response":"Enter","trial_type":"html-keyboard-response","trial_index":56,"plugin_version":"2.1.0","time_elapsed":182587,"random_initial_angle":144,"response_angle_css":381,"response_angle_rdk":69,"angular_error_target":10,"angular_error_distractor":-135,"target_direction":59,"target_group":"black","reward_points":8},{"rt":null,"stimulus":"\n          <p style=\"color: #00FF00;\">Your reward: 8 points</p>\n        ","response":null,"trial_type":"html-keyboard-response","trial_index":57,"plugin_version":"2.1.0","time_elapsed":184603},{"rt":null,"stimulus":"<div class=\"fixation\" style=\"font-size: 60px;\">+</div>","response":null,"trial_type":"html-keyboard-response","trial_index":58,"plugin_version":"2.1.0","time_elapsed":185608},{"target_group":"black","target_index":1,"condition_label":"practice","rt":-1,"response":"","correct":false,"choices":"ALL_KEYS","correct_choice":["a"],"trial_duration":2000,"flip_timestamps":[],"response_ends_trial":false,"number_of_apertures":2,"number_of_dots":[64,100],"number_of_sets":1,"coherent_direction":[98,315],"coherence":1,"opposite_coherence":0,"dot_radius":2,"dot_side_length":1,"dot_life":-1,"move_distance":1,"aperture_width":300,"aperture_height":300,"dot_color":["white","black"],"dot_shape":"circle","background_color":"#AAA","RDK_type":3,"aperture_type":2,"reinsert_type":2,"frame_rate":16.636363636363637,"frame_rate_array":[9,11,16,20,14,19,17,14,18,18,14,16,14,17,17,18,18,16,17,18,17,19,13,21,14,12,17,17,16,17,16,17,18,19,16,17,17,14,15,18,16,20,17,16,18,18,13,16,16,18,18,17,15,18,20,14,26,8,16,16,16,17,19,18,15,18,17,15,16,20,14,16,16,17,16,17,17,17,18,17,18,18,15,16,16,15,17,17,17,17,17,18,16,17,18,15,18,17,20,16,15,19,18,13,18,15,16,18,15,19,18,19,14,17,20,12,17,15,17,19,18],"number_of_frames":121,"aperture_center_x":768,"aperture_center_y":432,"fixation_cross":true,"fixation_cross_width":15,"fixation_cross_height":15,"fixation_cross_color":"#111","fixation_cross_thickness":1,"border":true,"border_thickness":2,"border_color":"transparent","canvas_width":1536,"canvas_height":864,"trial_type":"rdk","trial_index":59,"plugin_version":"2.0.0","time_elapsed":187620,"target_direction":315,"distractor_direction":98},{"rt":2666,"stimulus":"\n        <div class=\"response-container\">\n          <div class=\"response-instruction\">\n            <p>rotate the bar by using the left and right arrow keys.</p>\n            <p>when you are determined, press the Enter key.</p>\n          </div>\n          <div class=\"response-circle\">\n            <div class=\"response-fixation\"></div>\n            <div id=\"bar\" class=\"rotating-bar\"></div>\n          </div>\n        </div>\n      ","response":"Enter","trial_type":"html-keyboard-response","trial_index":60,"plugin_version":"2.1.0","time_elapsed":190289,"random_initial_angle":207,"response_angle_css":152,"response_angle_rdk":298,"angular_error_target":-17,"angular_error_distractor":-160,"target_direction":315,"target_group":"black","reward_points":6},{"rt":null,"stimulus":"\n          <p style=\"color: #00FF00;\">Your reward: 6 points</p>\n        ","response":null,"trial_type":"html-keyboard-response","trial_index":61,"plugin_version":"2.1.0","time_elapsed":192305},{"rt":null,"stimulus":"<div class=\"fixation\" style=\"font-size: 60px;\">+</div>","response":null,"trial_type":"html-keyboard-response","trial_index":62,"plugin_version":"2.1.0","time_elapsed":193319},{"target_group":"white","target_index":0,"condition_label":"practice","rt":-1,"response":"","correct":false,"choices":"ALL_KEYS","correct_choice":["a"],"trial_duration":2000,"flip_timestamps":[],"response_ends_trial":false,"number_of_apertures":2,"number_of_dots":[100,62],"number_of_sets":1,"coherent_direction":[336,171],"coherence":1,"opposite_coherence":0,"dot_radius":2,"dot_side_length":1,"dot_life":-1,"move_distance":1,"aperture_width":300,"aperture_height":300,"dot_color":["white","black"],"dot_shape":"circle","background_color":"#AAA","RDK_type":3,"aperture_type":2,"reinsert_type":2,"frame_rate":16.58677685950413,"frame_rate_array":[15,11,8,15,16,19,19,14,21,17,15,17,17,14,16,17,17,18,20,15,18,17,14,15,15,18,16,16,17,18,19,14,19,19,14,19,17,18,13,15,18,16,18,19,17,15,16,17,14,17,16,17,17,18,21,13,19,17,18,16,16,14,15,16,16,17,16,17,18,16,17,18,20,20,11,15,17,20,13,16,17,17,18,17,17,19,15,15,16,17,16,17,17,17,17,17,18,17,17,17,18,20,15,15,16,16,17,18,15,17,21,15,15,19,14,15,16,16,17,21,14],"number_of_frames":121,"aperture_center_x":768,"aperture_center_y":432,"fixation_cross":true,"fixation_cross_width":15,"fixation_cross_height":15,"fixation_cross_color":"#111","fixation_cross_thickness":1,"border":true,"border_thickness":2,"border_color":"transparent","canvas_width":1536,"canvas_height":864,"trial_type":"rdk","trial_index":63,"plugin_version":"2.0.0","time_elapsed":195329,"target_direction":336,"distractor_direction":171},{"rt":3881,"stimulus":"\n        <div class=\"response-container\">\n          <div class=\"response-instruction\">\n            <p>rotate the bar by using the left and right arrow keys.</p>\n            <p>when you are determined, press the Enter key.</p>\n          </div>\n          <div class=\"response-circle\">\n            <div class=\"response-fixation\"></div>\n            <div id=\"bar\" class=\"rotating-bar\"></div>\n          </div>\n        </div>\n      ","response":"Enter","trial_type":"html-keyboard-response","trial_index":64,"plugin_version":"2.1.0","time_elapsed":199212,"random_initial_angle":279,"response_angle_css":128,"response_angle_rdk":322,"angular_error_target":-14,"angular_error_distractor":151,"target_direction":336,"target_group":"white","reward_points":7},{"rt":null,"stimulus":"\n          <p style=\"color: #00FF00;\">Your reward: 7 points</p>\n        ","response":null,"trial_type":"html-keyboard-response","trial_index":65,"plugin_version":"2.1.0","time_elapsed":201228},{"rt":2320,"stimulus":"\n        <div class=\"instructions-container\">\n          <h2>End of Practice</h2>\n          <p>You have completed the practice trials.</p>\n          <p>Press <strong>Enter</strong> key to begin the main experiment.</p>\n        </div>\n      ","response":"Enter","trial_type":"html-keyboard-response","trial_index":66,"plugin_version":"2.1.0","time_elapsed":203553},{"rt":null,"stimulus":"<div class=\"fixation\" style=\"font-size: 60px;\">+</div>","response":null,"trial_type":"html-keyboard-response","trial_index":67,"plugin_version":"2.1.0","time_elapsed":204563},{"target_group":"white","condition_label":"W_H_vs_B_L_rep3","target_direction":91,"distractor_direction":354,"session_rotation":63,"rt":-1,"response":"","correct":false,"choices":"ALL_KEYS","correct_choice":["a"],"trial_duration":2000,"flip_timestamps":[],"response_ends_trial":false,"number_of_apertures":200,"number_of_dots":[1,1,1,1,1,1,1,1,1,1,1,1,1,1,1,1,1,1,1,1,1,1,1,1,1,1,1,1,1,1,1,1,1,1,1,1,1,1,1,1,1,1,1,1,1,1,1,1,1,1,1,1,1,1,1,1,1,1,1,1,1,1,1,1,1,1,1,1,1,1,1,1,1,1,1,1,1,1,1,1,1,1,1,1,1,1,1,1,1,1,1,1,1,1,1,1,1,1,1,1,1,1,1,1,1,1,1,1,1,1,1,1,1,1,1,1,1,1,1,1,1,1,1,1,1,1,1,1,1,1,1,1,1,1,1,1,1,1,1,1,1,1,1,1,1,1,1,1,1,1,1,1,1,1,1,1,1,1,1,1,1,1,1,1,1,1,1,1,1,1,1,1,1,1,1,1,1,1,1,1,1,1,1,1,1,1,1,1,1,1,1,1,1,1,1,1,1,1,1,1],"number_of_sets":1,"coherent_direction":[354,354,91,354,91,354,91,354,91,354,354,91,354,91,91,91,354,354,354,91,91,91,354,91,91,91,91,91,354,91,91,91,354,354,354,354,91,91,354,354,91,91,354,91,354,91,91,354,354,354,354,354,91,91,354,91,91,91,91,354,91,91,354,354,354,91,354,354,91,354,91,91,354,91,91,91,354,91,354,354,354,91,91,354,354,91,91,91,354,354,91,91,354,354,354,91,91,354,354,91,354,354,91,91,91,354,91,91,91,354,91,91,91,91,91,354,91,91,91,91,354,354,91,91,91,354,91,354,91,354,354,354,354,91,91,91,91,354,354,354,354,354,91,354,91,91,354,91,91,354,91,354,354,354,354,354,91,354,354,91,91,91,91,354,91,354,354,354,91,354,91,354,354,91,354,354,354,91,354,354,354,91,91,354,354,354,91,91,354,354,91,354,91,354,354,354,91,354,354,91],"coherence":1,"opposite_coherence":0,"dot_radius":2,"dot_side_length":1,"dot_life":-1,"move_distance":1,"aperture_width":300,"aperture_height":300,"dot_color":["black","black","white","black","white","black","white","black","white","black","black","white","black","white","white","white","black","black","black","white","white","white","black","white","white","white","white","white","black","white","white","white","black","black","black","black","white","white","black","black","white","white","black","white","black","white","white","black","black","black","black","black","white","white","black","white","white","white","white","black","white","white","black","black","black","white","black","black","white","black","white","white","black","white","white","white","black","white","black","black","black","white","white","black","black","white","white","white","black","black","white","white","black","black","black","white","white","black","black","white","black","black","white","white","white","black","white","white","white","black","white","white","white","white","white","black","white","white","white","white","black","black","white","white","white","black","white","black","white","black","black","black","black","white","white","white","white","black","black","black","black","black","white","black","white","white","black","white","white","black","white","black","black","black","black","black","white","black","black","white","white","white","white","black","white","black","black","black","white","black","white","black","black","white","black","black","black","white","black","black","black","white","white","black","black","black","white","white","black","black","white","black","white","black","black","black","white","black","black","white"],"dot_shape":"circle","background_color":"#AAA","RDK_type":3,"aperture_type":2,"reinsert_type":2,"frame_rate":16.68595041322314,"frame_rate_array":[10,13,17,16,18,16,17,18,15,17,17,17,17,17,16,17,18,15,17,17,17,17,16,17,17,17,18,17,16,17,17,17,16,17,17,16,17,16,17,16,17,16,17,17,16,17,17,16,17,17,16,17,17,16,17,17,16,16,18,16,17,17,16,17,18,16,17,18,16,17,16,18,17,16,17,17,17,17,17,17,16,16,18,16,16,18,15,17,17,17,16,17,16,17,17,17,17,17,17,17,17,16,17,17,18,16,17,17,16,18,16,17,18,16,17,17,16,17,18,16,17],"number_of_frames":121,"aperture_center_x":768,"aperture_center_y":432,"fixation_cross":true,"fixation_cross_width":15,"fixation_cross_height":15,"fixation_cross_color":"#111","fixation_cross_thickness":1,"border":true,"border_thickness":2,"border_color":"transparent","canvas_width":1536,"canvas_height":864,"trial_type":"rdk","trial_index":68,"plugin_version":"2.0.0","time_elapsed":206584},{"rt":3115,"stimulus":"\n        <div class=\"response-container\">\n          <div class=\"response-instruction\">\n            <p>rotate the bar by using the left and right arrow keys.</p>\n            <p>when you are determined, press the Enter key.</p>\n          </div>\n          <div class=\"response-circle\">\n            <div class=\"response-fixation\"></div>\n            <div id=\"bar\" class=\"rotating-bar\"></div>\n          </div>\n        </div>\n      ","response":"Enter","trial_type":"html-keyboard-response","trial_index":69,"plugin_version":"2.1.0","time_elapsed":209700,"random_initial_angle":123,"response_angle_css":-42,"response_angle_rdk":132,"angular_error_target":41,"angular_error_distractor":138,"target_direction":91,"target_group":"white","reward_points":1},{"rt":null,"stimulus":"\n          <p style=\"color: #FF3333;\">Your reward: 1 points</p>\n        ","response":null,"trial_type":"html-keyboard-response","trial_index":70,"plugin_version":"2.1.0","time_elapsed":211712},{"rt":null,"stimulus":"<div class=\"fixation\" style=\"font-size: 60px;\">+</div>","response":null,"trial_type":"html-keyboard-response","trial_index":71,"plugin_version":"2.1.0","time_elapsed":212729},{"target_group":"black","condition_label":"B_H_vs_W_L_rep20","target_direction":161,"distractor_direction":284,"session_rotation":63,"rt":-1,"response":"","correct":false,"choices":"ALL_KEYS","correct_choice":["a"],"trial_duration":2000,"flip_timestamps":[],"response_ends_trial":false,"number_of_apertures":200,"number_of_dots":[1,1,1,1,1,1,1,1,1,1,1,1,1,1,1,1,1,1,1,1,1,1,1,1,1,1,1,1,1,1,1,1,1,1,1,1,1,1,1,1,1,1,1,1,1,1,1,1,1,1,1,1,1,1,1,1,1,1,1,1,1,1,1,1,1,1,1,1,1,1,1,1,1,1,1,1,1,1,1,1,1,1,1,1,1,1,1,1,1,1,1,1,1,1,1,1,1,1,1,1,1,1,1,1,1,1,1,1,1,1,1,1,1,1,1,1,1,1,1,1,1,1,1,1,1,1,1,1,1,1,1,1,1,1,1,1,1,1,1,1,1,1,1,1,1,1,1,1,1,1,1,1,1,1,1,1,1,1,1,1,1,1,1,1,1,1,1,1,1,1,1,1,1,1,1,1,1,1,1,1,1,1,1,1,1,1,1,1,1,1,1,1,1,1,1,1,1,1,1,1],"number_of_sets":1,"coherent_direction":[284,161,284,161,161,284,284,284,284,284,161,284,161,284,161,284,284,284,161,161,284,284,284,284,161,161,284,161,284,284,284,284,284,284,284,284,161,161,284,284,284,161,161,161,161,161,284,284,161,161,161,284,161,161,284,161,284,284,284,284,284,284,161,284,284,284,284,284,161,161,284,161,161,161,284,161,161,161,161,284,161,161,161,161,284,284,284,161,161,284,161,284,284,284,284,284,161,161,284,284,284,161,161,284,284,161,284,161,161,284,284,161,161,284,284,161,284,161,284,284,284,284,284,284,161,161,284,161,161,284,161,161,161,284,284,161,161,284,161,161,161,284,284,161,161,161,284,284,161,284,161,161,161,284,284,284,161,284,284,161,161,161,284,284,161,161,161,161,161,284,284,161,161,161,161,161,284,161,284,284,161,161,161,284,284,284,161,161,284,161,161,284,161,161,161,284,161,161,161,161],"coherence":1,"opposite_coherence":0,"dot_radius":2,"dot_side_length":1,"dot_life":-1,"move_distance":1,"aperture_width":300,"aperture_height":300,"dot_color":["white","black","white","black","black","white","white","white","white","white","black","white","black","white","black","white","white","white","black","black","white","white","white","white","black","black","white","black","white","white","white","white","white","white","white","white","black","black","white","white","white","black","black","black","black","black","white","white","black","black","black","white","black","black","white","black","white","white","white","white","white","white","black","white","white","white","white","white","black","black","white","black","black","black","white","black","black","black","black","white","black","black","black","black","white","white","white","black","black","white","black","white","white","white","white","white","black","black","white","white","white","black","black","white","white","black","white","black","black","white","white","black","black","white","white","black","white","black","white","white","white","white","white","white","black","black","white","black","black","white","black","black","black","white","white","black","black","white","black","black","black","white","white","black","black","black","white","white","black","white","black","black","black","white","white","white","black","white","white","black","black","black","white","white","black","black","black","black","black","white","white","black","black","black","black","black","white","black","white","white","black","black","black","white","white","white","black","black","white","black","black","white","black","black","black","white","black","black","black","black"],"dot_shape":"circle","background_color":"#AAA","RDK_type":3,"aperture_type":2,"reinsert_type":2,"frame_rate":16.591666666666665,"frame_rate_array":[8,12,13,17,18,16,17,16,16,17,17,16,17,17,16,17,17,16,17,17,16,17,17,16,17,17,20,13,17,15,17,17,16,17,17,16,17,17,16,17,17,16,17,18,15,17,17,16,17,17,17,17,17,16,16,16,17,18,17,15,17,16,17,17,17,17,17,17,17,17,17,17,17,16,17,17,18,15,17,18,15,17,18,15,17,17,17,17,17,17,17,18,18,15,18,15,16,16,17,17,17,17,17,16,17,17,17,17,16,17,17,17,17,17,17,16,17,17,17,17],"number_of_frames":120,"aperture_center_x":768,"aperture_center_y":432,"fixation_cross":true,"fixation_cross_width":15,"fixation_cross_height":15,"fixation_cross_color":"#111","fixation_cross_thickness":1,"border":true,"border_thickness":2,"border_color":"transparent","canvas_width":1536,"canvas_height":864,"trial_type":"rdk","trial_index":72,"plugin_version":"2.0.0","time_elapsed":214737},{"rt":5344,"stimulus":"\n        <div class=\"response-container\">\n          <div class=\"response-instruction\">\n            <p>rotate the bar by using the left and right arrow keys.</p>\n            <p>when you are determined, press the Enter key.</p>\n          </div>\n          <div class=\"response-circle\">\n            <div class=\"response-fixation\"></div>\n            <div id=\"bar\" class=\"rotating-bar\"></div>\n          </div>\n        </div>\n      ","response":"Enter","trial_type":"html-keyboard-response","trial_index":73,"plugin_version":"2.1.0","time_elapsed":220083,"random_initial_angle":193,"response_angle_css":-48,"response_angle_rdk":138,"angular_error_target":-23,"angular_error_distractor":-146,"target_direction":161,"target_group":"black","reward_points":5},{"rt":null,"stimulus":"\n          <p style=\"color: #00FF00;\">Your reward: 5 points</p>\n        ","response":null,"trial_type":"html-keyboard-response","trial_index":74,"plugin_version":"2.1.0","time_elapsed":222089},{"rt":null,"stimulus":"<div class=\"fixation\" style=\"font-size: 60px;\">+</div>","response":null,"trial_type":"html-keyboard-response","trial_index":75,"plugin_version":"2.1.0","time_elapsed":223102},{"target_group":"black","condition_label":"B_H_vs_W_L_rep18","target_direction":186,"distractor_direction":281,"session_rotation":63,"rt":-1,"response":"","correct":false,"choices":"ALL_KEYS","correct_choice":["a"],"trial_duration":2000,"flip_timestamps":[],"response_ends_trial":false,"number_of_apertures":200,"number_of_dots":[1,1,1,1,1,1,1,1,1,1,1,1,1,1,1,1,1,1,1,1,1,1,1,1,1,1,1,1,1,1,1,1,1,1,1,1,1,1,1,1,1,1,1,1,1,1,1,1,1,1,1,1,1,1,1,1,1,1,1,1,1,1,1,1,1,1,1,1,1,1,1,1,1,1,1,1,1,1,1,1,1,1,1,1,1,1,1,1,1,1,1,1,1,1,1,1,1,1,1,1,1,1,1,1,1,1,1,1,1,1,1,1,1,1,1,1,1,1,1,1,1,1,1,1,1,1,1,1,1,1,1,1,1,1,1,1,1,1,1,1,1,1,1,1,1,1,1,1,1,1,1,1,1,1,1,1,1,1,1,1,1,1,1,1,1,1,1,1,1,1,1,1,1,1,1,1,1,1,1,1,1,1,1,1,1,1,1,1,1,1,1,1,1,1,1,1,1,1,1,1],"number_of_sets":1,"coherent_direction":[281,186,186,281,281,281,281,186,281,186,186,186,281,281,186,281,186,186,281,186,281,186,281,281,281,186,186,281,186,281,281,186,281,186,186,281,186,281,186,186,186,281,186,186,281,281,186,186,186,186,186,281,186,281,281,281,186,186,186,186,281,186,281,281,186,281,281,186,281,281,281,186,186,186,186,186,281,281,186,186,281,186,281,281,281,281,186,186,281,281,281,186,281,281,186,281,281,281,281,186,281,186,186,186,186,186,281,281,186,281,281,186,186,186,281,186,186,281,186,186,281,281,186,186,281,281,281,281,186,281,186,281,186,186,281,186,186,186,281,281,281,281,281,281,186,186,281,281,281,281,186,186,186,186,281,281,186,281,281,281,186,281,186,281,186,186,186,186,186,186,281,281,281,186,186,281,281,186,281,281,186,186,186,186,186,281,281,186,281,281,186,281,281,281,186,186,281,281,186,186],"coherence":1,"opposite_coherence":0,"dot_radius":2,"dot_side_length":1,"dot_life":-1,"move_distance":1,"aperture_width":300,"aperture_height":300,"dot_color":["white","black","black","white","white","white","white","black","white","black","black","black","white","white","black","white","black","black","white","black","white","black","white","white","white","black","black","white","black","white","white","black","white","black","black","white","black","white","black","black","black","white","black","black","white","white","black","black","black","black","black","white","black","white","white","white","black","black","black","black","white","black","white","white","black","white","white","black","white","white","white","black","black","black","black","black","white","white","black","black","white","black","white","white","white","white","black","black","white","white","white","black","white","white","black","white","white","white","white","black","white","black","black","black","black","black","white","white","black","white","white","black","black","black","white","black","black","white","black","black","white","white","black","black","white","white","white","white","black","white","black","white","black","black","white","black","black","black","white","white","white","white","white","white","black","black","white","white","white","white","black","black","black","black","white","white","black","white","white","white","black","white","black","white","black","black","black","black","black","black","white","white","white","black","black","white","white","black","white","white","black","black","black","black","black","white","white","black","white","white","black","white","white","white","black","black","white","white","black","black"],"dot_shape":"circle","background_color":"#AAA","RDK_type":3,"aperture_type":2,"reinsert_type":2,"frame_rate":16.6,"frame_rate_array":[10,10,14,17,17,18,16,17,18,15,17,17,16,17,17,16,17,17,16,17,17,17,16,17,16,17,21,14,15,18,16,17,17,16,17,17,16,17,17,16,18,17,17,19,18,14,16,17,16,17,17,16,19,15,16,16,18,16,17,16,16,17,17,16,17,17,16,17,17,16,17,22,12,17,20,16,15,16,16,17,18,16,17,17,18,18,18,22,8,19,14,16,17,16,16,17,18,16,17,17,16,19,17,15,17,16,17,17,16,16,17,16,17,19,15,17,20,13,18,17],"number_of_frames":120,"aperture_center_x":768,"aperture_center_y":432,"fixation_cross":true,"fixation_cross_width":15,"fixation_cross_height":15,"fixation_cross_color":"#111","fixation_cross_thickness":1,"border":true,"border_thickness":2,"border_color":"transparent","canvas_width":1536,"canvas_height":864,"trial_type":"rdk","trial_index":76,"plugin_version":"2.0.0","time_elapsed":225111},{"rt":1616,"stimulus":"\n        <div class=\"response-container\">\n          <div class=\"response-instruction\">\n            <p>rotate the bar by using the left and right arrow keys.</p>\n            <p>when you are determined, press the Enter key.</p>\n          </div>\n          <div class=\"response-circle\">\n            <div class=\"response-fixation\"></div>\n            <div id=\"bar\" class=\"rotating-bar\"></div>\n          </div>\n        </div>\n      ","response":"Enter","trial_type":"html-keyboard-response","trial_index":77,"plugin_version":"2.1.0","time_elapsed":226729,"random_initial_angle":338,"response_angle_css":306,"response_angle_rdk":144,"angular_error_target":-42,"angular_error_distractor":-137,"target_direction":186,"target_group":"black","reward_points":1},{"rt":null,"stimulus":"\n          <p style=\"color: #FF3333;\">Your reward: 1 points</p>\n        ","response":null,"trial_type":"html-keyboard-response","trial_index":78,"plugin_version":"2.1.0","time_elapsed":228738},{"rt":null,"stimulus":"<div class=\"fixation\" style=\"font-size: 60px;\">+</div>","response":null,"trial_type":"html-keyboard-response","trial_index":79,"plugin_version":"2.1.0","time_elapsed":229742},{"target_group":"black","condition_label":"B_H_vs_W_L_rep7","target_direction":160,"distractor_direction":264,"session_rotation":63,"rt":-1,"response":"","correct":false,"choices":"ALL_KEYS","correct_choice":["a"],"trial_duration":2000,"flip_timestamps":[],"response_ends_trial":false,"number_of_apertures":200,"number_of_dots":[1,1,1,1,1,1,1,1,1,1,1,1,1,1,1,1,1,1,1,1,1,1,1,1,1,1,1,1,1,1,1,1,1,1,1,1,1,1,1,1,1,1,1,1,1,1,1,1,1,1,1,1,1,1,1,1,1,1,1,1,1,1,1,1,1,1,1,1,1,1,1,1,1,1,1,1,1,1,1,1,1,1,1,1,1,1,1,1,1,1,1,1,1,1,1,1,1,1,1,1,1,1,1,1,1,1,1,1,1,1,1,1,1,1,1,1,1,1,1,1,1,1,1,1,1,1,1,1,1,1,1,1,1,1,1,1,1,1,1,1,1,1,1,1,1,1,1,1,1,1,1,1,1,1,1,1,1,1,1,1,1,1,1,1,1,1,1,1,1,1,1,1,1,1,1,1,1,1,1,1,1,1,1,1,1,1,1,1,1,1,1,1,1,1,1,1,1,1,1,1],"number_of_sets":1,"coherent_direction":[160,264,264,264,160,160,160,264,264,264,160,264,160,160,264,264,160,264,160,160,264,264,264,160,160,264,160,264,160,264,160,160,160,160,264,264,160,264,264,264,160,264,264,160,160,160,160,264,160,264,160,264,160,160,264,160,160,160,264,264,160,160,264,264,160,160,160,264,160,264,264,264,160,160,160,264,160,160,264,160,264,160,160,264,160,264,160,264,160,160,264,160,264,264,160,264,264,160,264,160,264,264,264,160,160,264,160,160,264,160,160,264,160,160,160,160,264,160,160,264,160,264,264,160,264,160,160,160,160,160,264,160,160,160,160,160,264,264,264,264,264,264,160,160,160,160,264,264,264,160,160,160,160,264,264,264,264,264,264,264,264,160,160,264,264,160,264,264,264,264,160,160,264,264,160,160,264,264,264,160,264,264,264,264,160,264,160,264,160,264,264,264,160,264,160,264,264,160,160,264],"coherence":1,"opposite_coherence":0,"dot_radius":2,"dot_side_length":1,"dot_life":-1,"move_distance":1,"aperture_width":300,"aperture_height":300,"dot_color":["black","white","white","white","black","black","black","white","white","white","black","white","black","black","white","white","black","white","black","black","white","white","white","black","black","white","black","white","black","white","black","black","black","black","white","white","black","white","white","white","black","white","white","black","black","black","black","white","black","white","black","white","black","black","white","black","black","black","white","white","black","black","white","white","black","black","black","white","black","white","white","white","black","black","black","white","black","black","white","black","white","black","black","white","black","white","black","white","black","black","white","black","white","white","black","white","white","black","white","black","white","white","white","black","black","white","black","black","white","black","black","white","black","black","black","black","white","black","black","white","black","white","white","black","white","black","black","black","black","black","white","black","black","black","black","black","white","white","white","white","white","white","black","black","black","black","white","white","white","black","black","black","black","white","white","white","white","white","white","white","white","black","black","white","white","black","white","white","white","white","black","black","white","white","black","black","white","white","white","black","white","white","white","white","black","white","black","white","black","white","white","white","black","white","black","white","white","black","black","white"],"dot_shape":"circle","background_color":"#AAA","RDK_type":3,"aperture_type":2,"reinsert_type":2,"frame_rate":16.619834710743802,"frame_rate_array":[9,16,18,16,17,16,17,16,17,17,16,17,18,16,17,18,15,18,15,17,17,17,16,16,17,17,16,17,17,16,19,15,17,17,17,16,18,16,17,17,16,16,17,16,17,17,16,17,17,17,16,18,16,17,17,16,17,18,16,16,17,16,17,17,16,16,19,15,18,16,16,17,18,15,17,18,16,16,17,17,17,17,17,17,17,15,16,16,17,17,16,17,17,17,18,16,17,16,17,17,15,17,17,15,17,17,16,18,17,15,17,16,18,16,18,16,17,18,15,17,17],"number_of_frames":121,"aperture_center_x":768,"aperture_center_y":432,"fixation_cross":true,"fixation_cross_width":15,"fixation_cross_height":15,"fixation_cross_color":"#111","fixation_cross_thickness":1,"border":true,"border_thickness":2,"border_color":"transparent","canvas_width":1536,"canvas_height":864,"trial_type":"rdk","trial_index":80,"plugin_version":"2.0.0","time_elapsed":231760},{"rt":1912,"stimulus":"\n        <div class=\"response-container\">\n          <div class=\"response-instruction\">\n            <p>rotate the bar by using the left and right arrow keys.</p>\n            <p>when you are determined, press the Enter key.</p>\n          </div>\n          <div class=\"response-circle\">\n            <div class=\"response-fixation\"></div>\n            <div id=\"bar\" class=\"rotating-bar\"></div>\n          </div>\n        </div>\n      ","response":"Enter","trial_type":"html-keyboard-response","trial_index":81,"plugin_version":"2.1.0","time_elapsed":233674,"random_initial_angle":341,"response_angle_css":299,"response_angle_rdk":151,"angular_error_target":-9,"angular_error_distractor":-113,"target_direction":160,"target_group":"black","reward_points":8},{"rt":null,"stimulus":"\n          <p style=\"color: #00FF00;\">Your reward: 8 points</p>\n        ","response":null,"trial_type":"html-keyboard-response","trial_index":82,"plugin_version":"2.1.0","time_elapsed":235684},{"rt":null,"stimulus":"<div class=\"fixation\" style=\"font-size: 60px;\">+</div>","response":null,"trial_type":"html-keyboard-response","trial_index":83,"plugin_version":"2.1.0","time_elapsed":236698},{"target_group":"black","condition_label":"B_H_vs_W_L_rep17","target_direction":153,"distractor_direction":247,"session_rotation":63,"rt":-1,"response":"","correct":false,"choices":"ALL_KEYS","correct_choice":["a"],"trial_duration":2000,"flip_timestamps":[],"response_ends_trial":false,"number_of_apertures":200,"number_of_dots":[1,1,1,1,1,1,1,1,1,1,1,1,1,1,1,1,1,1,1,1,1,1,1,1,1,1,1,1,1,1,1,1,1,1,1,1,1,1,1,1,1,1,1,1,1,1,1,1,1,1,1,1,1,1,1,1,1,1,1,1,1,1,1,1,1,1,1,1,1,1,1,1,1,1,1,1,1,1,1,1,1,1,1,1,1,1,1,1,1,1,1,1,1,1,1,1,1,1,1,1,1,1,1,1,1,1,1,1,1,1,1,1,1,1,1,1,1,1,1,1,1,1,1,1,1,1,1,1,1,1,1,1,1,1,1,1,1,1,1,1,1,1,1,1,1,1,1,1,1,1,1,1,1,1,1,1,1,1,1,1,1,1,1,1,1,1,1,1,1,1,1,1,1,1,1,1,1,1,1,1,1,1,1,1,1,1,1,1,1,1,1,1,1,1,1,1,1,1,1,1],"number_of_sets":1,"coherent_direction":[153,247,153,247,153,153,247,153,247,153,153,153,153,153,247,247,153,247,247,153,247,247,247,153,153,153,247,247,153,247,153,153,247,247,247,153,153,247,153,247,153,247,153,153,247,153,247,247,153,153,153,247,153,153,247,153,247,247,153,247,153,153,153,247,247,153,153,247,247,153,247,247,153,153,153,247,153,247,247,247,153,153,247,247,247,247,153,153,153,247,153,247,153,247,153,153,247,247,247,153,153,153,247,247,247,247,153,153,247,153,247,153,247,247,153,153,153,153,247,247,247,153,247,247,247,247,247,153,247,153,247,153,153,247,153,153,153,153,153,247,153,153,247,247,153,153,247,153,247,247,153,247,153,153,153,247,247,247,153,247,247,247,153,247,153,153,153,153,153,153,247,247,247,153,247,153,247,247,247,247,153,153,247,247,153,153,247,247,153,247,153,247,247,247,153,247,153,153,247,247],"coherence":1,"opposite_coherence":0,"dot_radius":2,"dot_side_length":1,"dot_life":-1,"move_distance":1,"aperture_width":300,"aperture_height":300,"dot_color":["black","white","black","white","black","black","white","black","white","black","black","black","black","black","white","white","black","white","white","black","white","white","white","black","black","black","white","white","black","white","black","black","white","white","white","black","black","white","black","white","black","white","black","black","white","black","white","white","black","black","black","white","black","black","white","black","white","white","black","white","black","black","black","white","white","black","black","white","white","black","white","white","black","black","black","white","black","white","white","white","black","black","white","white","white","white","black","black","black","white","black","white","black","white","black","black","white","white","white","black","black","black","white","white","white","white","black","black","white","black","white","black","white","white","black","black","black","black","white","white","white","black","white","white","white","white","white","black","white","black","white","black","black","white","black","black","black","black","black","white","black","black","white","white","black","black","white","black","white","white","black","white","black","black","black","white","white","white","black","white","white","white","black","white","black","black","black","black","black","black","white","white","white","black","white","black","white","white","white","white","black","black","white","white","black","black","white","white","black","white","black","white","white","white","black","white","black","black","white","white"],"dot_shape":"circle","background_color":"#AAA","RDK_type":3,"aperture_type":2,"reinsert_type":2,"frame_rate":16.669421487603305,"frame_rate_array":[16,14,14,17,18,15,18,15,17,20,14,17,17,17,17,18,18,17,17,14,17,17,16,17,17,17,17,18,16,17,17,16,16,17,17,17,19,18,14,17,17,14,16,16,17,17,16,17,17,17,17,20,12,17,18,15,17,17,16,17,17,16,16,17,16,17,18,17,16,18,16,17,17,17,16,18,16,17,16,16,17,17,16,17,17,16,17,17,16,17,17,16,17,17,16,17,17,17,16,18,17,16,18,21,11,17,16,17,17,16,18,20,13,18,17,16,16,18,16,15,18],"number_of_frames":121,"aperture_center_x":768,"aperture_center_y":432,"fixation_cross":true,"fixation_cross_width":15,"fixation_cross_height":15,"fixation_cross_color":"#111","fixation_cross_thickness":1,"border":true,"border_thickness":2,"border_color":"transparent","canvas_width":1536,"canvas_height":864,"trial_type":"rdk","trial_index":84,"plugin_version":"2.0.0","time_elapsed":238719},{"rt":4268,"stimulus":"\n        <div class=\"response-container\">\n          <div class=\"response-instruction\">\n            <p>rotate the bar by using the left and right arrow keys.</p>\n            <p>when you are determined, press the Enter key.</p>\n          </div>\n          <div class=\"response-circle\">\n            <div class=\"response-fixation\"></div>\n            <div id=\"bar\" class=\"rotating-bar\"></div>\n          </div>\n        </div>\n      ","response":"Enter","trial_type":"html-keyboard-response","trial_index":85,"plugin_version":"2.1.0","time_elapsed":242988,"random_initial_angle":218,"response_angle_css":316,"response_angle_rdk":134,"angular_error_target":-19,"angular_error_distractor":-113,"target_direction":153,"target_group":"black","reward_points":6},{"rt":null,"stimulus":"\n          <p style=\"color: #00FF00;\">Your reward: 6 points</p>\n        ","response":null,"trial_type":"html-keyboard-response","trial_index":86,"plugin_version":"2.1.0","time_elapsed":244993},{"rt":null,"stimulus":"<div class=\"fixation\" style=\"font-size: 60px;\">+</div>","response":null,"trial_type":"html-keyboard-response","trial_index":87,"plugin_version":"2.1.0","time_elapsed":246012},{"target_group":"white","condition_label":"W_H_vs_B_L_rep10","target_direction":79,"distractor_direction":348,"session_rotation":63,"rt":-1,"response":"","correct":false,"choices":"ALL_KEYS","correct_choice":["a"],"trial_duration":2000,"flip_timestamps":[],"response_ends_trial":false,"number_of_apertures":200,"number_of_dots":[1,1,1,1,1,1,1,1,1,1,1,1,1,1,1,1,1,1,1,1,1,1,1,1,1,1,1,1,1,1,1,1,1,1,1,1,1,1,1,1,1,1,1,1,1,1,1,1,1,1,1,1,1,1,1,1,1,1,1,1,1,1,1,1,1,1,1,1,1,1,1,1,1,1,1,1,1,1,1,1,1,1,1,1,1,1,1,1,1,1,1,1,1,1,1,1,1,1,1,1,1,1,1,1,1,1,1,1,1,1,1,1,1,1,1,1,1,1,1,1,1,1,1,1,1,1,1,1,1,1,1,1,1,1,1,1,1,1,1,1,1,1,1,1,1,1,1,1,1,1,1,1,1,1,1,1,1,1,1,1,1,1,1,1,1,1,1,1,1,1,1,1,1,1,1,1,1,1,1,1,1,1,1,1,1,1,1,1,1,1,1,1,1,1,1,1,1,1,1,1],"number_of_sets":1,"coherent_direction":[348,79,79,348,348,348,348,348,348,79,348,79,79,79,79,79,79,348,348,348,79,348,79,348,79,79,79,348,79,348,79,79,79,348,348,348,348,348,79,79,348,348,79,79,79,348,348,79,348,79,348,79,348,348,348,79,348,348,348,348,348,348,79,348,79,348,348,79,348,79,348,79,79,79,348,348,348,79,79,79,79,348,79,79,79,348,79,79,79,79,79,348,79,348,348,348,79,348,348,79,79,348,79,348,79,348,348,348,348,348,348,348,348,348,79,348,348,348,348,79,79,79,79,79,79,348,79,79,79,79,79,79,79,348,79,79,79,348,79,79,348,79,348,79,79,348,348,79,348,79,348,348,348,348,79,79,348,79,79,348,79,348,348,79,79,348,79,79,348,348,79,79,348,79,79,79,348,79,348,348,348,348,79,348,79,79,348,348,348,348,79,348,79,348,348,79,79,79,348,79],"coherence":1,"opposite_coherence":0,"dot_radius":2,"dot_side_length":1,"dot_life":-1,"move_distance":1,"aperture_width":300,"aperture_height":300,"dot_color":["black","white","white","black","black","black","black","black","black","white","black","white","white","white","white","white","white","black","black","black","white","black","white","black","white","white","white","black","white","black","white","white","white","black","black","black","black","black","white","white","black","black","white","white","white","black","black","white","black","white","black","white","black","black","black","white","black","black","black","black","black","black","white","black","white","black","black","white","black","white","black","white","white","white","black","black","black","white","white","white","white","black","white","white","white","black","white","white","white","white","white","black","white","black","black","black","white","black","black","white","white","black","white","black","white","black","black","black","black","black","black","black","black","black","white","black","black","black","black","white","white","white","white","white","white","black","white","white","white","white","white","white","white","black","white","white","white","black","white","white","black","white","black","white","white","black","black","white","black","white","black","black","black","black","white","white","black","white","white","black","white","black","black","white","white","black","white","white","black","black","white","white","black","white","white","white","black","white","black","black","black","black","white","black","white","white","black","black","black","black","white","black","white","black","black","white","white","white","black","white"],"dot_shape":"circle","background_color":"#AAA","RDK_type":3,"aperture_type":2,"reinsert_type":2,"frame_rate":16.545454545454547,"frame_rate_array":[18,5,12,18,15,16,18,18,15,15,16,17,17,16,17,18,16,17,18,18,16,18,15,17,15,16,17,17,16,18,19,16,23,11,14,16,20,14,17,17,17,17,16,17,17,16,16,17,17,16,17,17,17,16,18,16,18,18,19,15,13,19,14,16,17,17,17,16,17,17,17,17,17,16,17,16,17,17,16,18,16,18,18,16,18,15,17,18,14,16,16,17,17,16,17,17,17,16,17,16,17,17,16,17,17,16,17,17,16,16,17,16,17,17,16,17,17,16,18,17,16],"number_of_frames":121,"aperture_center_x":768,"aperture_center_y":432,"fixation_cross":true,"fixation_cross_width":15,"fixation_cross_height":15,"fixation_cross_color":"#111","fixation_cross_thickness":1,"border":true,"border_thickness":2,"border_color":"transparent","canvas_width":1536,"canvas_height":864,"trial_type":"rdk","trial_index":88,"plugin_version":"2.0.0","time_elapsed":248026},{"rt":2920,"stimulus":"\n        <div class=\"response-container\">\n          <div class=\"response-instruction\">\n            <p>rotate the bar by using the left and right arrow keys.</p>\n            <p>when you are determined, press the Enter key.</p>\n          </div>\n          <div class=\"response-circle\">\n            <div class=\"response-fixation\"></div>\n            <div id=\"bar\" class=\"rotating-bar\"></div>\n          </div>\n        </div>\n      ","response":"Enter","trial_type":"html-keyboard-response","trial_index":89,"plugin_version":"2.1.0","time_elapsed":250949,"random_initial_angle":66,"response_angle_css":-42,"response_angle_rdk":132,"angular_error_target":53,"angular_error_distractor":144,"target_direction":79,"target_group":"white","reward_points":0},{"rt":null,"stimulus":"\n          <p style=\"color: #FF3333;\">Your reward: 0 points</p>\n        ","response":null,"trial_type":"html-keyboard-response","trial_index":90,"plugin_version":"2.1.0","time_elapsed":252960},{"rt":null,"stimulus":"<div class=\"fixation\" style=\"font-size: 60px;\">+</div>","response":null,"trial_type":"html-keyboard-response","trial_index":91,"plugin_version":"2.1.0","time_elapsed":253977},{"target_group":"white","condition_label":"W_H_vs_B_L_rep15","target_direction":76,"distractor_direction":335,"session_rotation":63,"rt":-1,"response":"","correct":false,"choices":"ALL_KEYS","correct_choice":["a"],"trial_duration":2000,"flip_timestamps":[],"response_ends_trial":false,"number_of_apertures":200,"number_of_dots":[1,1,1,1,1,1,1,1,1,1,1,1,1,1,1,1,1,1,1,1,1,1,1,1,1,1,1,1,1,1,1,1,1,1,1,1,1,1,1,1,1,1,1,1,1,1,1,1,1,1,1,1,1,1,1,1,1,1,1,1,1,1,1,1,1,1,1,1,1,1,1,1,1,1,1,1,1,1,1,1,1,1,1,1,1,1,1,1,1,1,1,1,1,1,1,1,1,1,1,1,1,1,1,1,1,1,1,1,1,1,1,1,1,1,1,1,1,1,1,1,1,1,1,1,1,1,1,1,1,1,1,1,1,1,1,1,1,1,1,1,1,1,1,1,1,1,1,1,1,1,1,1,1,1,1,1,1,1,1,1,1,1,1,1,1,1,1,1,1,1,1,1,1,1,1,1,1,1,1,1,1,1,1,1,1,1,1,1,1,1,1,1,1,1,1,1,1,1,1,1],"number_of_sets":1,"coherent_direction":[335,76,335,76,335,76,335,335,335,335,76,335,76,335,335,335,335,76,76,76,335,76,335,76,76,76,335,335,76,76,335,335,76,335,335,335,76,76,76,76,335,76,335,76,76,335,335,335,76,76,335,335,76,335,76,76,335,76,335,335,76,335,76,335,76,76,335,335,76,76,335,335,335,76,76,76,76,76,76,335,335,335,335,76,76,335,76,335,76,76,335,76,335,76,335,76,76,335,335,76,335,76,76,76,76,335,76,335,335,76,76,76,76,76,76,335,76,76,335,76,335,335,335,76,335,76,76,335,76,76,76,335,335,335,76,335,335,335,76,335,76,335,335,76,76,76,76,335,335,76,335,76,335,76,335,76,335,335,335,335,335,335,76,76,76,335,335,335,335,76,76,76,335,335,335,335,76,76,335,76,76,76,335,335,76,76,76,335,76,335,335,335,76,335,335,335,76,76,335,76],"coherence":1,"opposite_coherence":0,"dot_radius":2,"dot_side_length":1,"dot_life":-1,"move_distance":1,"aperture_width":300,"aperture_height":300,"dot_color":["black","white","black","white","black","white","black","black","black","black","white","black","white","black","black","black","black","white","white","white","black","white","black","white","white","white","black","black","white","white","black","black","white","black","black","black","white","white","white","white","black","white","black","white","white","black","black","black","white","white","black","black","white","black","white","white","black","white","black","black","white","black","white","black","white","white","black","black","white","white","black","black","black","white","white","white","white","white","white","black","black","black","black","white","white","black","white","black","white","white","black","white","black","white","black","white","white","black","black","white","black","white","white","white","white","black","white","black","black","white","white","white","white","white","white","black","white","white","black","white","black","black","black","white","black","white","white","black","white","white","white","black","black","black","white","black","black","black","white","black","white","black","black","white","white","white","white","black","black","white","black","white","black","white","black","white","black","black","black","black","black","black","white","white","white","black","black","black","black","white","white","white","black","black","black","black","white","white","black","white","white","white","black","black","white","white","white","black","white","black","black","black","white","black","black","black","white","white","black","white"],"dot_shape":"circle","background_color":"#AAA","RDK_type":3,"aperture_type":2,"reinsert_type":2,"frame_rate":16.666666666666668,"frame_rate_array":[8,12,12,17,16,17,19,14,16,18,17,18,17,14,15,17,17,17,17,16,17,17,17,17,16,18,16,17,16,17,18,16,17,19,15,25,7,18,18,18,13,18,15,16,18,16,17,18,19,13,17,17,17,18,18,15,18,14,16,17,17,18,20,12,17,17,16,17,17,16,17,17,17,16,17,18,15,17,16,17,21,13,16,17,16,17,17,16,17,18,15,17,17,16,17,22,11,17,17,16,17,18,20,12,18,23,10,18,15,15,23,36,24,2,17,16,16,16,18,16],"number_of_frames":120,"aperture_center_x":768,"aperture_center_y":432,"fixation_cross":true,"fixation_cross_width":15,"fixation_cross_height":15,"fixation_cross_color":"#111","fixation_cross_thickness":1,"border":true,"border_thickness":2,"border_color":"transparent","canvas_width":1536,"canvas_height":864,"trial_type":"rdk","trial_index":92,"plugin_version":"2.0.0","time_elapsed":255985},{"rt":11085,"stimulus":"\n        <div class=\"response-container\">\n          <div class=\"response-instruction\">\n            <p>rotate the bar by using the left and right arrow keys.</p>\n            <p>when you are determined, press the Enter key.</p>\n          </div>\n          <div class=\"response-circle\">\n            <div class=\"response-fixation\"></div>\n            <div id=\"bar\" class=\"rotating-bar\"></div>\n          </div>\n        </div>\n      ","response":"Enter","trial_type":"html-keyboard-response","trial_index":93,"plugin_version":"2.1.0","time_elapsed":267070,"random_initial_angle":203,"response_angle_css":-39,"response_angle_rdk":129,"angular_error_target":53,"angular_error_distractor":154,"target_direction":76,"target_group":"white","reward_points":0},{"rt":null,"stimulus":"\n          <p style=\"color: #FF3333;\">Your reward: 0 points</p>\n        ","response":null,"trial_type":"html-keyboard-response","trial_index":94,"plugin_version":"2.1.0","time_elapsed":269078},{"rt":null,"stimulus":"<div class=\"fixation\" style=\"font-size: 60px;\">+</div>","response":null,"trial_type":"html-keyboard-response","trial_index":95,"plugin_version":"2.1.0","time_elapsed":270085},{"target_group":"black","condition_label":"B_H_vs_W_L_rep11","target_direction":177,"distractor_direction":269,"session_rotation":63,"rt":-1,"response":"","correct":false,"choices":"ALL_KEYS","correct_choice":["a"],"trial_duration":2000,"flip_timestamps":[],"response_ends_trial":false,"number_of_apertures":200,"number_of_dots":[1,1,1,1,1,1,1,1,1,1,1,1,1,1,1,1,1,1,1,1,1,1,1,1,1,1,1,1,1,1,1,1,1,1,1,1,1,1,1,1,1,1,1,1,1,1,1,1,1,1,1,1,1,1,1,1,1,1,1,1,1,1,1,1,1,1,1,1,1,1,1,1,1,1,1,1,1,1,1,1,1,1,1,1,1,1,1,1,1,1,1,1,1,1,1,1,1,1,1,1,1,1,1,1,1,1,1,1,1,1,1,1,1,1,1,1,1,1,1,1,1,1,1,1,1,1,1,1,1,1,1,1,1,1,1,1,1,1,1,1,1,1,1,1,1,1,1,1,1,1,1,1,1,1,1,1,1,1,1,1,1,1,1,1,1,1,1,1,1,1,1,1,1,1,1,1,1,1,1,1,1,1,1,1,1,1,1,1,1,1,1,1,1,1,1,1,1,1,1,1],"number_of_sets":1,"coherent_direction":[269,269,269,177,177,269,177,177,269,177,177,269,177,269,177,269,269,177,177,269,177,269,269,269,269,269,177,177,177,177,269,177,269,269,269,177,177,177,177,177,177,177,177,269,177,269,269,177,177,269,269,177,177,269,177,177,177,269,177,269,177,269,177,177,177,269,177,177,269,177,269,177,177,177,177,269,269,177,177,269,177,177,269,177,177,269,177,269,177,177,177,269,177,269,269,177,177,269,269,269,177,177,269,269,269,177,269,269,177,269,177,269,177,269,177,269,177,269,177,177,269,177,269,177,177,269,177,177,269,177,269,269,177,269,177,269,177,177,177,269,269,269,269,269,269,269,177,177,269,269,269,269,269,269,177,269,269,269,269,269,177,269,177,177,269,269,269,269,177,269,269,177,177,269,177,269,269,177,177,269,269,177,269,269,269,269,269,177,177,269,269,177,269,177,269,177,177,177,177,177],"coherence":1,"opposite_coherence":0,"dot_radius":2,"dot_side_length":1,"dot_life":-1,"move_distance":1,"aperture_width":300,"aperture_height":300,"dot_color":["white","white","white","black","black","white","black","black","white","black","black","white","black","white","black","white","white","black","black","white","black","white","white","white","white","white","black","black","black","black","white","black","white","white","white","black","black","black","black","black","black","black","black","white","black","white","white","black","black","white","white","black","black","white","black","black","black","white","black","white","black","white","black","black","black","white","black","black","white","black","white","black","black","black","black","white","white","black","black","white","black","black","white","black","black","white","black","white","black","black","black","white","black","white","white","black","black","white","white","white","black","black","white","white","white","black","white","white","black","white","black","white","black","white","black","white","black","white","black","black","white","black","white","black","black","white","black","black","white","black","white","white","black","white","black","white","black","black","black","white","white","white","white","white","white","white","black","black","white","white","white","white","white","white","black","white","white","white","white","white","black","white","black","black","white","white","white","white","black","white","white","black","black","white","black","white","white","black","black","white","white","black","white","white","white","white","white","black","black","white","white","black","white","black","white","black","black","black","black","black"],"dot_shape":"circle","background_color":"#AAA","RDK_type":3,"aperture_type":2,"reinsert_type":2,"frame_rate":16.641666666666666,"frame_rate_array":[23,15,15,16,16,14,16,12,20,17,16,17,14,15,16,16,17,17,19,19,18,18,17,15,16,13,18,14,18,15,16,17,30,10,13,19,19,14,14,15,16,20,16,21,15,18,16,16,13,15,17,16,17,18,17,20,20,15,15,18,17,13,16,14,16,18,22,16,16,17,15,16,14,17,18,15,21,20,15,16,19,15,14,18,13,17,18,16,16,17,16,17,18,18,22,14,17,15,18,15,15,18,13,17,18,16,24,16,16,16,17,17,16,14,14,16,16,16,18,21],"number_of_frames":120,"aperture_center_x":768,"aperture_center_y":432,"fixation_cross":true,"fixation_cross_width":15,"fixation_cross_height":15,"fixation_cross_color":"#111","fixation_cross_thickness":1,"border":true,"border_thickness":2,"border_color":"transparent","canvas_width":1536,"canvas_height":864,"trial_type":"rdk","trial_index":96,"plugin_version":"2.0.0","time_elapsed":272093},{"rt":2288,"stimulus":"\n        <div class=\"response-container\">\n          <div class=\"response-instruction\">\n            <p>rotate the bar by using the left and right arrow keys.</p>\n            <p>when you are determined, press the Enter key.</p>\n          </div>\n          <div class=\"response-circle\">\n            <div class=\"response-fixation\"></div>\n            <div id=\"bar\" class=\"rotating-bar\"></div>\n          </div>\n        </div>\n      ","response":"Enter","trial_type":"html-keyboard-response","trial_index":97,"plugin_version":"2.1.0","time_elapsed":274383,"random_initial_angle":42,"response_angle_css":-53,"response_angle_rdk":143,"angular_error_target":-34,"angular_error_distractor":-126,"target_direction":177,"target_group":"black","reward_points":3},{"rt":null,"stimulus":"\n          <p style=\"color: #00FF00;\">Your reward: 3 points</p>\n        ","response":null,"trial_type":"html-keyboard-response","trial_index":98,"plugin_version":"2.1.0","time_elapsed":276391},{"rt":null,"stimulus":"<div class=\"fixation\" style=\"font-size: 60px;\">+</div>","response":null,"trial_type":"html-keyboard-response","trial_index":99,"plugin_version":"2.1.0","time_elapsed":277403},{"target_group":"white","condition_label":"W_H_vs_B_L_rep17","target_direction":92,"distractor_direction":346,"session_rotation":63,"rt":-1,"response":"","correct":false,"choices":"ALL_KEYS","correct_choice":["a"],"trial_duration":2000,"flip_timestamps":[],"response_ends_trial":false,"number_of_apertures":200,"number_of_dots":[1,1,1,1,1,1,1,1,1,1,1,1,1,1,1,1,1,1,1,1,1,1,1,1,1,1,1,1,1,1,1,1,1,1,1,1,1,1,1,1,1,1,1,1,1,1,1,1,1,1,1,1,1,1,1,1,1,1,1,1,1,1,1,1,1,1,1,1,1,1,1,1,1,1,1,1,1,1,1,1,1,1,1,1,1,1,1,1,1,1,1,1,1,1,1,1,1,1,1,1,1,1,1,1,1,1,1,1,1,1,1,1,1,1,1,1,1,1,1,1,1,1,1,1,1,1,1,1,1,1,1,1,1,1,1,1,1,1,1,1,1,1,1,1,1,1,1,1,1,1,1,1,1,1,1,1,1,1,1,1,1,1,1,1,1,1,1,1,1,1,1,1,1,1,1,1,1,1,1,1,1,1,1,1,1,1,1,1,1,1,1,1,1,1,1,1,1,1,1,1],"number_of_sets":1,"coherent_direction":[346,346,346,92,346,92,92,92,92,346,346,346,92,346,346,346,92,92,92,346,92,92,346,346,346,346,346,92,346,346,92,92,346,346,92,346,346,92,92,346,346,346,92,92,92,346,346,346,92,346,346,346,346,346,346,92,346,92,346,346,346,346,346,346,346,92,92,92,346,92,346,346,346,92,92,346,346,92,346,346,92,346,92,346,346,346,346,346,92,92,346,92,346,346,92,92,92,346,346,92,346,92,92,92,346,92,346,346,346,92,346,92,92,92,92,92,92,92,346,92,92,346,346,92,346,92,346,92,92,92,346,92,92,92,346,92,92,92,346,346,92,92,346,92,92,92,92,92,92,92,346,92,92,92,92,346,346,92,92,346,92,92,92,346,346,346,346,92,346,346,346,346,92,92,92,92,346,346,346,92,92,92,92,92,346,92,346,346,346,92,346,346,92,92,346,346,92,92,92,92],"coherence":1,"opposite_coherence":0,"dot_radius":2,"dot_side_length":1,"dot_life":-1,"move_distance":1,"aperture_width":300,"aperture_height":300,"dot_color":["black","black","black","white","black","white","white","white","white","black","black","black","white","black","black","black","white","white","white","black","white","white","black","black","black","black","black","white","black","black","white","white","black","black","white","black","black","white","white","black","black","black","white","white","white","black","black","black","white","black","black","black","black","black","black","white","black","white","black","black","black","black","black","black","black","white","white","white","black","white","black","black","black","white","white","black","black","white","black","black","white","black","white","black","black","black","black","black","white","white","black","white","black","black","white","white","white","black","black","white","black","white","white","white","black","white","black","black","black","white","black","white","white","white","white","white","white","white","black","white","white","black","black","white","black","white","black","white","white","white","black","white","white","white","black","white","white","white","black","black","white","white","black","white","white","white","white","white","white","white","black","white","white","white","white","black","black","white","white","black","white","white","white","black","black","black","black","white","black","black","black","black","white","white","white","white","black","black","black","white","white","white","white","white","black","white","black","black","black","white","black","black","white","white","black","black","white","white","white","white"],"dot_shape":"circle","background_color":"#AAA","RDK_type":3,"aperture_type":2,"reinsert_type":2,"frame_rate":16.570247933884296,"frame_rate_array":[11,14,19,22,10,13,15,15,14,20,14,19,18,15,15,16,16,17,15,16,17,17,22,16,13,18,19,17,14,16,15,16,18,16,22,21,13,17,17,17,14,16,15,16,17,16,17,17,21,16,16,15,16,16,16,17,22,16,17,17,13,19,16,14,17,16,16,17,18,22,20,11,14,16,17,16,19,19,16,20,12,20,15,16,15,15,17,17,21,18,17,15,16,15,17,18,13,17,17,17,22,17,13,17,19,15,17,16,15,17,16,17,17,21,19,15,16,16,18,17,13],"number_of_frames":121,"aperture_center_x":768,"aperture_center_y":432,"fixation_cross":true,"fixation_cross_width":15,"fixation_cross_height":15,"fixation_cross_color":"#111","fixation_cross_thickness":1,"border":true,"border_thickness":2,"border_color":"transparent","canvas_width":1536,"canvas_height":864,"trial_type":"rdk","trial_index":100,"plugin_version":"2.0.0","time_elapsed":279416},{"rt":4415,"stimulus":"\n        <div class=\"response-container\">\n          <div class=\"response-instruction\">\n            <p>rotate the bar by using the left and right arrow keys.</p>\n            <p>when you are determined, press the Enter key.</p>\n          </div>\n          <div class=\"response-circle\">\n            <div class=\"response-fixation\"></div>\n            <div id=\"bar\" class=\"rotating-bar\"></div>\n          </div>\n        </div>\n      ","response":"Enter","trial_type":"html-keyboard-response","trial_index":101,"plugin_version":"2.1.0","time_elapsed":283834,"random_initial_angle":239,"response_angle_css":322,"response_angle_rdk":128,"angular_error_target":36,"angular_error_distractor":142,"target_direction":92,"target_group":"white","reward_points":2},{"rt":null,"stimulus":"\n          <p style=\"color: #FF3333;\">Your reward: 2 points</p>\n        ","response":null,"trial_type":"html-keyboard-response","trial_index":102,"plugin_version":"2.1.0","time_elapsed":285841},{"rt":null,"stimulus":"<div class=\"fixation\" style=\"font-size: 60px;\">+</div>","response":null,"trial_type":"html-keyboard-response","trial_index":103,"plugin_version":"2.1.0","time_elapsed":286858},{"target_group":"white","condition_label":"W_H_vs_B_L_rep21","target_direction":73,"distractor_direction":333,"session_rotation":63,"rt":-1,"response":"","correct":false,"choices":"ALL_KEYS","correct_choice":["a"],"trial_duration":2000,"flip_timestamps":[],"response_ends_trial":false,"number_of_apertures":200,"number_of_dots":[1,1,1,1,1,1,1,1,1,1,1,1,1,1,1,1,1,1,1,1,1,1,1,1,1,1,1,1,1,1,1,1,1,1,1,1,1,1,1,1,1,1,1,1,1,1,1,1,1,1,1,1,1,1,1,1,1,1,1,1,1,1,1,1,1,1,1,1,1,1,1,1,1,1,1,1,1,1,1,1,1,1,1,1,1,1,1,1,1,1,1,1,1,1,1,1,1,1,1,1,1,1,1,1,1,1,1,1,1,1,1,1,1,1,1,1,1,1,1,1,1,1,1,1,1,1,1,1,1,1,1,1,1,1,1,1,1,1,1,1,1,1,1,1,1,1,1,1,1,1,1,1,1,1,1,1,1,1,1,1,1,1,1,1,1,1,1,1,1,1,1,1,1,1,1,1,1,1,1,1,1,1,1,1,1,1,1,1,1,1,1,1,1,1,1,1,1,1,1,1],"number_of_sets":1,"coherent_direction":[333,73,333,333,73,73,333,73,333,73,333,73,73,333,333,73,73,333,73,73,73,333,333,333,73,333,333,73,73,73,73,73,73,333,73,73,333,73,333,333,333,73,333,73,73,333,73,73,73,73,333,333,73,73,73,73,73,73,333,73,333,333,333,333,333,333,73,73,333,73,333,333,73,333,333,333,333,73,73,73,73,73,73,333,333,333,73,73,333,333,333,333,73,73,333,333,73,333,333,333,73,73,73,73,333,333,333,73,73,333,333,73,73,333,333,333,333,73,73,73,73,333,333,73,333,333,333,73,333,73,333,73,73,333,333,73,333,333,333,333,333,73,333,333,73,333,73,73,333,73,73,73,333,333,73,333,73,73,73,333,73,333,333,333,73,73,333,73,333,333,73,333,73,73,73,73,333,333,333,333,333,333,73,333,333,73,73,333,333,73,73,333,333,73,333,73,73,73,73,73],"coherence":1,"opposite_coherence":0,"dot_radius":2,"dot_side_length":1,"dot_life":-1,"move_distance":1,"aperture_width":300,"aperture_height":300,"dot_color":["black","white","black","black","white","white","black","white","black","white","black","white","white","black","black","white","white","black","white","white","white","black","black","black","white","black","black","white","white","white","white","white","white","black","white","white","black","white","black","black","black","white","black","white","white","black","white","white","white","white","black","black","white","white","white","white","white","white","black","white","black","black","black","black","black","black","white","white","black","white","black","black","white","black","black","black","black","white","white","white","white","white","white","black","black","black","white","white","black","black","black","black","white","white","black","black","white","black","black","black","white","white","white","white","black","black","black","white","white","black","black","white","white","black","black","black","black","white","white","white","white","black","black","white","black","black","black","white","black","white","black","white","white","black","black","white","black","black","black","black","black","white","black","black","white","black","white","white","black","white","white","white","black","black","white","black","white","white","white","black","white","black","black","black","white","white","black","white","black","black","white","black","white","white","white","white","black","black","black","black","black","black","white","black","black","white","white","black","black","white","white","black","black","white","black","white","white","white","white","white"],"dot_shape":"circle","background_color":"#AAA","RDK_type":3,"aperture_type":2,"reinsert_type":2,"frame_rate":16.69747899159664,"frame_rate_array":[39,5,11,14,15,19,20,17,18,19,8,16,17,16,17,17,17,17,16,17,17,21,17,19,17,15,13,16,16,16,18,16,17,23,15,15,20,15,15,17,14,15,17,16,18,21,20,13,17,13,16,18,15,18,16,16,21,17,18,19,14,14,16,16,16,18,21,19,12,20,14,14,18,14,16,17,16,17,19,18,17,19,17,14,16,14,16,16,16,21,17,11,17,17,17,16,22,18,17,15,18,21,11,13,17,17,16,17,20,20,14,18,18,15,16,16,13,17,17],"number_of_frames":119,"aperture_center_x":768,"aperture_center_y":432,"fixation_cross":true,"fixation_cross_width":15,"fixation_cross_height":15,"fixation_cross_color":"#111","fixation_cross_thickness":1,"border":true,"border_thickness":2,"border_color":"transparent","canvas_width":1536,"canvas_height":864,"trial_type":"rdk","trial_index":104,"plugin_version":"2.0.0","time_elapsed":288866},{"rt":3242,"stimulus":"\n        <div class=\"response-container\">\n          <div class=\"response-instruction\">\n            <p>rotate the bar by using the left and right arrow keys.</p>\n            <p>when you are determined, press the Enter key.</p>\n          </div>\n          <div class=\"response-circle\">\n            <div class=\"response-fixation\"></div>\n            <div id=\"bar\" class=\"rotating-bar\"></div>\n          </div>\n        </div>\n      ","response":"Enter","trial_type":"html-keyboard-response","trial_index":105,"plugin_version":"2.1.0","time_elapsed":292109,"random_initial_angle":182,"response_angle_css":324,"response_angle_rdk":126,"angular_error_target":53,"angular_error_distractor":153,"target_direction":73,"target_group":"white","reward_points":0},{"rt":null,"stimulus":"\n          <p style=\"color: #FF3333;\">Your reward: 0 points</p>\n        ","response":null,"trial_type":"html-keyboard-response","trial_index":106,"plugin_version":"2.1.0","time_elapsed":294119},{"rt":null,"stimulus":"<div class=\"fixation\" style=\"font-size: 60px;\">+</div>","response":null,"trial_type":"html-keyboard-response","trial_index":107,"plugin_version":"2.1.0","time_elapsed":295126},{"target_group":"white","condition_label":"W_H_vs_B_L_rep22","target_direction":91,"distractor_direction":340,"session_rotation":63,"rt":-1,"response":"","correct":false,"choices":"ALL_KEYS","correct_choice":["a"],"trial_duration":2000,"flip_timestamps":[],"response_ends_trial":false,"number_of_apertures":200,"number_of_dots":[1,1,1,1,1,1,1,1,1,1,1,1,1,1,1,1,1,1,1,1,1,1,1,1,1,1,1,1,1,1,1,1,1,1,1,1,1,1,1,1,1,1,1,1,1,1,1,1,1,