[{"rt":1919,"stimulus":"Welcome to the experiment. Press any key to begin.","response":"a","trial_type":"html-keyboard-response","trial_index":0,"plugin_version":"2.1.0","time_elapsed":1922},{"rt":50025,"stimulus":"\n        <div class=\"instructions-container\">\n          <h2>Instructions</h2>\n\n          <p>\n          In this experiment, you will see <strong>two Random Dot Kinematograms (RDKs)</strong> displayed simultaneously.\n          </p>\n\n          <p>\n          An RDK is a visual stimulus consisting of many small dots that move coherently in a single direction. \n          In this experiment, the dots will be either <strong>white</strong> or <strong>black</strong> \n          (see the short demo below for an example of an RDK stimulus).\n          </p>\n\n          <p>\n          On each trial, the two RDKs will move in different directions. \n          Your task is to decide <strong>which RDK appears to contain more dots</strong>.\n          </p>\n\n          <p>\n          The RDK that you judge to have more dots is called the <strong>target RDK</strong>. \n          For example, if the white RDK appears to have more dots than the black RDK, \n          you should report the motion direction of the white RDK.\n          </p>\n\n          <p>\n          After viewing the RDKs, you will rotate a bar to indicate the perceived direction of the target RDK \n          using the <strong>left</strong> and <strong>right arrow keys</strong>. \n          Press <strong>Enter</strong> when you are satisfied with your response.\n          When the bar is held down, the rotation speed increases.\n          </p>\n\n          <p>\n          You will receive points based on the <strong>accuracy of your response</strong>, \n          and your final <strong>bonus reward</strong> may depend on your overall performance. \n          Please try to respond as accurately as possible.\n          </p>\n\n          <p>\n          You will first complete <strong>16 practice trials</strong>. \n          Press the <strong>Enter</strong> key to start the practice phase.\n          </p>\n\n          <canvas id=\"instruction-demo-rdk\" width=\"200\" height=\"200\"style=\"display:block;margin:12px auto; border-radius: 50%;\"></canvas>\n        </div>\n      ","response":"Enter","trial_type":"html-keyboard-response","trial_index":1,"plugin_version":"2.1.0","time_elapsed":51947},{"rt":null,"stimulus":"<div class=\"fixation\" style=\"font-size: 60px;\">+</div>","response":null,"trial_type":"html-keyboard-response","trial_index":2,"plugin_version":"2.1.0","time_elapsed":52950},{"target_group":"black","target_index":1,"condition_label":"practice","rt":-1,"response":"","correct":false,"choices":"ALL_KEYS","correct_choice":["a"],"trial_duration":2000,"flip_timestamps":[],"response_ends_trial":false,"number_of_apertures":2,"number_of_dots":[55,100],"number_of_sets":1,"coherent_direction":[322,124],"coherence":1,"opposite_coherence":0,"dot_radius":2,"dot_side_length":1,"dot_life":-1,"move_distance":1,"aperture_width":300,"aperture_height":300,"dot_color":["white","black"],"dot_shape":"circle","background_color":"#AAA","RDK_type":3,"aperture_type":2,"reinsert_type":2,"frame_rate":16.683333333333334,"frame_rate_array":[10,16,20,13,18,17,16,17,16,16,17,17,17,17,17,16,18,17,17,17,17,16,16,18,17,17,17,17,17,16,17,16,17,16,17,17,16,17,16,18,16,16,17,16,17,16,17,17,16,16,17,17,16,16,16,18,17,17,16,18,16,17,17,17,17,16,17,17,16,18,17,17,17,16,17,17,16,16,16,17,17,18,17,17,17,17,17,16,17,17,16,17,17,17,17,17,17,17,17,16,17,17,16,17,17,16,17,16,17,17,17,16,17,16,17,17,16,17,17,17],"number_of_frames":120,"aperture_center_x":896,"aperture_center_y":560,"fixation_cross":true,"fixation_cross_width":15,"fixation_cross_height":15,"fixation_cross_color":"#111","fixation_cross_thickness":1,"border":true,"border_thickness":2,"border_color":"transparent","canvas_width":1792,"canvas_height":1120,"trial_type":"rdk","trial_index":3,"plugin_version":"2.0.0","time_elapsed":54954,"phase":"practice","target_direction":124,"distractor_direction":322},{"rt":5132,"stimulus":"\n        <div class=\"response-container\">\n          <div class=\"response-instruction\">\n            <p>rotate the bar by using the left and right arrow keys.</p>\n            <p>when you are determined, press the Enter key.</p>\n          </div>\n          <div class=\"response-circle\">\n            <div class=\"response-fixation\"></div>\n            <div id=\"bar\" class=\"rotating-bar\"></div>\n          </div>\n        </div>\n      ","response":"Enter","trial_type":"html-keyboard-response","trial_index":4,"plugin_version":"2.1.0","time_elapsed":60087,"random_initial_angle":55,"response_angle_css":-48,"response_angle_rdk":138,"angular_error_target":14,"angular_error_distractor":176,"target_direction":124,"target_group":"black","reward_points":7},{"rt":null,"stimulus":"\n          <p style=\"color: #00FF00;\">Your reward: 7 points</p>\n        ","response":null,"trial_type":"html-keyboard-response","trial_index":5,"plugin_version":"2.1.0","time_elapsed":62087},{"rt":null,"stimulus":"<div class=\"fixation\" style=\"font-size: 60px;\">+</div>","response":null,"trial_type":"html-keyboard-response","trial_index":6,"plugin_version":"2.1.0","time_elapsed":63089},{"target_group":"black","target_index":1,"condition_label":"practice","rt":-1,"response":"","correct":false,"choices":"ALL_KEYS","correct_choice":["a"],"trial_duration":2000,"flip_timestamps":[],"response_ends_trial":false,"number_of_apertures":2,"number_of_dots":[81,100],"number_of_sets":1,"coherent_direction":[145,55],"coherence":1,"opposite_coherence":0,"dot_radius":2,"dot_side_length":1,"dot_life":-1,"move_distance":1,"aperture_width":300,"aperture_height":300,"dot_color":["white","black"],"dot_shape":"circle","background_color":"#AAA","RDK_type":3,"aperture_type":2,"reinsert_type":2,"frame_rate":16.873949579831933,"frame_rate_array":[24,16,17,16,20,21,17,18,17,18,17,17,16,17,17,17,16,17,17,17,15,18,16,17,15,18,17,16,16,17,17,16,16,18,16,17,16,18,17,16,16,18,17,16,16,17,17,16,16,18,16,17,16,18,16,17,16,18,17,16,16,18,17,16,16,18,16,17,16,18,17,16,17,17,17,17,16,17,17,16,16,18,16,17,17,17,17,17,16,18,16,17,17,17,17,16,17,17,17,16,16,18,17,16,17,17,16,17,17,17,17,17,16,18,17,16,16,18,16],"number_of_frames":119,"aperture_center_x":896,"aperture_center_y":560,"fixation_cross":true,"fixation_cross_width":15,"fixation_cross_height":15,"fixation_cross_color":"#111","fixation_cross_thickness":1,"border":true,"border_thickness":2,"border_color":"transparent","canvas_width":1792,"canvas_height":1120,"trial_type":"rdk","trial_index":7,"plugin_version":"2.0.0","time_elapsed":65092,"phase":"practice","target_direction":55,"distractor_direction":145},{"rt":2156,"stimulus":"\n        <div class=\"response-container\">\n          <div class=\"response-instruction\">\n            <p>rotate the bar by using the left and right arrow keys.</p>\n            <p>when you are determined, press the Enter key.</p>\n          </div>\n          <div class=\"response-circle\">\n            <div class=\"response-fixation\"></div>\n            <div id=\"bar\" class=\"rotating-bar\"></div>\n          </div>\n        </div>\n      ","response":"Enter","trial_type":"html-keyboard-response","trial_index":8,"plugin_version":"2.1.0","time_elapsed":67249,"random_initial_angle":23,"response_angle_css":23,"response_angle_rdk":67,"angular_error_target":12,"angular_error_distractor":-78,"target_direction":55,"target_group":"black","reward_points":7},{"rt":null,"stimulus":"\n          <p style=\"color: #00FF00;\">Your reward: 7 points</p>\n        ","response":null,"trial_type":"html-keyboard-response","trial_index":9,"plugin_version":"2.1.0","time_elapsed":69251},{"rt":null,"stimulus":"<div class=\"fixation\" style=\"font-size: 60px;\">+</div>","response":null,"trial_type":"html-keyboard-response","trial_index":10,"plugin_version":"2.1.0","time_elapsed":70253},{"target_group":"black","target_index":1,"condition_label":"practice","rt":-1,"response":"","correct":false,"choices":"ALL_KEYS","correct_choice":["a"],"trial_duration":2000,"flip_timestamps":[],"response_ends_trial":false,"number_of_apertures":2,"number_of_dots":[74,100],"number_of_sets":1,"coherent_direction":[154,53],"coherence":1,"opposite_coherence":0,"dot_radius":2,"dot_side_length":1,"dot_life":-1,"move_distance":1,"aperture_width":300,"aperture_height":300,"dot_color":["white","black"],"dot_shape":"circle","background_color":"#AAA","RDK_type":3,"aperture_type":2,"reinsert_type":2,"frame_rate":16.907563025210084,"frame_rate_array":[24,17,16,19,20,18,17,18,17,17,17,17,16,17,18,17,16,16,17,17,17,17,17,17,16,16,18,17,16,16,18,17,16,17,17,17,16,16,17,17,17,16,18,17,16,16,18,17,17,16,18,17,16,16,18,16,17,17,17,17,17,16,17,17,16,16,17,17,17,16,18,17,17,16,18,17,17,16,17,16,17,16,17,17,17,16,17,17,17,16,18,16,17,16,18,16,17,17,16,17,17,16,17,17,16,17,17,17,17,16,17,17,17,16,18,17,17,16,17],"number_of_frames":119,"aperture_center_x":896,"aperture_center_y":560,"fixation_cross":true,"fixation_cross_width":15,"fixation_cross_height":15,"fixation_cross_color":"#111","fixation_cross_thickness":1,"border":true,"border_thickness":2,"border_color":"transparent","canvas_width":1792,"canvas_height":1120,"trial_type":"rdk","trial_index":11,"plugin_version":"2.0.0","time_elapsed":72255,"phase":"practice","target_direction":53,"distractor_direction":154},{"rt":5169,"stimulus":"\n        <div class=\"response-container\">\n          <div class=\"response-instruction\">\n            <p>rotate the bar by using the left and right arrow keys.</p>\n            <p>when you are determined, press the Enter key.</p>\n          </div>\n          <div class=\"response-circle\">\n            <div class=\"response-fixation\"></div>\n            <div id=\"bar\" class=\"rotating-bar\"></div>\n          </div>\n        </div>\n      ","response":"Enter","trial_type":"html-keyboard-response","trial_index":12,"plugin_version":"2.1.0","time_elapsed":77424,"random_initial_angle":288,"response_angle_css":392,"response_angle_rdk":58,"angular_error_target":5,"angular_error_distractor":-96,"target_direction":53,"target_group":"black","reward_points":9},{"rt":null,"stimulus":"\n          <p style=\"color: #00FF00;\">Your reward: 9 points</p>\n        ","response":null,"trial_type":"html-keyboard-response","trial_index":13,"plugin_version":"2.1.0","time_elapsed":79426},{"rt":null,"stimulus":"<div class=\"fixation\" style=\"font-size: 60px;\">+</div>","response":null,"trial_type":"html-keyboard-response","trial_index":14,"plugin_version":"2.1.0","time_elapsed":80428},{"target_group":"white","target_index":0,"condition_label":"practice","rt":-1,"response":"","correct":false,"choices":"ALL_KEYS","correct_choice":["a"],"trial_duration":2000,"flip_timestamps":[],"response_ends_trial":false,"number_of_apertures":2,"number_of_dots":[100,87],"number_of_sets":1,"coherent_direction":[55,307],"coherence":1,"opposite_coherence":0,"dot_radius":2,"dot_side_length":1,"dot_life":-1,"move_distance":1,"aperture_width":300,"aperture_height":300,"dot_color":["white","black"],"dot_shape":"circle","background_color":"#AAA","RDK_type":3,"aperture_type":2,"reinsert_type":2,"frame_rate":16.831932773109244,"frame_rate_array":[21,16,16,17,20,19,18,17,17,17,17,17,16,17,16,16,18,17,16,17,17,17,16,17,16,17,16,17,16,16,18,16,17,16,17,16,17,17,17,17,16,17,17,16,17,16,17,17,17,17,17,17,17,17,16,17,17,17,17,17,17,17,17,17,17,16,18,16,17,17,17,17,16,16,17,17,17,16,17,17,17,17,17,16,17,16,17,17,16,16,18,16,17,16,17,17,17,16,18,17,16,17,17,17,16,17,17,17,17,17,17,17,16,16,17,17,17,16,17],"number_of_frames":119,"aperture_center_x":896,"aperture_center_y":560,"fixation_cross":true,"fixation_cross_width":15,"fixation_cross_height":15,"fixation_cross_color":"#111","fixation_cross_thickness":1,"border":true,"border_thickness":2,"border_color":"transparent","canvas_width":1792,"canvas_height":1120,"trial_type":"rdk","trial_index":15,"plugin_version":"2.0.0","time_elapsed":82431,"phase":"practice","target_direction":55,"distractor_direction":307},{"rt":6731,"stimulus":"\n        <div class=\"response-container\">\n          <div class=\"response-instruction\">\n            <p>rotate the bar by using the left and right arrow keys.</p>\n            <p>when you are determined, press the Enter key.</p>\n          </div>\n          <div class=\"response-circle\">\n            <div class=\"response-fixation\"></div>\n            <div id=\"bar\" class=\"rotating-bar\"></div>\n          </div>\n        </div>\n      ","response":"Enter","trial_type":"html-keyboard-response","trial_index":16,"plugin_version":"2.1.0","time_elapsed":89162,"random_initial_angle":130,"response_angle_css":366,"response_angle_rdk":84,"angular_error_target":29,"angular_error_distractor":137,"target_direction":55,"target_group":"white","reward_points":4},{"rt":null,"stimulus":"\n          <p style=\"color: #00FF00;\">Your reward: 4 points</p>\n        ","response":null,"trial_type":"html-keyboard-response","trial_index":17,"plugin_version":"2.1.0","time_elapsed":91164},{"rt":null,"stimulus":"<div class=\"fixation\" style=\"font-size: 60px;\">+</div>","response":null,"trial_type":"html-keyboard-response","trial_index":18,"plugin_version":"2.1.0","time_elapsed":92166},{"target_group":"black","target_index":1,"condition_label":"practice","rt":-1,"response":"","correct":false,"choices":"ALL_KEYS","correct_choice":["a"],"trial_duration":2000,"flip_timestamps":[],"response_ends_trial":false,"number_of_apertures":2,"number_of_dots":[98,100],"number_of_sets":1,"coherent_direction":[278,19],"coherence":1,"opposite_coherence":0,"dot_radius":2,"dot_side_length":1,"dot_life":-1,"move_distance":1,"aperture_width":300,"aperture_height":300,"dot_color":["white","black"],"dot_shape":"circle","background_color":"#AAA","RDK_type":3,"aperture_type":2,"reinsert_type":2,"frame_rate":16.88235294117647,"frame_rate_array":[22,16,17,17,20,20,18,17,18,17,16,18,16,17,16,17,17,17,17,16,17,16,17,17,16,17,16,17,16,17,16,18,17,16,17,16,18,17,16,18,16,17,16,18,16,17,16,17,17,17,16,17,17,16,16,18,17,17,16,18,17,16,16,17,17,17,17,17,17,17,16,17,18,16,16,17,17,17,16,17,17,17,16,17,17,17,17,16,17,17,16,17,17,17,16,18,17,17,17,17,17,17,16,18,17,16,16,17,16,17,16,17,17,17,16,18,17,17,16],"number_of_frames":119,"aperture_center_x":896,"aperture_center_y":560,"fixation_cross":true,"fixation_cross_width":15,"fixation_cross_height":15,"fixation_cross_color":"#111","fixation_cross_thickness":1,"border":true,"border_thickness":2,"border_color":"transparent","canvas_width":1792,"canvas_height":1120,"trial_type":"rdk","trial_index":19,"plugin_version":"2.0.0","time_elapsed":94168,"phase":"practice","target_direction":19,"distractor_direction":278},{"rt":4303,"stimulus":"\n        <div class=\"response-container\">\n          <div class=\"response-instruction\">\n            <p>rotate the bar by using the left and right arrow keys.</p>\n            <p>when you are determined, press the Enter key.</p>\n          </div>\n          <div class=\"response-circle\">\n            <div class=\"response-fixation\"></div>\n            <div id=\"bar\" class=\"rotating-bar\"></div>\n          </div>\n        </div>\n      ","response":"Enter","trial_type":"html-keyboard-response","trial_index":20,"plugin_version":"2.1.0","time_elapsed":98471,"random_initial_angle":286,"response_angle_css":411,"response_angle_rdk":39,"angular_error_target":20,"angular_error_distractor":121,"target_direction":19,"target_group":"black","reward_points":6},{"rt":null,"stimulus":"\n          <p style=\"color: #00FF00;\">Your reward: 6 points</p>\n        ","response":null,"trial_type":"html-keyboard-response","trial_index":21,"plugin_version":"2.1.0","time_elapsed":100473},{"rt":null,"stimulus":"<div class=\"fixation\" style=\"font-size: 60px;\">+</div>","response":null,"trial_type":"html-keyboard-response","trial_index":22,"plugin_version":"2.1.0","time_elapsed":101476},{"target_group":"black","target_index":1,"condition_label":"practice","rt":-1,"response":"","correct":false,"choices":"ALL_KEYS","correct_choice":["a"],"trial_duration":2000,"flip_timestamps":[],"response_ends_trial":false,"number_of_apertures":2,"number_of_dots":[72,100],"number_of_sets":1,"coherent_direction":[162,32],"coherence":1,"opposite_coherence":0,"dot_radius":2,"dot_side_length":1,"dot_life":-1,"move_distance":1,"aperture_width":300,"aperture_height":300,"dot_color":["white","black"],"dot_shape":"circle","background_color":"#AAA","RDK_type":3,"aperture_type":2,"reinsert_type":2,"frame_rate":16.899159663865547,"frame_rate_array":[21,17,17,16,21,19,18,17,18,17,17,16,17,17,16,18,17,17,16,18,17,16,16,17,17,16,16,17,16,17,16,18,17,16,16,18,17,16,16,18,17,17,16,17,17,16,16,18,17,17,16,18,17,17,16,18,17,16,16,18,17,17,16,18,17,17,16,18,17,16,17,17,17,16,16,18,17,16,16,18,17,16,16,18,17,16,16,17,17,17,16,18,16,17,17,18,17,17,16,17,17,17,17,17,16,16,16,18,16,17,16,18,16,17,17,17,17,17,16],"number_of_frames":119,"aperture_center_x":896,"aperture_center_y":560,"fixation_cross":true,"fixation_cross_width":15,"fixation_cross_height":15,"fixation_cross_color":"#111","fixation_cross_thickness":1,"border":true,"border_thickness":2,"border_color":"transparent","canvas_width":1792,"canvas_height":1120,"trial_type":"rdk","trial_index":23,"plugin_version":"2.0.0","time_elapsed":103479,"phase":"practice","target_direction":32,"distractor_direction":162},{"rt":4278,"stimulus":"\n        <div class=\"response-container\">\n          <div class=\"response-instruction\">\n            <p>rotate the bar by using the left and right arrow keys.</p>\n            <p>when you are determined, press the Enter key.</p>\n          </div>\n          <div class=\"response-circle\">\n            <div class=\"response-fixation\"></div>\n            <div id=\"bar\" class=\"rotating-bar\"></div>\n          </div>\n        </div>\n      ","response":"Enter","trial_type":"html-keyboard-response","trial_index":24,"plugin_version":"2.1.0","time_elapsed":107757,"random_initial_angle":323,"response_angle_css":399,"response_angle_rdk":51,"angular_error_target":19,"angular_error_distractor":-111,"target_direction":32,"target_group":"black","reward_points":6},{"rt":null,"stimulus":"\n          <p style=\"color: #00FF00;\">Your reward: 6 points</p>\n        ","response":null,"trial_type":"html-keyboard-response","trial_index":25,"plugin_version":"2.1.0","time_elapsed":109759},{"rt":null,"stimulus":"<div class=\"fixation\" style=\"font-size: 60px;\">+</div>","response":null,"trial_type":"html-keyboard-response","trial_index":26,"plugin_version":"2.1.0","time_elapsed":110761},{"target_group":"white","target_index":0,"condition_label":"practice","rt":-1,"response":"","correct":false,"choices":"ALL_KEYS","correct_choice":["a"],"trial_duration":2000,"flip_timestamps":[],"response_ends_trial":false,"number_of_apertures":2,"number_of_dots":[100,90],"number_of_sets":1,"coherent_direction":[313,170],"coherence":1,"opposite_coherence":0,"dot_radius":2,"dot_side_length":1,"dot_life":-1,"move_distance":1,"aperture_width":300,"aperture_height":300,"dot_color":["white","black"],"dot_shape":"circle","background_color":"#AAA","RDK_type":3,"aperture_type":2,"reinsert_type":2,"frame_rate":16.77310924369748,"frame_rate_array":[15,17,16,20,19,18,17,16,17,17,16,16,18,17,16,16,18,17,16,16,18,16,17,17,16,17,16,16,17,17,16,17,17,16,16,17,17,16,17,17,16,17,17,17,17,17,16,17,17,17,16,18,16,17,16,18,17,17,16,17,17,17,16,16,18,17,16,17,17,17,17,17,17,17,16,17,17,16,17,17,17,16,16,17,17,17,16,17,17,17,17,16,18,17,17,17,17,17,17,16,17,17,16,17,17,17,16,17,17,17,16,17,16,17,17,16,17,16,17],"number_of_frames":119,"aperture_center_x":896,"aperture_center_y":560,"fixation_cross":true,"fixation_cross_width":15,"fixation_cross_height":15,"fixation_cross_color":"#111","fixation_cross_thickness":1,"border":true,"border_thickness":2,"border_color":"transparent","canvas_width":1792,"canvas_height":1120,"trial_type":"rdk","trial_index":27,"plugin_version":"2.0.0","time_elapsed":112765,"phase":"practice","target_direction":313,"distractor_direction":170},{"rt":4939,"stimulus":"\n        <div class=\"response-container\">\n          <div class=\"response-instruction\">\n            <p>rotate the bar by using the left and right arrow keys.</p>\n            <p>when you are determined, press the Enter key.</p>\n          </div>\n          <div class=\"response-circle\">\n            <div class=\"response-fixation\"></div>\n            <div id=\"bar\" class=\"rotating-bar\"></div>\n          </div>\n        </div>\n      ","response":"Enter","trial_type":"html-keyboard-response","trial_index":28,"plugin_version":"2.1.0","time_elapsed":117704,"random_initial_angle":197,"response_angle_css":-40,"response_angle_rdk":130,"angular_error_target":177,"angular_error_distractor":-40,"target_direction":313,"target_group":"white","reward_points":0},{"rt":null,"stimulus":"\n          <p style=\"color: #FF3333;\">Your reward: 0 points</p>\n        ","response":null,"trial_type":"html-keyboard-response","trial_index":29,"plugin_version":"2.1.0","time_elapsed":119706},{"rt":null,"stimulus":"<div class=\"fixation\" style=\"font-size: 60px;\">+</div>","response":null,"trial_type":"html-keyboard-response","trial_index":30,"plugin_version":"2.1.0","time_elapsed":120709},{"target_group":"white","target_index":0,"condition_label":"practice","rt":-1,"response":"","correct":false,"choices":"ALL_KEYS","correct_choice":["a"],"trial_duration":2000,"flip_timestamps":[],"response_ends_trial":false,"number_of_apertures":2,"number_of_dots":[100,57],"number_of_sets":1,"coherent_direction":[119,252],"coherence":1,"opposite_coherence":0,"dot_radius":2,"dot_side_length":1,"dot_life":-1,"move_distance":1,"aperture_width":300,"aperture_height":300,"dot_color":["white","black"],"dot_shape":"circle","background_color":"#AAA","RDK_type":3,"aperture_type":2,"reinsert_type":2,"frame_rate":16.941176470588236,"frame_rate_array":[21,17,16,17,17,20,20,17,19,16,17,17,16,17,18,17,17,17,17,17,17,17,17,17,17,16,18,16,17,16,18,17,16,17,17,17,16,17,17,16,17,17,17,17,17,17,17,17,17,16,18,16,17,16,18,17,17,16,18,17,17,16,18,16,17,17,16,17,16,17,18,17,17,16,18,16,17,16,18,17,17,16,18,17,17,16,18,17,16,17,17,17,17,16,17,17,16,16,18,16,17,16,17,17,16,16,18,17,17,16,17,17,17,16,18,17,16,16,17],"number_of_frames":119,"aperture_center_x":896,"aperture_center_y":560,"fixation_cross":true,"fixation_cross_width":15,"fixation_cross_height":15,"fixation_cross_color":"#111","fixation_cross_thickness":1,"border":true,"border_thickness":2,"border_color":"transparent","canvas_width":1792,"canvas_height":1120,"trial_type":"rdk","trial_index":31,"plugin_version":"2.0.0","time_elapsed":122711,"phase":"practice","target_direction":119,"distractor_direction":252},{"rt":5242,"stimulus":"\n        <div class=\"response-container\">\n          <div class=\"response-instruction\">\n            <p>rotate the bar by using the left and right arrow keys.</p>\n            <p>when you are determined, press the Enter key.</p>\n          </div>\n          <div class=\"response-circle\">\n            <div class=\"response-fixation\"></div>\n            <div id=\"bar\" class=\"rotating-bar\"></div>\n          </div>\n        </div>\n      ","response":"Enter","trial_type":"html-keyboard-response","trial_index":32,"plugin_version":"2.1.0","time_elapsed":127953,"random_initial_angle":85,"response_angle_css":-15,"response_angle_rdk":105,"angular_error_target":-14,"angular_error_distractor":-147,"target_direction":119,"target_group":"white","reward_points":7},{"rt":null,"stimulus":"\n          <p style=\"color: #00FF00;\">Your reward: 7 points</p>\n        ","response":null,"trial_type":"html-keyboard-response","trial_index":33,"plugin_version":"2.1.0","time_elapsed":129956},{"rt":null,"stimulus":"<div class=\"fixation\" style=\"font-size: 60px;\">+</div>","response":null,"trial_type":"html-keyboard-response","trial_index":34,"plugin_version":"2.1.0","time_elapsed":130957},{"target_group":"black","target_index":1,"condition_label":"practice","rt":-1,"response":"","correct":false,"choices":"ALL_KEYS","correct_choice":["a"],"trial_duration":2000,"flip_timestamps":[],"response_ends_trial":false,"number_of_apertures":2,"number_of_dots":[85,100],"number_of_sets":1,"coherent_direction":[160,327],"coherence":1,"opposite_coherence":0,"dot_radius":2,"dot_side_length":1,"dot_life":-1,"move_distance":1,"aperture_width":300,"aperture_height":300,"dot_color":["white","black"],"dot_shape":"circle","background_color":"#AAA","RDK_type":3,"aperture_type":2,"reinsert_type":2,"frame_rate":16.899159663865547,"frame_rate_array":[21,16,16,17,17,21,20,18,18,17,17,17,17,17,17,17,17,17,17,17,17,17,17,16,17,16,17,16,18,17,16,17,17,17,16,16,18,17,16,16,18,17,16,16,18,17,16,16,18,17,16,16,18,17,16,16,18,17,16,17,18,16,18,17,17,17,16,16,18,16,16,16,18,17,17,16,18,16,17,17,17,17,16,16,18,16,16,16,18,16,18,16,17,17,17,16,18,17,16,17,17,17,17,16,18,17,16,16,18,16,16,17,17,17,16,16,18,17,16],"number_of_frames":119,"aperture_center_x":896,"aperture_center_y":560,"fixation_cross":true,"fixation_cross_width":15,"fixation_cross_height":15,"fixation_cross_color":"#111","fixation_cross_thickness":1,"border":true,"border_thickness":2,"border_color":"transparent","canvas_width":1792,"canvas_height":1120,"trial_type":"rdk","trial_index":35,"plugin_version":"2.0.0","time_elapsed":132959,"phase":"practice","target_direction":327,"distractor_direction":160},{"rt":6081,"stimulus":"\n        <div class=\"response-container\">\n          <div class=\"response-instruction\">\n            <p>rotate the bar by using the left and right arrow keys.</p>\n            <p>when you are determined, press the Enter key.</p>\n          </div>\n          <div class=\"response-circle\">\n            <div class=\"response-fixation\"></div>\n            <div id=\"bar\" class=\"rotating-bar\"></div>\n          </div>\n        </div>\n      ","response":"Enter","trial_type":"html-keyboard-response","trial_index":36,"plugin_version":"2.1.0","time_elapsed":139040,"random_initial_angle":309,"response_angle_css":489,"response_angle_rdk":321,"angular_error_target":-6,"angular_error_distractor":161,"target_direction":327,"target_group":"black","reward_points":8},{"rt":null,"stimulus":"\n          <p style=\"color: #00FF00;\">Your reward: 8 points</p>\n        ","response":null,"trial_type":"html-keyboard-response","trial_index":37,"plugin_version":"2.1.0","time_elapsed":141042},{"rt":null,"stimulus":"<div class=\"fixation\" style=\"font-size: 60px;\">+</div>","response":null,"trial_type":"html-keyboard-response","trial_index":38,"plugin_version":"2.1.0","time_elapsed":142045},{"target_group":"black","target_index":1,"condition_label":"practice","rt":-1,"response":"","correct":false,"choices":"ALL_KEYS","correct_choice":["a"],"trial_duration":2000,"flip_timestamps":[],"response_ends_trial":false,"number_of_apertures":2,"number_of_dots":[78,100],"number_of_sets":1,"coherent_direction":[40,133],"coherence":1,"opposite_coherence":0,"dot_radius":2,"dot_side_length":1,"dot_life":-1,"move_distance":1,"aperture_width":300,"aperture_height":300,"dot_color":["white","black"],"dot_shape":"circle","background_color":"#AAA","RDK_type":3,"aperture_type":2,"reinsert_type":2,"frame_rate":16.789915966386555,"frame_rate_array":[9,16,18,16,17,19,20,18,17,16,18,17,16,16,18,17,16,17,17,17,17,16,18,17,17,17,16,18,16,16,18,17,17,17,17,17,17,17,17,17,17,17,17,17,16,16,18,17,16,16,18,17,16,16,18,17,16,17,17,17,17,17,17,17,16,17,16,17,16,16,18,17,16,17,17,17,16,17,17,17,16,17,17,16,17,17,17,17,16,16,18,17,16,16,18,17,16,17,16,17,16,16,18,17,16,17,16,18,16,17,16,17,17,17,18,16,17,16,18],"number_of_frames":119,"aperture_center_x":896,"aperture_center_y":560,"fixation_cross":true,"fixation_cross_width":15,"fixation_cross_height":15,"fixation_cross_color":"#111","fixation_cross_thickness":1,"border":true,"border_thickness":2,"border_color":"transparent","canvas_width":1792,"canvas_height":1120,"trial_type":"rdk","trial_index":39,"plugin_version":"2.0.0","time_elapsed":144047,"phase":"practice","target_direction":133,"distractor_direction":40},{"rt":9326,"stimulus":"\n        <div class=\"response-container\">\n          <div class=\"response-instruction\">\n            <p>rotate the bar by using the left and right arrow keys.</p>\n            <p>when you are determined, press the Enter key.</p>\n          </div>\n          <div class=\"response-circle\">\n            <div class=\"response-fixation\"></div>\n            <div id=\"bar\" class=\"rotating-bar\"></div>\n          </div>\n        </div>\n      ","response":"Enter","trial_type":"html-keyboard-response","trial_index":40,"plugin_version":"2.1.0","time_elapsed":153373,"random_initial_angle":164,"response_angle_css":-38,"response_angle_rdk":128,"angular_error_target":-5,"angular_error_distractor":88,"target_direction":133,"target_group":"black","reward_points":9},{"rt":null,"stimulus":"\n          <p style=\"color: #00FF00;\">Your reward: 9 points</p>\n        ","response":null,"trial_type":"html-keyboard-response","trial_index":41,"plugin_version":"2.1.0","time_elapsed":155375},{"rt":null,"stimulus":"<div class=\"fixation\" style=\"font-size: 60px;\">+</div>","response":null,"trial_type":"html-keyboard-response","trial_index":42,"plugin_version":"2.1.0","time_elapsed":156377},{"target_group":"black","target_index":1,"condition_label":"practice","rt":-1,"response":"","correct":false,"choices":"ALL_KEYS","correct_choice":["a"],"trial_duration":2000,"flip_timestamps":[],"response_ends_trial":false,"number_of_apertures":2,"number_of_dots":[68,100],"number_of_sets":1,"coherent_direction":[145,2],"coherence":1,"opposite_coherence":0,"dot_radius":2,"dot_side_length":1,"dot_life":-1,"move_distance":1,"aperture_width":300,"aperture_height":300,"dot_color":["white","black"],"dot_shape":"circle","background_color":"#AAA","RDK_type":3,"aperture_type":2,"reinsert_type":2,"frame_rate":16.781512605042018,"frame_rate_array":[13,17,16,17,21,19,18,18,16,17,17,16,17,18,17,17,16,18,17,16,16,17,17,17,16,18,16,16,17,17,17,17,16,18,16,17,16,17,17,16,16,18,17,16,16,17,17,16,16,18,17,16,16,18,16,16,16,18,17,16,17,18,16,17,16,17,17,17,16,17,16,18,16,18,17,17,16,18,17,16,17,17,17,16,17,17,16,17,16,18,16,16,16,18,17,16,16,18,17,16,16,18,16,16,16,18,16,17,16,17,17,17,16,18,17,16,17,17,17],"number_of_frames":119,"aperture_center_x":896,"aperture_center_y":560,"fixation_cross":true,"fixation_cross_width":15,"fixation_cross_height":15,"fixation_cross_color":"#111","fixation_cross_thickness":1,"border":true,"border_thickness":2,"border_color":"transparent","canvas_width":1792,"canvas_height":1120,"trial_type":"rdk","trial_index":43,"plugin_version":"2.0.0","time_elapsed":158380,"phase":"practice","target_direction":2,"distractor_direction":145},{"rt":5131,"stimulus":"\n        <div class=\"response-container\">\n          <div class=\"response-instruction\">\n            <p>rotate the bar by using the left and right arrow keys.</p>\n            <p>when you are determined, press the Enter key.</p>\n          </div>\n          <div class=\"response-circle\">\n            <div class=\"response-fixation\"></div>\n            <div id=\"bar\" class=\"rotating-bar\"></div>\n          </div>\n        </div>\n      ","response":"Enter","trial_type":"html-keyboard-response","trial_index":44,"plugin_version":"2.1.0","time_elapsed":163512,"random_initial_angle":149,"response_angle_css":98,"response_angle_rdk":352,"angular_error_target":-10,"angular_error_distractor":-153,"target_direction":2,"target_group":"black","reward_points":8},{"rt":null,"stimulus":"\n          <p style=\"color: #00FF00;\">Your reward: 8 points</p>\n        ","response":null,"trial_type":"html-keyboard-response","trial_index":45,"plugin_version":"2.1.0","time_elapsed":165513},{"rt":null,"stimulus":"<div class=\"fixation\" style=\"font-size: 60px;\">+</div>","response":null,"trial_type":"html-keyboard-response","trial_index":46,"plugin_version":"2.1.0","time_elapsed":166516},{"target_group":"white","target_index":0,"condition_label":"practice","rt":-1,"response":"","correct":false,"choices":"ALL_KEYS","correct_choice":["a"],"trial_duration":2000,"flip_timestamps":[],"response_ends_trial":false,"number_of_apertures":2,"number_of_dots":[100,74],"number_of_sets":1,"coherent_direction":[138,251],"coherence":1,"opposite_coherence":0,"dot_radius":2,"dot_side_length":1,"dot_life":-1,"move_distance":1,"aperture_width":300,"aperture_height":300,"dot_color":["white","black"],"dot_shape":"circle","background_color":"#AAA","RDK_type":3,"aperture_type":2,"reinsert_type":2,"frame_rate":16.88235294117647,"frame_rate_array":[21,16,16,18,20,19,18,18,17,17,17,17,17,17,17,17,17,16,17,17,17,16,17,17,16,17,17,17,17,16,17,17,17,17,17,17,17,16,18,17,16,16,17,17,16,17,17,17,17,16,17,17,17,16,16,18,16,16,17,17,17,17,17,17,16,17,17,17,17,16,18,17,16,17,17,17,17,16,17,17,17,17,17,17,17,16,16,18,17,17,17,16,17,17,17,16,16,17,16,18,16,17,17,17,16,16,17,17,17,16,17,17,17,16,17,17,17,16,17],"number_of_frames":119,"aperture_center_x":896,"aperture_center_y":560,"fixation_cross":true,"fixation_cross_width":15,"fixation_cross_height":15,"fixation_cross_color":"#111","fixation_cross_thickness":1,"border":true,"border_thickness":2,"border_color":"transparent","canvas_width":1792,"canvas_height":1120,"trial_type":"rdk","trial_index":47,"plugin_version":"2.0.0","time_elapsed":168519,"phase":"practice","target_direction":138,"distractor_direction":251},{"rt":5246,"stimulus":"\n        <div class=\"response-container\">\n          <div class=\"response-instruction\">\n            <p>rotate the bar by using the left and right arrow keys.</p>\n            <p>when you are determined, press the Enter key.</p>\n          </div>\n          <div class=\"response-circle\">\n            <div class=\"response-fixation\"></div>\n            <div id=\"bar\" class=\"rotating-bar\"></div>\n          </div>\n        </div>\n      ","response":"Enter","trial_type":"html-keyboard-response","trial_index":48,"plugin_version":"2.1.0","time_elapsed":173765,"random_initial_angle":109,"response_angle_css":194,"response_angle_rdk":256,"angular_error_target":118,"angular_error_distractor":5,"target_direction":138,"target_group":"white","reward_points":0},{"rt":null,"stimulus":"\n          <p style=\"color: #FF3333;\">Your reward: 0 points</p>\n        ","response":null,"trial_type":"html-keyboard-response","trial_index":49,"plugin_version":"2.1.0","time_elapsed":175767},{"rt":null,"stimulus":"<div class=\"fixation\" style=\"font-size: 60px;\">+</div>","response":null,"trial_type":"html-keyboard-response","trial_index":50,"plugin_version":"2.1.0","time_elapsed":176769},{"target_group":"white","target_index":0,"condition_label":"practice","rt":-1,"response":"","correct":false,"choices":"ALL_KEYS","correct_choice":["a"],"trial_duration":2000,"flip_timestamps":[],"response_ends_trial":false,"number_of_apertures":2,"number_of_dots":[100,68],"number_of_sets":1,"coherent_direction":[190,47],"coherence":1,"opposite_coherence":0,"dot_radius":2,"dot_side_length":1,"dot_life":-1,"move_distance":1,"aperture_width":300,"aperture_height":300,"dot_color":["white","black"],"dot_shape":"circle","background_color":"#AAA","RDK_type":3,"aperture_type":2,"reinsert_type":2,"frame_rate":16.873949579831933,"frame_rate_array":[21,16,17,17,16,20,21,18,17,16,18,17,16,16,18,17,16,17,16,17,16,17,17,17,17,17,17,16,16,18,17,16,17,17,17,16,16,16,18,16,17,17,17,17,16,17,17,16,16,18,16,17,17,17,17,17,16,17,17,17,16,17,17,17,17,16,17,18,17,16,17,17,16,17,17,17,16,17,17,17,16,17,17,17,17,17,16,17,16,17,17,17,17,17,17,17,16,17,17,17,16,17,17,16,17,17,17,17,16,17,17,17,17,17,17,17,16,17,17],"number_of_frames":119,"aperture_center_x":896,"aperture_center_y":560,"fixation_cross":true,"fixation_cross_width":15,"fixation_cross_height":15,"fixation_cross_color":"#111","fixation_cross_thickness":1,"border":true,"border_thickness":2,"border_color":"transparent","canvas_width":1792,"canvas_height":1120,"trial_type":"rdk","trial_index":51,"plugin_version":"2.0.0","time_elapsed":178770,"phase":"practice","target_direction":190,"distractor_direction":47},{"rt":3515,"stimulus":"\n        <div class=\"response-container\">\n          <div class=\"response-instruction\">\n            <p>rotate the bar by using the left and right arrow keys.</p>\n            <p>when you are determined, press the Enter key.</p>\n          </div>\n          <div class=\"response-circle\">\n            <div class=\"response-fixation\"></div>\n            <div id=\"bar\" class=\"rotating-bar\"></div>\n          </div>\n        </div>\n      ","response":"Enter","trial_type":"html-keyboard-response","trial_index":52,"plugin_version":"2.1.0","time_elapsed":182285,"random_initial_angle":206,"response_angle_css":223,"response_angle_rdk":227,"angular_error_target":37,"angular_error_distractor":180,"target_direction":190,"target_group":"white","reward_points":2},{"rt":null,"stimulus":"\n          <p style=\"color: #FF3333;\">Your reward: 2 points</p>\n        ","response":null,"trial_type":"html-keyboard-response","trial_index":53,"plugin_version":"2.1.0","time_elapsed":184287},{"rt":null,"stimulus":"<div class=\"fixation\" style=\"font-size: 60px;\">+</div>","response":null,"trial_type":"html-keyboard-response","trial_index":54,"plugin_version":"2.1.0","time_elapsed":185289},{"target_group":"white","target_index":0,"condition_label":"practice","rt":-1,"response":"","correct":false,"choices":"ALL_KEYS","correct_choice":["a"],"trial_duration":2000,"flip_timestamps":[],"response_ends_trial":false,"number_of_apertures":2,"number_of_dots":[100,93],"number_of_sets":1,"coherent_direction":[33,127],"coherence":1,"opposite_coherence":0,"dot_radius":2,"dot_side_length":1,"dot_life":-1,"move_distance":1,"aperture_width":300,"aperture_height":300,"dot_color":["white","black"],"dot_shape":"circle","background_color":"#AAA","RDK_type":3,"aperture_type":2,"reinsert_type":2,"frame_rate":16.907563025210084,"frame_rate_array":[22,16,17,17,19,20,17,18,17,17,17,17,16,18,16,17,16,18,16,17,16,17,16,16,16,18,16,17,16,18,16,18,16,17,17,17,16,18,17,17,16,17,17,17,17,17,17,17,16,18,16,17,16,18,17,16,18,17,16,17,16,18,17,17,17,17,17,17,17,16,17,16,17,17,17,17,17,17,16,17,16,18,17,17,16,17,18,16,17,17,17,16,16,18,17,16,17,17,16,16,17,17,17,17,16,18,17,16,16,18,16,17,16,16,18,17,16,17,18],"number_of_frames":119,"aperture_center_x":896,"aperture_center_y":560,"fixation_cross":true,"fixation_cross_width":15,"fixation_cross_height":15,"fixation_cross_color":"#111","fixation_cross_thickness":1,"border":true,"border_thickness":2,"border_color":"transparent","canvas_width":1792,"canvas_height":1120,"trial_type":"rdk","trial_index":55,"plugin_version":"2.0.0","time_elapsed":187290,"phase":"practice","target_direction":33,"distractor_direction":127},{"rt":3712,"stimulus":"\n        <div class=\"response-container\">\n          <div class=\"response-instruction\">\n            <p>rotate the bar by using the left and right arrow keys.</p>\n            <p>when you are determined, press the Enter key.</p>\n          </div>\n          <div class=\"response-circle\">\n            <div class=\"response-fixation\"></div>\n            <div id=\"bar\" class=\"rotating-bar\"></div>\n          </div>\n        </div>\n      ","response":"Enter","trial_type":"html-keyboard-response","trial_index":56,"plugin_version":"2.1.0","time_elapsed":191002,"random_initial_angle":350,"response_angle_css":328,"response_angle_rdk":122,"angular_error_target":89,"angular_error_distractor":-5,"target_direction":33,"target_group":"white","reward_points":0},{"rt":null,"stimulus":"\n          <p style=\"color: #FF3333;\">Your reward: 0 points</p>\n        ","response":null,"trial_type":"html-keyboard-response","trial_index":57,"plugin_version":"2.1.0","time_elapsed":193004},{"rt":null,"stimulus":"<div class=\"fixation\" style=\"font-size: 60px;\">+</div>","response":null,"trial_type":"html-keyboard-response","trial_index":58,"plugin_version":"2.1.0","time_elapsed":194006},{"target_group":"white","target_index":0,"condition_label":"practice","rt":-1,"response":"","correct":false,"choices":"ALL_KEYS","correct_choice":["a"],"trial_duration":2000,"flip_timestamps":[],"response_ends_trial":false,"number_of_apertures":2,"number_of_dots":[100,56],"number_of_sets":1,"coherent_direction":[15,165],"coherence":1,"opposite_coherence":0,"dot_radius":2,"dot_side_length":1,"dot_life":-1,"move_distance":1,"aperture_width":300,"aperture_height":300,"dot_color":["white","black"],"dot_shape":"circle","background_color":"#AAA","RDK_type":3,"aperture_type":2,"reinsert_type":2,"frame_rate":16.81512605042017,"frame_rate_array":[11,17,16,17,19,20,18,17,17,16,18,17,16,16,18,16,18,16,17,17,16,16,17,17,17,16,18,16,17,16,18,16,17,16,17,18,16,16,17,17,17,16,18,16,18,16,18,17,17,16,17,17,17,16,17,16,17,17,17,16,17,16,17,17,16,16,18,17,17,16,18,17,17,16,18,17,17,16,18,17,17,16,18,16,17,16,18,17,16,16,18,16,17,16,18,16,17,16,18,16,17,16,17,18,16,16,17,17,17,16,18,16,18,16,18,17,17,16,18],"number_of_frames":119,"aperture_center_x":896,"aperture_center_y":560,"fixation_cross":true,"fixation_cross_width":15,"fixation_cross_height":15,"fixation_cross_color":"#111","fixation_cross_thickness":1,"border":true,"border_thickness":2,"border_color":"transparent","canvas_width":1792,"canvas_height":1120,"trial_type":"rdk","trial_index":59,"plugin_version":"2.0.0","time_elapsed":196008,"phase":"practice","target_direction":15,"distractor_direction":165},{"rt":2911,"stimulus":"\n        <div class=\"response-container\">\n          <div class=\"response-instruction\">\n            <p>rotate the bar by using the left and right arrow keys.</p>\n            <p>when you are determined, press the Enter key.</p>\n          </div>\n          <div class=\"response-circle\">\n            <div class=\"response-fixation\"></div>\n            <div id=\"bar\" class=\"rotating-bar\"></div>\n          </div>\n        </div>\n      ","response":"Enter","trial_type":"html-keyboard-response","trial_index":60,"plugin_version":"2.1.0","time_elapsed":198920,"random_initial_angle":85,"response_angle_css":67,"response_angle_rdk":23,"angular_error_target":8,"angular_error_distractor":-142,"target_direction":15,"target_group":"white","reward_points":8},{"rt":null,"stimulus":"\n          <p style=\"color: #00FF00;\">Your reward: 8 points</p>\n        ","response":null,"trial_type":"html-keyboard-response","trial_index":61,"plugin_version":"2.1.0","time_elapsed":200922},{"rt":null,"stimulus":"<div class=\"fixation\" style=\"font-size: 60px;\">+</div>","response":null,"trial_type":"html-keyboard-response","trial_index":62,"plugin_version":"2.1.0","time_elapsed":201924},{"target_group":"white","target_index":0,"condition_label":"practice","rt":-1,"response":"","correct":false,"choices":"ALL_KEYS","correct_choice":["a"],"trial_duration":2000,"flip_timestamps":[],"response_ends_trial":false,"number_of_apertures":2,"number_of_dots":[100,57],"number_of_sets":1,"coherent_direction":[213,337],"coherence":1,"opposite_coherence":0,"dot_radius":2,"dot_side_length":1,"dot_life":-1,"move_distance":1,"aperture_width":300,"aperture_height":300,"dot_color":["white","black"],"dot_shape":"circle","background_color":"#AAA","RDK_type":3,"aperture_type":2,"reinsert_type":2,"frame_rate":16.84873949579832,"frame_rate_array":[18,17,16,18,19,20,17,18,17,16,18,17,16,18,17,17,16,16,18,17,16,17,17,17,17,17,17,16,17,17,16,17,16,17,17,17,17,16,18,16,17,17,17,17,16,17,17,17,16,18,15,18,17,16,17,16,17,17,17,17,17,16,17,17,16,17,16,18,16,16,18,17,16,17,17,17,16,17,17,17,17,17,16,17,16,17,17,17,17,17,17,16,16,17,17,17,16,17,17,17,16,16,18,17,16,17,17,17,16,18,16,17,16,17,17,17,16,17,17],"number_of_frames":119,"aperture_center_x":896,"aperture_center_y":560,"fixation_cross":true,"fixation_cross_width":15,"fixation_cross_height":15,"fixation_cross_color":"#111","fixation_cross_thickness":1,"border":true,"border_thickness":2,"border_color":"transparent","canvas_width":1792,"canvas_height":1120,"trial_type":"rdk","trial_index":63,"plugin_version":"2.0.0","time_elapsed":203927,"phase":"practice","target_direction":213,"distractor_direction":337},{"rt":3360,"stimulus":"\n        <div class=\"response-container\">\n          <div class=\"response-instruction\">\n            <p>rotate the bar by using the left and right arrow keys.</p>\n            <p>when you are determined, press the Enter key.</p>\n          </div>\n          <div class=\"response-circle\">\n            <div class=\"response-fixation\"></div>\n            <div id=\"bar\" class=\"rotating-bar\"></div>\n          </div>\n        </div>\n      ","response":"Enter","trial_type":"html-keyboard-response","trial_index":64,"plugin_version":"2.1.0","time_elapsed":207287,"random_initial_angle":345,"response_angle_css":245,"response_angle_rdk":205,"angular_error_target":-8,"angular_error_distractor":-132,"target_direction":213,"target_group":"white","reward_points":8},{"rt":null,"stimulus":"\n          <p style=\"color: #00FF00;\">Your reward: 8 points</p>\n        ","response":null,"trial_type":"html-keyboard-response","trial_index":65,"plugin_version":"2.1.0","time_elapsed":209289},{"rt":6119,"stimulus":"\n        <div class=\"instructions-container\">\n          <h2>End of Practice</h2>\n          <p>You have completed the practice trials.</p>\n          <p>Press <strong>Enter</strong> key to begin the main experiment.</p>\n        </div>\n      ","response":"Enter","trial_type":"html-keyboard-response","trial_index":66,"plugin_version":"2.1.0","time_elapsed":215409},{"rt":null,"stimulus":"<div class=\"fixation\" style=\"font-size: 60px;\">+</div>","response":null,"trial_type":"html-keyboard-response","trial_index":67,"plugin_version":"2.1.0","time_elapsed":216411},{"phase":"learning-awareness","target_group":"white","condition_label":"W_H_vs_B_L_rep4","target_direction":162,"distractor_direction":63,"session_rotation":153,"rt":-1,"response":"","correct":false,"choices":"ALL_KEYS","correct_choice":["a"],"trial_duration":2000,"flip_timestamps":[],"response_ends_trial":false,"number_of_apertures":200,"number_of_dots":[1,1,1,1,1,1,1,1,1,1,1,1,1,1,1,1,1,1,1,1,1,1,1,1,1,1,1,1,1,1,1,1,1,1,1,1,1,1,1,1,1,1,1,1,1,1,1,1,1,1,1,1,1,1,1,1,1,1,1,1,1,1,1,1,1,1,1,1,1,1,1,1,1,1,1,1,1,1,1,1,1,1,1,1,1,1,1,1,1,1,1,1,1,1,1,1,1,1,1,1,1,1,1,1,1,1,1,1,1,1,1,1,1,1,1,1,1,1,1,1,1,1,1,1,1,1,1,1,1,1,1,1,1,1,1,1,1,1,1,1,1,1,1,1,1,1,1,1,1,1,1,1,1,1,1,1,1,1,1,1,1,1,1,1,1,1,1,1,1,1,1,1,1,1,1,1,1,1,1,1,1,1,1,1,1,1,1,1,1,1,1,1,1,1,1,1,1,1,1,1],"number_of_sets":1,"coherent_direction":[63,63,63,162,63,162,63,162,162,63,162,162,63,63,63,63,162,162,63,162,162,63,162,63,162,63,162,63,162,162,63,162,63,162,63,162,63,162,63,162,162,162,63,162,162,63,63,162,63,63,63,63,162,162,63,162,63,162,63,63,162,162,63,63,63,63,162,63,63,162,162,63,63,63,162,63,162,63,162,162,162,63,63,63,162,63,63,162,63,63,63,63,162,162,63,63,63,63,162,162,63,63,162,162,63,162,63,162,63,162,63,63,162,162,162,162,63,162,63,63,63,63,162,162,63,162,162,162,63,162,162,162,63,63,63,63,162,63,162,162,162,162,162,162,162,162,63,63,63,63,162,162,162,63,162,63,162,63,162,162,162,63,162,63,162,63,162,162,162,162,63,162,63,162,63,162,63,63,63,63,162,162,162,63,162,162,162,63,162,63,63,162,162,162,63,63,63,63,162,63],"coherence":1,"opposite_coherence":0,"dot_radius":2,"dot_side_length":1,"dot_life":-1,"move_distance":1,"aperture_width":300,"aperture_height":300,"dot_color":["black","black","black","white","black","white","black","white","white","black","white","white","black","black","black","black","white","white","black","white","white","black","white","black","white","black","white","black","white","white","black","white","black","white","black","white","black","white","black","white","white","white","black","white","white","black","black","white","black","black","black","black","white","white","black","white","black","white","black","black","white","white","black","black","black","black","white","black","black","white","white","black","black","black","white","black","white","black","white","white","white","black","black","black","white","black","black","white","black","black","black","black","white","white","black","black","black","black","white","white","black","black","white","white","black","white","black","white","black","white","black","black","white","white","white","white","black","white","black","black","black","black","white","white","black","white","white","white","black","white","white","white","black","black","black","black","white","black","white","white","white","white","white","white","white","white","black","black","black","black","white","white","white","black","white","black","white","black","white","white","white","black","white","black","white","black","white","white","white","white","black","white","black","white","black","white","black","black","black","black","white","white","white","black","white","white","white","black","white","black","black","white","white","white","black","black","black","black","white","black"],"dot_shape":"circle","background_color":"#AAA","RDK_type":3,"aperture_type":2,"reinsert_type":2,"frame_rate":16.873949579831933,"frame_rate_array":[20,16,17,16,18,20,19,18,17,18,17,17,16,18,17,16,17,17,17,17,17,17,16,16,16,17,17,16,16,18,17,16,17,17,17,16,18,17,17,17,17,17,16,17,17,16,18,16,17,17,17,17,17,17,17,17,16,18,17,16,17,17,17,16,17,17,16,17,17,17,17,16,16,18,17,16,18,16,17,16,17,17,17,16,17,16,18,16,17,17,17,16,17,17,17,16,16,18,18,15,18,17,16,16,18,17,16,16,17,17,16,16,17,17,17,17,17,17,16],"number_of_frames":119,"aperture_center_x":896,"aperture_center_y":560,"fixation_cross":true,"fixation_cross_width":15,"fixation_cross_height":15,"fixation_cross_color":"#111","fixation_cross_thickness":1,"border":true,"border_thickness":2,"border_color":"transparent","canvas_width":1792,"canvas_height":1120,"trial_type":"rdk","trial_index":68,"plugin_version":"2.0.0","time_elapsed":218414},{"rt":4275,"stimulus":"\n        <div class=\"response-container\">\n          <div class=\"response-instruction\">\n            <p>rotate the bar by using the left and right arrow keys.</p>\n            <p>when you are determined, press the Enter key.</p>\n          </div>\n          <div class=\"response-circle\">\n            <div class=\"response-fixation\"></div>\n            <div id=\"bar\" class=\"rotating-bar\"></div>\n          </div>\n        </div>\n      ","response":"Enter","trial_type":"html-keyboard-response","trial_index":69,"plugin_version":"2.1.0","time_elapsed":222690,"random_initial_angle":140,"response_angle_css":43,"response_angle_rdk":47,"angular_error_target":-115,"angular_error_distractor":-16,"target_direction":162,"target_group":"white","reward_points":0},{"rt":null,"stimulus":"\n          <p style=\"color: #FF3333;\">Your reward: 0 points</p>\n        ","response":null,"trial_type":"html-keyboard-response","trial_index":70,"plugin_version":"2.1.0","time_elapsed":224692},{"rt":null,"stimulus":"<div class=\"fixation\" style=\"font-size: 60px;\">+</div>","response":null,"trial_type":"html-keyboard-response","trial_index":71,"plugin_version":"2.1.0","time_elapsed":225694},{"phase":"learning-awareness","target_group":"black","condition_label":"B_H_vs_W_L_rep16","target_direction":247,"distractor_direction":341,"session_rotation":153,"rt":-1,"response":"","correct":false,"choices":"ALL_KEYS","correct_choice":["a"],"trial_duration":2000,"flip_timestamps":[],"response_ends_trial":false,"number_of_apertures":200,"number_of_dots":[1,1,1,1,1,1,1,1,1,1,1,1,1,1,1,1,1,1,1,1,1,1,1,1,1,1,1,1,1,1,1,1,1,1,1,1,1,1,1,1,1,1,1,1,1,1,1,1,1,1,1,1,1,1,1,1,1,1,1,1,1,1,1,1,1,1,1,1,1,1,1,1,1,1,1,1,1,1,1,1,1,1,1,1,1,1,1,1,1,1,1,1,1,1,1,1,1,1,1,1,1,1,1,1,1,1,1,1,1,1,1,1,1,1,1,1,1,1,1,1,1,1,1,1,1,1,1,1,1,1,1,1,1,1,1,1,1,1,1,1,1,1,1,1,1,1,1,1,1,1,1,1,1,1,1,1,1,1,1,1,1,1,1,1,1,1,1,1,1,1,1,1,1,1,1,1,1,1,1,1,1,1,1,1,1,1,1,1,1,1,1,1,1,1,1,1,1,1,1,1],"number_of_sets":1,"coherent_direction":[247,341,341,341,247,341,247,341,247,247,341,341,341,341,247,341,247,247,247,247,341,341,247,247,341,341,247,341,341,247,247,247,341,341,341,247,341,341,341,247,341,247,341,341,341,247,341,341,341,247,341,247,341,341,341,247,247,341,247,247,341,247,247,247,341,247,341,341,341,247,247,247,341,341,247,247,341,247,247,341,341,247,247,247,341,247,247,341,341,247,341,341,341,247,247,247,247,341,247,247,247,341,247,341,247,247,341,341,247,341,341,247,341,341,341,341,341,247,247,247,247,247,247,247,341,247,341,247,341,341,341,341,247,341,341,341,247,247,247,247,341,247,247,341,341,247,341,341,341,341,247,247,341,341,247,341,341,247,247,247,247,341,341,247,247,247,341,341,341,247,341,341,247,341,341,247,341,247,247,247,341,341,247,247,341,247,341,341,247,341,247,247,247,341,247,247,247,341,247,247],"coherence":1,"opposite_coherence":0,"dot_radius":2,"dot_side_length":1,"dot_life":-1,"move_distance":1,"aperture_width":300,"aperture_height":300,"dot_color":["black","white","white","white","black","white","black","white","black","black","white","white","white","white","black","white","black","black","black","black","white","white","black","black","white","white","black","white","white","black","black","black","white","white","white","black","white","white","white","black","white","black","white","white","white","black","white","white","white","black","white","black","white","white","white","black","black","white","black","black","white","black","black","black","white","black","white","white","white","black","black","black","white","white","black","black","white","black","black","white","white","black","black","black","white","black","black","white","white","black","white","white","white","black","black","black","black","white","black","black","black","white","black","white","black","black","white","white","black","white","white","black","white","white","white","white","white","black","black","black","black","black","black","black","white","black","white","black","white","white","white","white","black","white","white","white","black","black","black","black","white","black","black","white","white","black","white","white","white","white","black","black","white","white","black","white","white","black","black","black","black","white","white","black","black","black","white","white","white","black","white","white","black","white","white","black","white","black","black","black","white","white","black","black","white","black","white","white","black","white","black","black","black","white","black","black","black","white","black","black"],"dot_shape":"circle","background_color":"#AAA","RDK_type":3,"aperture_type":2,"reinsert_type":2,"frame_rate":16.747899159663866,"frame_rate_array":[12,16,17,19,19,18,17,16,17,17,17,16,17,17,15,17,18,16,16,18,16,17,16,18,17,17,17,17,17,16,17,17,17,17,16,17,17,17,16,18,17,17,15,17,17,17,16,17,17,17,17,16,17,17,16,17,17,16,16,17,17,17,17,17,16,18,16,18,16,17,16,18,16,17,16,18,16,17,16,17,17,17,16,17,17,17,16,17,17,16,17,17,17,17,16,17,17,15,17,17,17,17,16,17,17,17,16,18,16,17,16,17,17,17,16,17,17,17,16],"number_of_frames":119,"aperture_center_x":896,"aperture_center_y":560,"fixation_cross":true,"fixation_cross_width":15,"fixation_cross_height":15,"fixation_cross_color":"#111","fixation_cross_thickness":1,"border":true,"border_thickness":2,"border_color":"transparent","canvas_width":1792,"canvas_height":1120,"trial_type":"rdk","trial_index":72,"plugin_version":"2.0.0","time_elapsed":227698},{"rt":3757,"stimulus":"\n        <div class=\"response-container\">\n          <div class=\"response-instruction\">\n            <p>rotate the bar by using the left and right arrow keys.</p>\n            <p>when you are determined, press the Enter key.</p>\n          </div>\n          <div class=\"response-circle\">\n            <div class=\"response-fixation\"></div>\n            <div id=\"bar\" class=\"rotating-bar\"></div>\n          </div>\n        </div>\n      ","response":"Enter","trial_type":"html-keyboard-response","trial_index":73,"plugin_version":"2.1.0","time_elapsed":231455,"random_initial_angle":111,"response_angle_css":60,"response_angle_rdk":30,"angular_error_target":143,"angular_error_distractor":49,"target_direction":247,"target_group":"black","reward_points":0},{"rt":null,"stimulus":"\n          <p style=\"color: #FF3333;\">Your reward: 0 points</p>\n        ","response":null,"trial_type":"html-keyboard-response","trial_index":74,"plugin_version":"2.1.0","time_elapsed":233457},{"rt":null,"stimulus":"<div class=\"fixation\" style=\"font-size: 60px;\">+</div>","response":null,"trial_type":"html-keyboard-response","trial_index":75,"plugin_version":"2.1.0","time_elapsed":234459},{"phase":"learning-awareness","target_group":"white","condition_label":"W_H_vs_B_L_rep1","target_direction":197,"distractor_direction":76,"session_rotation":153,"rt":-1,"response":"","correct":false,"choices":"ALL_KEYS","correct_choice":["a"],"trial_duration":2000,"flip_timestamps":[],"response_ends_trial":false,"number_of_apertures":200,"number_of_dots":[1,1,1,1,1,1,1,1,1,1,1,1,1,1,1,1,1,1,1,1,1,1,1,1,1,1,1,1,1,1,1,1,1,1,1,1,1,1,1,1,1,1,1,1,1,1,1,1,1,1,1,1,1,1,1,1,1,1,1,1,1,1,1,1,1,1,1,1,1,1,1,1,1,1,1,1,1,1,1,1,1,1,1,1,1,1,1,1,1,1,1,1,1,1,1,1,1,1,1,1,1,1,1,1,1,1,1,1,1,1,1,1,1,1,1,1,1,1,1,1,1,1,1,1,1,1,1,1,1,1,1,1,1,1,1,1,1,1,1,1,1,1,1,1,1,1,1,1,1,1,1,1,1,1,1,1,1,1,1,1,1,1,1,1,1,1,1,1,1,1,1,1,1,1,1,1,1,1,1,1,1,1,1,1,1,1,1,1,1,1,1,1,1,1,1,1,1,1,1,1],"number_of_sets":1,"coherent_direction":[197,76,76,76,76,197,197,76,76,197,197,197,197,197,197,197,197,76,76,76,76,197,197,76,76,197,197,76,76,76,76,197,197,76,197,197,76,76,76,76,197,76,76,197,197,197,76,197,197,197,76,76,76,197,76,76,197,197,197,76,76,197,197,197,76,197,76,76,76,197,197,76,76,197,76,197,197,76,197,197,197,197,197,76,197,197,197,197,197,76,76,197,76,76,197,76,197,197,197,76,76,197,197,76,76,197,76,76,197,197,197,76,197,197,76,76,197,76,76,197,197,76,76,76,76,197,76,197,197,76,197,76,197,76,197,197,76,76,197,76,76,76,197,76,76,197,76,197,76,76,197,197,197,76,76,76,197,76,197,197,197,76,197,76,76,76,76,76,76,197,197,76,197,76,197,76,76,76,197,76,76,76,197,197,197,197,76,76,197,76,76,197,197,197,76,197,76,197,76,197],"coherence":1,"opposite_coherence":0,"dot_radius":2,"dot_side_length":1,"dot_life":-1,"move_distance":1,"aperture_width":300,"aperture_height":300,"dot_color":["white","black","black","black","black","white","white","black","black","white","white","white","white","white","white","white","white","black","black","black","black","white","white","black","black","white","white","black","black","black","black","white","white","black","white","white","black","black","black","black","white","black","black","white","white","white","black","white","white","white","black","black","black","white","black","black","white","white","white","black","black","white","white","white","black","white","black","black","black","white","white","black","black","white","black","white","white","black","white","white","white","white","white","black","white","white","white","white","white","black","black","white","black","black","white","black","white","white","white","black","black","white","white","black","black","white","black","black","white","white","white","black","white","white","black","black","white","black","black","white","white","black","black","black","black","white","black","white","white","black","white","black","white","black","white","white","black","black","white","black","black","black","white","black","black","white","black","white","black","black","white","white","white","black","black","black","white","black","white","white","white","black","white","black","black","black","black","black","black","white","white","black","white","black","white","black","black","black","white","black","black","black","white","white","white","white","black","black","white","black","black","white","white","white","black","white","black","white","black","white"],"dot_shape":"circle","background_color":"#AAA","RDK_type":3,"aperture_type":2,"reinsert_type":2,"frame_rate":16.823529411764707,"frame_rate_array":[23,17,17,17,21,19,18,16,18,17,17,17,17,16,17,17,17,16,18,16,17,16,17,17,16,17,17,16,18,16,16,18,17,16,17,17,16,17,17,16,16,16,18,16,17,17,17,16,16,16,17,17,16,16,18,17,16,17,17,17,16,16,17,17,16,17,17,16,17,17,17,16,17,16,18,17,16,17,17,17,16,16,18,17,16,17,16,16,18,16,17,17,16,16,17,17,16,17,17,17,16,17,17,17,16,16,17,17,17,17,17,16,17,17,17,17,17,17,15],"number_of_frames":119,"aperture_center_x":896,"aperture_center_y":560,"fixation_cross":true,"fixation_cross_width":15,"fixation_cross_height":15,"fixation_cross_color":"#111","fixation_cross_thickness":1,"border":true,"border_thickness":2,"border_color":"transparent","canvas_width":1792,"canvas_height":1120,"trial_type":"rdk","trial_index":76,"plugin_version":"2.0.0","time_elapsed":236461},{"rt":5020,"stimulus":"\n        <div class=\"response-container\">\n          <div class=\"response-instruction\">\n            <p>rotate the bar by using the left and right arrow keys.</p>\n            <p>when you are determined, press the Enter key.</p>\n          </div>\n          <div class=\"response-circle\">\n            <div class=\"response-fixation\"></div>\n            <div id=\"bar\" class=\"rotating-bar\"></div>\n          </div>\n        </div>\n      ","response":"Enter","trial_type":"html-keyboard-response","trial_index":77,"plugin_version":"2.1.0","time_elapsed":241481,"random_initial_angle":266,"response_angle_css":399,"response_angle_rdk":51,"angular_error_target":-146,"angular_error_distractor":-25,"target_direction":197,"target_group":"white","reward_points":0},{"rt":null,"stimulus":"\n          <p style=\"color: #FF3333;\">Your reward: 0 points</p>\n        ","response":null,"trial_type":"html-keyboard-response","trial_index":78,"plugin_version":"2.1.0","time_elapsed":243482},{"rt":null,"stimulus":"<div class=\"fixation\" style=\"font-size: 60px;\">+</div>","response":null,"trial_type":"html-keyboard-response","trial_index":79,"plugin_version":"2.1.0","time_elapsed":244482},{"phase":"learning-awareness","target_group":"black","condition_label":"B_H_vs_W_L_rep19","target_direction":246,"distractor_direction":5,"session_rotation":153,"rt":-1,"response":"","correct":false,"choices":"ALL_KEYS","correct_choice":["a"],"trial_duration":2000,"flip_timestamps":[],"response_ends_trial":false,"number_of_apertures":200,"number_of_dots":[1,1,1,1,1,1,1,1,1,1,1,1,1,1,1,1,1,1,1,1,1,1,1,1,1,1,1,1,1,1,1,1,1,1,1,1,1,1,1,1,1,1,1,1,1,1,1,1,1,1,1,1,1,1,1,1,1,1,1,1,1,1,1,1,1,1,1,1,1,1,1,1,1,1,1,1,1,1,1,1,1,1,1,1,1,1,1,1,1,1,1,1,1,1,1,1,1,1,1,1,1,1,1,1,1,1,1,1,1,1,1,1,1,1,1,1,1,1,1,1,1,1,1,1,1,1,1,1,1,1,1,1,1,1,1,1,1,1,1,1,1,1,1,1,1,1,1,1,1,1,1,1,1,1,1,1,1,1,1,1,1,1,1,1,1,1,1,1,1,1,1,1,1,1,1,1,1,1,1,1,1,1,1,1,1,1,1,1,1,1,1,1,1,1,1,1,1,1,1,1],"number_of_sets":1,"coherent_direction":[5,246,5,246,5,5,5,246,246,246,246,246,246,5,5,5,5,246,5,246,5,246,5,5,246,5,246,5,5,5,5,5,246,246,246,5,246,5,246,5,5,5,5,5,5,246,246,5,5,5,246,246,246,246,246,246,246,246,5,246,5,5,5,246,5,246,5,5,5,246,246,5,246,5,246,246,246,5,246,5,246,246,246,246,246,246,246,246,246,246,5,5,246,5,246,246,5,5,5,246,246,246,5,5,246,5,5,246,246,5,246,5,5,246,246,5,5,5,246,5,246,246,5,5,5,5,5,246,246,246,246,5,5,5,5,5,5,246,246,246,246,246,5,246,5,5,246,246,246,5,246,246,5,5,5,246,5,5,246,5,246,246,5,5,246,5,5,246,5,5,5,5,246,5,246,246,246,246,246,5,5,5,246,246,5,246,246,246,5,246,5,5,246,5,5,246,246,246,5,5],"coherence":1,"opposite_coherence":0,"dot_radius":2,"dot_side_length":1,"dot_life":-1,"move_distance":1,"aperture_width":300,"aperture_height":300,"dot_color":["white","black","white","black","white","white","white","black","black","black","black","black","black","white","white","white","white","black","white","black","white","black","white","white","black","white","black","white","white","white","white","white","black","black","black","white","black","white","black","white","white","white","white","white","white","black","black","white","white","white","black","black","black","black","black","black","black","black","white","black","white","white","white","black","white","black","white","white","white","black","black","white","black","white","black","black","black","white","black","white","black","black","black","black","black","black","black","black","black","black","white","white","black","white","black","black","white","white","white","black","black","black","white","white","black","white","white","black","black","white","black","white","white","black","black","white","white","white","black","white","black","black","white","white","white","white","white","black","black","black","black","white","white","white","white","white","white","black","black","black","black","black","white","black","white","white","black","black","black","white","black","black","white","white","white","black","white","white","black","white","black","black","white","white","black","white","white","black","white","white","white","white","black","white","black","black","black","black","black","white","white","white","black","black","white","black","black","black","white","black","white","white","black","white","white","black","black","black","white","white"],"dot_shape":"circle","background_color":"#AAA","RDK_type":3,"aperture_type":2,"reinsert_type":2,"frame_rate":16.873949579831933,"frame_rate_array":[23,17,16,20,19,17,17,18,16,17,17,17,17,17,17,17,16,18,17,17,18,17,17,16,16,17,16,16,17,17,17,17,16,17,17,17,16,17,17,17,16,17,17,16,17,17,16,17,17,16,16,17,17,17,17,17,17,17,17,17,16,16,18,17,16,18,17,17,16,17,17,16,16,17,17,17,16,17,17,17,16,17,17,17,15,18,17,15,17,17,17,17,16,17,17,17,16,18,17,17,17,17,17,17,16,17,17,16,17,17,17,17,17,17,16,16,16,17,17],"number_of_frames":119,"aperture_center_x":896,"aperture_center_y":560,"fixation_cross":true,"fixation_cross_width":15,"fixation_cross_height":15,"fixation_cross_color":"#111","fixation_cross_thickness":1,"border":true,"border_thickness":2,"border_color":"transparent","canvas_width":1792,"canvas_height":1120,"trial_type":"rdk","trial_index":80,"plugin_version":"2.0.0","time_elapsed":246485},{"rt":4230,"stimulus":"\n        <div class=\"response-container\">\n          <div class=\"response-instruction\">\n            <p>rotate the bar by using the left and right arrow keys.</p>\n            <p>when you are determined, press the Enter key.</p>\n          </div>\n          <div class=\"response-circle\">\n            <div class=\"response-fixation\"></div>\n            <div id=\"bar\" class=\"rotating-bar\"></div>\n          </div>\n        </div>\n      ","response":"Enter","trial_type":"html-keyboard-response","trial_index":81,"plugin_version":"2.1.0","time_elapsed":250715,"random_initial_angle":20,"response_angle_css":-151,"response_angle_rdk":241,"angular_error_target":-5,"angular_error_distractor":-124,"target_direction":246,"target_group":"black","reward_points":9},{"rt":null,"stimulus":"\n          <p style=\"color: #00FF00;\">Your reward: 9 points</p>\n        ","response":null,"trial_type":"html-keyboard-response","trial_index":82,"plugin_version":"2.1.0","time_elapsed":252716},{"rt":null,"stimulus":"<div class=\"fixation\" style=\"font-size: 60px;\">+</div>","response":null,"trial_type":"html-keyboard-response","trial_index":83,"plugin_version":"2.1.0","time_elapsed":253719},{"phase":"learning-awareness","target_group":"white","condition_label":"W_H_vs_B_L_rep5","target_direction":187,"distractor_direction":85,"session_rotation":153,"rt":-1,"response":"","correct":false,"choices":"ALL_KEYS","correct_choice":["a"],"trial_duration":2000,"flip_timestamps":[],"response_ends_trial":false,"number_of_apertures":200,"number_of_dots":[1,1,1,1,1,1,1,1,1,1,1,1,1,1,1,1,1,1,1,1,1,1,1,1,1,1,1,1,1,1,1,1,1,1,1,1,1,1,1,1,1,1,1,1,1,1,1,1,1,1,1,1,1,1,1,1,1,1,1,1,1,1,1,1,1,1,1,1,1,1,1,1,1,1,1,1,1,1,1,1,1,1,1,1,1,1,1,1,1,1,1,1,1,1,1,1,1,1,1,1,1,1,1,1,1,1,1,1,1,1,1,1,1,1,1,1,1,1,1,1,1,1,1,1,1,1,1,1,1,1,1,1,1,1,1,1,1,1,1,1,1,1,1,1,1,1,1,1,1,1,1,1,1,1,1,1,1,1,1,1,1,1,1,1,1,1,1,1,1,1,1,1,1,1,1,1,1,1,1,1,1,1,1,1,1,1,1,1,1,1,1,1,1,1,1,1,1,1,1,1],"number_of_sets":1,"coherent_direction":[187,187,85,187,85,187,187,85,85,85,85,187,187,85,187,187,85,85,85,85,85,187,85,187,85,85,187,85,85,187,85,187,187,187,85,85,85,85,85,85,187,187,85,187,85,85,85,187,187,187,187,85,85,85,85,187,187,85,187,187,85,187,187,187,85,187,187,187,187,85,187,187,187,187,85,85,187,85,85,85,85,85,187,187,187,187,187,187,187,187,187,187,85,187,187,85,85,187,85,85,85,187,85,187,187,85,85,187,187,187,85,187,85,85,85,85,187,85,85,187,85,85,187,85,187,187,187,85,85,85,85,85,187,85,187,85,187,187,187,187,85,85,187,85,187,187,85,85,85,85,85,187,85,85,187,85,187,85,85,85,187,187,187,85,85,187,187,187,85,187,187,85,85,187,85,187,187,187,187,187,187,85,85,187,187,85,187,85,85,187,187,85,85,187,187,85,187,85,85,85],"coherence":1,"opposite_coherence":0,"dot_radius":2,"dot_side_length":1,"dot_life":-1,"move_distance":1,"aperture_width":300,"aperture_height":300,"dot_color":["white","white","black","white","black","white","white","black","black","black","black","white","white","black","white","white","black","black","black","black","black","white","black","white","black","black","white","black","black","white","black","white","white","white","black","black","black","black","black","black","white","white","black","white","black","black","black","white","white","white","white","black","black","black","black","white","white","black","white","white","black","white","white","white","black","white","white","white","white","black","white","white","white","white","black","black","white","black","black","black","black","black","white","white","white","white","white","white","white","white","white","white","black","white","white","black","black","white","black","black","black","white","black","white","white","black","black","white","white","white","black","white","black","black","black","black","white","black","black","white","black","black","white","black","white","white","white","black","black","black","black","black","white","black","white","black","white","white","white","white","black","black","white","black","white","white","black","black","black","black","black","white","black","black","white","black","white","black","black","black","white","white","white","black","black","white","white","white","black","white","white","black","black","white","black","white","white","white","white","white","white","black","black","white","white","black","white","black","black","white","white","black","black","white","white","black","white","black","black","black"],"dot_shape":"circle","background_color":"#AAA","RDK_type":3,"aperture_type":2,"reinsert_type":2,"frame_rate":16.831932773109244,"frame_rate_array":[24,16,16,16,20,20,18,16,18,16,16,17,16,16,17,17,17,17,17,16,17,17,16,18,17,17,16,18,17,16,16,18,16,17,16,17,18,17,17,17,16,16,16,18,16,17,16,18,16,16,17,17,16,17,17,17,17,16,16,18,16,17,17,17,16,17,16,18,17,17,16,16,17,16,17,17,17,16,17,17,17,16,17,18,17,17,16,17,17,16,16,18,16,17,16,18,17,17,15,18,16,17,16,17,16,18,16,17,17,16,16,18,17,17,17,16,17,16,16],"number_of_frames":119,"aperture_center_x":896,"aperture_center_y":560,"fixation_cross":true,"fixation_cross_width":15,"fixation_cross_height":15,"fixation_cross_color":"#111","fixation_cross_thickness":1,"border":true,"border_thickness":2,"border_color":"transparent","canvas_width":1792,"canvas_height":1120,"trial_type":"rdk","trial_index":84,"plugin_version":"2.0.0","time_elapsed":255722},{"rt":5087,"stimulus":"\n        <div class=\"response-container\">\n          <div class=\"response-instruction\">\n            <p>rotate the bar by using the left and right arrow keys.</p>\n            <p>when you are determined, press the Enter key.</p>\n          </div>\n          <div class=\"response-circle\">\n            <div class=\"response-fixation\"></div>\n            <div id=\"bar\" class=\"rotating-bar\"></div>\n          </div>\n        </div>\n      ","response":"Enter","trial_type":"html-keyboard-response","trial_index":85,"plugin_version":"2.1.0","time_elapsed":260809,"random_initial_angle":102,"response_angle_css":9,"response_angle_rdk":81,"angular_error_target":-106,"angular_error_distractor":-4,"target_direction":187,"target_group":"white","reward_points":0},{"rt":null,"stimulus":"\n          <p style=\"color: #FF3333;\">Your reward: 0 points</p>\n        ","response":null,"trial_type":"html-keyboard-response","trial_index":86,"plugin_version":"2.1.0","time_elapsed":262811},{"rt":null,"stimulus":"<div class=\"fixation\" style=\"font-size: 60px;\">+</div>","response":null,"trial_type":"html-keyboard-response","trial_index":87,"plugin_version":"2.1.0","time_elapsed":263812},{"phase":"learning-awareness","target_group":"white","condition_label":"W_H_vs_B_L_rep15","target_direction":185,"distractor_direction":92,"session_rotation":153,"rt":-1,"response":"","correct":false,"choices":"ALL_KEYS","correct_choice":["a"],"trial_duration":2000,"flip_timestamps":[],"response_ends_trial":false,"number_of_apertures":200,"number_of_dots":[1,1,1,1,1,1,1,1,1,1,1,1,1,1,1,1,1,1,1,1,1,1,1,1,1,1,1,1,1,1,1,1,1,1,1,1,1,1,1,1,1,1,1,1,1,1,1,1,1,1,1,1,1,1,1,1,1,1,1,1,1,1,1,1,1,1,1,1,1,1,1,1,1,1,1,1,1,1,1,1,1,1,1,1,1,1,1,1,1,1,1,1,1,1,1,1,1,1,1,1,1,1,1,1,1,1,1,1,1,1,1,1,1,1,1,1,1,1,1,1,1,1,1,1,1,1,1,1,1,1,1,1,1,1,1,1,1,1,1,1,1,1,1,1,1,1,1,1,1,1,1,1,1,1,1,1,1,1,1,1,1,1,1,1,1,1,1,1,1,1,1,1,1,1,1,1,1,1,1,1,1,1,1,1,1,1,1,1,1,1,1,1,1,1,1,1,1,1,1,1],"number_of_sets":1,"coherent_direction":[185,92,92,92,92,185,185,92,185,185,185,92,92,185,185,92,92,185,185,92,185,185,92,92,185,92,92,185,92,185,185,92,185,185,185,92,185,92,92,185,92,92,92,185,92,185,92,92,185,185,92,185,185,185,92,92,92,92,185,185,185,92,185,92,185,185,92,185,92,92,92,92,185,185,185,185,185,185,185,185,92,92,92,92,92,92,185,92,185,92,92,185,185,185,92,92,92,185,92,92,92,92,92,92,185,92,185,92,185,92,185,92,92,185,185,185,185,185,185,185,92,185,185,185,185,92,185,185,185,185,92,185,92,92,185,92,185,185,92,92,185,92,92,92,185,92,185,92,92,92,92,92,92,92,185,185,185,185,92,92,185,185,185,185,92,92,92,92,185,185,92,185,185,185,92,92,92,185,92,92,185,185,92,185,92,185,185,185,92,92,92,185,185,92,185,92,185,92,92,185],"coherence":1,"opposite_coherence":0,"dot_radius":2,"dot_side_length":1,"dot_life":-1,"move_distance":1,"aperture_width":300,"aperture_height":300,"dot_color":["white","black","black","black","black","white","white","black","white","white","white","black","black","white","white","black","black","white","white","black","white","white","black","black","white","black","black","white","black","white","white","black","white","white","white","black","white","black","black","white","black","black","black","white","black","white","black","black","white","white","black","white","white","white","black","black","black","black","white","white","white","black","white","black","white","white","black","white","black","black","black","black","white","white","white","white","white","white","white","white","black","black","black","black","black","black","white","black","white","black","black","white","white","white","black","black","black","white","black","black","black","black","black","black","white","black","white","black","white","black","white","black","black","white","white","white","white","white","white","white","black","white","white","white","white","black","white","white","white","white","black","white","black","black","white","black","white","white","black","black","white","black","black","black","white","black","white","black","black","black","black","black","black","black","white","white","white","white","black","black","white","white","white","white","black","black","black","black","white","white","black","white","white","white","black","black","black","white","black","black","white","white","black","white","black","white","white","white","black","black","black","white","white","black","white","black","white","black","black","white"],"dot_shape":"circle","background_color":"#AAA","RDK_type":3,"aperture_type":2,"reinsert_type":2,"frame_rate":16.865546218487395,"frame_rate_array":[19,17,16,17,20,20,18,16,18,16,17,16,17,17,17,16,18,16,17,17,16,16,17,16,18,17,17,16,18,17,16,16,17,18,16,17,17,17,17,16,18,17,16,17,15,18,17,16,17,17,17,16,17,17,17,17,17,17,17,17,17,16,17,16,18,17,17,16,18,17,17,16,17,17,17,16,16,17,16,18,16,17,17,17,16,17,16,17,17,17,17,17,17,17,17,17,17,16,16,17,15,17,17,16,17,17,17,17,17,17,17,16,18,16,17,16,18,17,17],"number_of_frames":119,"aperture_center_x":896,"aperture_center_y":560,"fixation_cross":true,"fixation_cross_width":15,"fixation_cross_height":15,"fixation_cross_color":"#111","fixation_cross_thickness":1,"border":true,"border_thickness":2,"border_color":"transparent","canvas_width":1792,"canvas_height":1120,"trial_type":"rdk","trial_index":88,"plugin_version":"2.0.0","time_elapsed":265815},{"rt":4159,"stimulus":"\n        <div class=\"response-container\">\n          <div class=\"response-instruction\">\n            <p>rotate the bar by using the left and right arrow keys.</p>\n            <p>when you are determined, press the Enter key.</p>\n          </div>\n          <div class=\"response-circle\">\n            <div class=\"response-fixation\"></div>\n            <div id=\"bar\" class=\"rotating-bar\"></div>\n          </div>\n        </div>\n      ","response":"Enter","trial_type":"html-keyboard-response","trial_index":89,"plugin_version":"2.1.0","time_elapsed":269975,"random_initial_angle":269,"response_angle_css":382,"response_angle_rdk":68,"angular_error_target":-117,"angular_error_distractor":-24,"target_direction":185,"target_group":"white","reward_points":0},{"rt":null,"stimulus":"\n          <p style=\"color: #FF3333;\">Your reward: 0 points</p>\n        ","response":null,"trial_type":"html-keyboard-response","trial_index":90,"plugin_version":"2.1.0","time_elapsed":271977},{"rt":null,"stimulus":"<div class=\"fixation\" style=\"font-size: 60px;\">+</div>","response":null,"trial_type":"html-keyboard-response","trial_index":91,"plugin_version":"2.1.0","time_elapsed":272978},{"phase":"learning-awareness","target_group":"black","condition_label":"B_H_vs_W_L_rep24","target_direction":246,"distractor_direction":340,"session_rotation":153,"rt":-1,"response":"","correct":false,"choices":"ALL_KEYS","correct_choice":["a"],"trial_duration":2000,"flip_timestamps":[],"response_ends_trial":false,"number_of_apertures":200,"number_of_dots":[1,1,1,1,1,1,1,1,1,1,1,1,1,1,1,1,1,1,1,1,1,1,1,1,1,1,1,1,1,1,1,1,1,1,1,1,1,1,1,1,1,1,1,1,1,1,1,1,1,1,1,1,1,1,1,1,1,1,1,1,1,1,1,1,1,1,1,1,1,1,1,1,1,1,1,1,1,1,1,1,1,1,1,1,1,1,1,1,1,1,1,1,1,1,1,1,1,1,1,1,1,1,1,1,1,1,1,1,1,1,1,1,1,1,1,1,1,1,1,1,1,1,1,1,1,1,1,1,1,1,1,1,1,1,1,1,1,1,1,1,1,1,1,1,1,1,1,1,1,1,1,1,1,1,1,1,1,1,1,1,1,1,1,1,1,1,1,1,1,1,1,1,1,1,1,1,1,1,1,1,1,1,1,1,1,1,1,1,1,1,1,1,1,1,1,1,1,1,1,1],"number_of_sets":1,"coherent_direction":[246,340,246,246,246,246,340,246,340,246,340,246,246,340,246,340,340,340,340,340,340,246,246,340,340,246,246,246,340,340,246,246,340,246,340,246,246,340,340,340,340,246,340,246,340,246,246,246,246,340,246,340,246,246,340,340,340,246,246,246,246,246,340,246,340,340,246,246,340,340,246,246,340,340,340,340,246,340,246,340,340,340,340,246,246,340,246,246,340,340,340,246,340,246,340,340,246,246,246,246,246,340,246,340,246,246,340,340,340,246,340,340,340,246,340,246,340,340,246,340,340,340,340,340,246,246,340,246,246,246,340,340,246,340,246,246,340,340,340,246,246,246,246,340,340,246,340,340,340,340,246,246,246,340,340,246,246,340,246,246,340,340,246,246,246,340,246,340,246,340,340,246,246,340,246,246,340,246,340,340,246,340,246,246,246,340,340,246,340,246,246,246,340,340,340,340,246,246,246,340],"coherence":1,"opposite_coherence":0,"dot_radius":2,"dot_side_length":1,"dot_life":-1,"move_distance":1,"aperture_width":300,"aperture_height":300,"dot_color":["black","white","black","black","black","black","white","black","white","black","white","black","black","white","black","white","white","white","white","white","white","black","black","white","white","black","black","black","white","white","black","black","white","black","white","black","black","white","white","white","white","black","white","black","white","black","black","black","black","white","black","white","black","black","white","white","white","black","black","black","black","black","white","black","white","white","black","black","white","white","black","black","white","white","white","white","black","white","black","white","white","white","white","black","black","white","black","black","white","white","white","black","white","black","white","white","black","black","black","black","black","white","black","white","black","black","white","white","white","black","white","white","white","black","white","black","white","white","black","white","white","white","white","white","black","black","white","black","black","black","white","white","black","white","black","black","white","white","white","black","black","black","black","white","white","black","white","white","white","white","black","black","black","white","white","black","black","white","black","black","white","white","black","black","black","white","black","white","black","white","white","black","black","white","black","black","white","black","white","white","black","white","black","black","black","white","white","black","white","black","black","black","white","white","white","white","black","black","black","white"],"dot_shape":"circle","background_color":"#AAA","RDK_type":3,"aperture_type":2,"reinsert_type":2,"frame_rate":16.831932773109244,"frame_rate_array":[22,17,16,17,20,19,18,17,17,18,17,17,16,17,17,17,16,18,17,16,16,18,16,16,17,17,16,16,17,17,17,17,16,17,17,17,16,17,17,17,17,16,17,17,17,16,17,17,15,17,16,17,17,17,17,17,16,17,17,17,17,16,17,16,16,17,17,17,16,17,17,17,16,17,17,17,16,17,17,17,16,17,17,17,16,18,16,17,16,17,17,16,18,16,16,17,16,17,17,17,17,16,17,17,17,17,17,17,16,18,17,16,16,18,16,17,16,17,16],"number_of_frames":119,"aperture_center_x":896,"aperture_center_y":560,"fixation_cross":true,"fixation_cross_width":15,"fixation_cross_height":15,"fixation_cross_color":"#111","fixation_cross_thickness":1,"border":true,"border_thickness":2,"border_color":"transparent","canvas_width":1792,"canvas_height":1120,"trial_type":"rdk","trial_index":92,"plugin_version":"2.0.0","time_elapsed":274981},{"rt":2569,"stimulus":"\n        <div class=\"response-container\">\n          <div class=\"response-instruction\">\n            <p>rotate the bar by using the left and right arrow keys.</p>\n            <p>when you are determined, press the Enter key.</p>\n          </div>\n          <div class=\"response-circle\">\n            <div class=\"response-fixation\"></div>\n            <div id=\"bar\" class=\"rotating-bar\"></div>\n          </div>\n        </div>\n      ","response":"Enter","trial_type":"html-keyboard-response","trial_index":93,"plugin_version":"2.1.0","time_elapsed":277550,"random_initial_angle":269,"response_angle_css":219,"response_angle_rdk":231,"angular_error_target":-15,"angular_error_distractor":-109,"target_direction":246,"target_group":"black","reward_points":7},{"rt":null,"stimulus":"\n          <p style=\"color: #00FF00;\">Your reward: 7 points</p>\n        ","response":null,"trial_type":"html-keyboard-response","trial_index":94,"plugin_version":"2.1.0","time_elapsed":279552},{"rt":null,"stimulus":"<div class=\"fixation\" style=\"font-size: 60px;\">+</div>","response":null,"trial_type":"html-keyboard-response","trial_index":95,"plugin_version":"2.1.0","time_elapsed":280553},{"phase":"learning-awareness","target_group":"white","condition_label":"W_H_vs_B_L_rep2","target_direction":176,"distractor_direction":68,"session_rotation":153,"rt":-1,"response":"","correct":false,"choices":"ALL_KEYS","correct_choice":["a"],"trial_duration":2000,"flip_timestamps":[],"response_ends_trial":false,"number_of_apertures":200,"number_of_dots":[1,1,1,1,1,1,1,1,1,1,1,1,1,1,1,1,1,1,1,1,1,1,1,1,1,1,1,1,1,1,1,1,1,1,1,1,1,1,1,1,1,1,1,1,1,1,1,1,1,1,1,1,1,1,1,1,1,1,1,1,1,1,1,1,1,1,1,1,1,1,1,1,1,1,1,1,1,1,1,1,1,1,1,1,1,1,1,1,1,1,1,1,1,1,1,1,1,1,1,1,1,1,1,1,1,1,1,1,1,1,1,1,1,1,1,1,1,1,1,1,1,1,1,1,1,1,1,1,1,1,1,1,1,1,1,1,1,1,1,1,1,1,1,1,1,1,1,1,1,1,1,1,1,1,1,1,1,1,1,1,1,1,1,1,1,1,1,1,1,1,1,1,1,1,1,1,1,1,1,1,1,1,1,1,1,1,1,1,1,1,1,1,1,1,1,1,1,1,1,1],"number_of_sets":1,"coherent_direction":[68,176,176,176,68,176,176,68,68,176,68,176,176,176,68,68,176,68,176,176,176,176,68,176,68,68,68,68,68,176,176,176,176,68,176,68,176,68,68,176,68,68,176,68,176,68,68,68,176,68,68,68,176,68,176,68,68,68,68,176,176,176,176,68,68,68,68,176,176,68,176,176,68,68,176,68,176,68,68,68,176,68,176,68,176,68,176,176,68,176,176,68,176,68,176,68,68,68,176,68,176,68,176,68,68,68,68,68,176,176,176,176,176,176,176,68,68,68,68,176,68,176,68,68,68,68,176,176,68,176,68,176,176,176,68,176,176,176,176,176,68,176,68,176,176,176,176,68,176,176,176,68,68,176,68,176,68,176,68,176,176,176,68,68,176,176,68,68,176,68,68,68,176,68,68,68,176,176,176,68,68,68,68,68,176,176,68,176,176,176,68,176,68,68,68,176,176,176,176,68],"coherence":1,"opposite_coherence":0,"dot_radius":2,"dot_side_length":1,"dot_life":-1,"move_distance":1,"aperture_width":300,"aperture_height":300,"dot_color":["black","white","white","white","black","white","white","black","black","white","black","white","white","white","black","black","white","black","white","white","white","white","black","white","black","black","black","black","black","white","white","white","white","black","white","black","white","black","black","white","black","black","white","black","white","black","black","black","white","black","black","black","white","black","white","black","black","black","black","white","white","white","white","black","black","black","black","white","white","black","white","white","black","black","white","black","white","black","black","black","white","black","white","black","white","black","white","white","black","white","white","black","white","black","white","black","black","black","white","black","white","black","white","black","black","black","black","black","white","white","white","white","white","white","white","black","black","black","black","white","black","white","black","black","black","black","white","white","black","white","black","white","white","white","black","white","white","white","white","white","black","white","black","white","white","white","white","black","white","white","white","black","black","white","black","white","black","white","black","white","white","white","black","black","white","white","black","black","white","black","black","black","white","black","black","black","white","white","white","black","black","black","black","black","white","white","black","white","white","white","black","white","black","black","black","white","white","white","white","black"],"dot_shape":"circle","background_color":"#AAA","RDK_type":3,"aperture_type":2,"reinsert_type":2,"frame_rate":16.80672268907563,"frame_rate_array":[16,17,16,17,20,19,19,17,18,16,17,17,16,17,16,17,16,17,16,17,16,17,17,16,17,17,16,17,17,17,17,17,17,17,17,17,17,16,17,16,17,16,16,16,18,17,17,16,17,17,17,17,17,16,18,17,17,17,17,17,16,17,17,16,17,16,18,16,17,17,17,16,17,17,17,16,17,16,17,16,17,17,17,17,17,17,17,16,17,17,17,16,17,17,17,16,17,17,16,16,17,18,16,16,17,17,16,16,18,17,17,17,17,17,17,16,17,17,16],"number_of_frames":119,"aperture_center_x":896,"aperture_center_y":560,"fixation_cross":true,"fixation_cross_width":15,"fixation_cross_height":15,"fixation_cross_color":"#111","fixation_cross_thickness":1,"border":true,"border_thickness":2,"border_color":"transparent","canvas_width":1792,"canvas_height":1120,"trial_type":"rdk","trial_index":96,"plugin_version":"2.0.0","time_elapsed":282556},{"rt":2956,"stimulus":"\n        <div class=\"response-container\">\n          <div class=\"response-instruction\">\n            <p>rotate the bar by using the left and right arrow keys.</p>\n            <p>when you are determined, press the Enter key.</p>\n          </div>\n          <div class=\"response-circle\">\n            <div class=\"response-fixation\"></div>\n            <div id=\"bar\" class=\"rotating-bar\"></div>\n          </div>\n        </div>\n      ","response":"Enter","trial_type":"html-keyboard-response","trial_index":97,"plugin_version":"2.1.0","time_elapsed":285513,"random_initial_angle":58,"response_angle_css":26,"response_angle_rdk":64,"angular_error_target":-112,"angular_error_distractor":-4,"target_direction":176,"target_group":"white","reward_points":0},{"rt":null,"stimulus":"\n          <p style=\"color: #FF3333;\">Your reward: 0 points</p>\n        ","response":null,"trial_type":"html-keyboard-response","trial_index":98,"plugin_version":"2.1.0","time_elapsed":287514},{"rt":null,"stimulus":"<div class=\"fixation\" style=\"font-size: 60px;\">+</div>","response":null,"trial_type":"html-keyboard-response","trial_index":99,"plugin_version":"2.1.0","time_elapsed":288516},{"phase":"learning-awareness","target_group":"white","condition_label":"W_H_vs_B_L_rep24","target_direction":189,"distractor_direction":84,"session_rotation":153,"rt":-1,"response":"","correct":false,"choices":"ALL_KEYS","correct_choice":["a"],"trial_duration":2000,"flip_timestamps":[],"response_ends_trial":false,"number_of_apertures":200,"number_of_dots":[1,1,1,1,1,1,1,1,1,1,1,1,1,1,1,1,1,1,1,1,1,1,1,1,1,1,1,1,1,1,1,1,1,1,1,1,1,1,1,1,1,1,1,1,1,1,1,1,1,1,1,1,1,1,1,1,1,1,1,1,1,1,1,1,1,1,1,1,1,1,1,1,1,1,1,1,1,1,1,1,1,1,1,1,1,1,1,1,1,1,1,1,1,1,1,1,1,1,1,1,1,1,1,1,1,1,1,1,1,1,1,1,1,1,1,1,1,1,1,1,1,1,1,1,1,1,1,1,1,1,1,1,1,1,1,1,1,1,1,1,1,1,1,1,1,1,1,1,1,1,1,1,1,1,1,1,1,1,1,1,1,1,1,1,1,1,1,1,1,1,1,1,1,1,1,1,1,1,1,1,1,1,1,1,1,1,1,1,1,1,1,1,1,1,1,1,1,1,1,1],"number_of_sets":1,"coherent_direction":[189,189,84,84,189,189,189,189,189,84,84,189,84,84,189,84,189,189,84,189,84,84,189,189,84,189,84,84,189,84,189,84,84,84,189,84,84,84,84,189,189,84,189,84,189,189,84,189,189,189,84,84,84,84,189,189,84,189,189,189,84,189,189,84,189,189,84,189,84,84,189,189,84,84,84,189,84,189,84,84,189,189,189,189,84,84,84,189,189,84,84,189,84,84,189,84,189,189,189,189,189,189,84,84,84,84,189,189,84,189,189,84,189,84,84,189,189,84,84,84,189,84,84,84,189,84,84,189,84,189,189,189,189,84,84,189,84,189,189,189,84,84,84,84,84,84,84,189,189,189,84,189,84,84,189,189,84,84,189,189,189,189,189,84,189,84,189,84,84,84,84,189,84,84,84,189,84,189,189,189,189,84,84,189,189,84,84,189,84,189,189,189,84,189,84,84,84,189,189,84],"coherence":1,"opposite_coherence":0,"dot_radius":2,"dot_side_length":1,"dot_life":-1,"move_distance":1,"aperture_width":300,"aperture_height":300,"dot_color":["white","white","black","black","white","white","white","white","white","black","black","white","black","black","white","black","white","white","black","white","black","black","white","white","black","white","black","black","white","black","white","black","black","black","white","black","black","black","black","white","white","black","white","black","white","white","black","white","white","white","black","black","black","black","white","white","black","white","white","white","black","white","white","black","white","white","black","white","black","black","white","white","black","black","black","white","black","white","black","black","white","white","white","white","black","black","black","white","white","black","black","white","black","black","white","black","white","white","white","white","white","white","black","black","black","black","white","white","black","white","white","black","white","black","black","white","white","black","black","black","white","black","black","black","white","black","black","white","black","white","white","white","white","black","black","white","black","white","white","white","black","black","black","black","black","black","black","white","white","white","black","white","black","black","white","white","black","black","white","white","white","white","white","black","white","black","white","black","black","black","black","white","black","black","black","white","black","white","white","white","white","black","black","white","white","black","black","white","black","white","white","white","black","white","black","black","black","white","white","black"],"dot_shape":"circle","background_color":"#AAA","RDK_type":3,"aperture_type":2,"reinsert_type":2,"frame_rate":16.7,"frame_rate_array":[9,16,16,16,17,20,19,19,18,16,17,17,17,17,16,16,18,17,16,16,18,17,18,16,17,16,16,17,17,17,16,18,16,16,17,17,17,16,17,17,16,17,16,18,16,17,16,17,17,16,17,17,17,16,17,17,16,16,17,16,17,17,16,18,15,17,17,17,15,17,16,17,17,17,16,18,17,17,16,18,16,17,16,17,17,16,17,17,16,16,17,17,17,16,17,17,17,16,16,17,17,17,17,17,17,16,17,17,17,16,17,17,17,17,16,17,17,17,16,17],"number_of_frames":120,"aperture_center_x":896,"aperture_center_y":560,"fixation_cross":true,"fixation_cross_width":15,"fixation_cross_height":15,"fixation_cross_color":"#111","fixation_cross_thickness":1,"border":true,"border_thickness":2,"border_color":"transparent","canvas_width":1792,"canvas_height":1120,"trial_type":"rdk","trial_index":100,"plugin_version":"2.0.0","time_elapsed":290519},{"rt":3718,"stimulus":"\n        <div class=\"response-container\">\n          <div class=\"response-instruction\">\n            <p>rotate the bar by using the left and right arrow keys.</p>\n            <p>when you are determined, press the Enter key.</p>\n          </div>\n          <div class=\"response-circle\">\n            <div class=\"response-fixation\"></div>\n            <div id=\"bar\" class=\"rotating-bar\"></div>\n          </div>\n        </div>\n      ","response":"Enter","trial_type":"html-keyboard-response","trial_index":101,"plugin_version":"2.1.0","time_elapsed":294237,"random_initial_angle":190,"response_angle_css":6,"response_angle_rdk":84,"angular_error_target":-105,"angular_error_distractor":0,"target_direction":189,"target_group":"white","reward_points":0},{"rt":null,"stimulus":"\n          <p style=\"color: #FF3333;\">Your reward: 0 points</p>\n        ","response":null,"trial_type":"html-keyboard-response","trial_index":102,"plugin_version":"2.1.0","time_elapsed":296239},{"rt":null,"stimulus":"<div class=\"fixation\" style=\"font-size: 60px;\">+</div>","response":null,"trial_type":"html-keyboard-response","trial_index":103,"plugin_version":"2.1.0","time_elapsed":297241},{"phase":"learning-awareness","target_group":"white","condition_label":"W_H_vs_B_L_rep16","target_direction":194,"distractor_direction":79,"session_rotation":153,"rt":-1,"response":"","correct":false,"choices":"ALL_KEYS","correct_choice":["a"],"trial_duration":2000,"flip_timestamps":[],"response_ends_trial":false,"number_of_apertures":200,"number_of_dots":[1,1,1,1,1,1,1,1,1,1,1,1,1,1,1,1,1,1,1,1,1,1,1,1,1,1,1,1,1,1,1,1,1,1,1,1,1,1,1,1,1,1,1,1,1,1,1,1,1,1,1,1,1,1,1,1,1,1,1,1,1,1,1,1,1,1,1,1,1,1,1,1,1,1,1,1,1,1,1,1,1,1,1,1,1,1,1,1,1,1,1,1,1,1,1,1,1,1,1,1,1,1,1,1,1,1,1,1,1,1,1,1,1,1,1,1,1,1,1,1,1,1,1,1,1,1,1,1,1,1,1,1,1,1,1,1,1,1,1,1,1,1,1,1,1,1,1,1,1,1,1,1,1,1,1,1,1,1,1,1,1,1,1,1,1,1,1,1,1,1,1,1,1,1,1,1,1,1,1,1,1,1,1,1,1,1,1,1,1,1,1,1,1,1,1,1,1,1,1,1],"number_of_sets":1,"coherent_direction":[79,79,79,79,79,194,79,79,194,79,194,79,79,194,79,79,194,79,79,194,79,79,194,79,194,194,79,194,79,79,79,79,79,79,194,194,79,194,79,79,194,194,194,79,79,79,194,194,79,79,194,194,79,79,194,194,79,194,79,194,194,79,79,79,194,194,194,194,194,194,194,194,194,194,194,194,79,194,194,194,194,79,194,194,194,194,194,194,79,79,194,79,194,79,79,79,79,79,194,194,79,79,194,194,194,79,79,79,194,79,79,194,194,194,194,79,79,79,194,194,79,79,194,79,194,194,194,79,194,194,79,79,79,79,194,79,194,79,194,194,194,79,194,79,79,194,79,194,79,79,194,79,194,194,194,79,194,79,79,79,194,194,194,79,194,79,79,79,79,79,79,194,79,79,79,194,79,194,194,194,194,79,194,79,79,79,194,194,79,194,194,79,194,79,79,194,194,79,194,194],"coherence":1,"opposite_coherence":0,"dot_radius":2,"dot_side_length":1,"dot_life":-1,"move_distance":1,"aperture_width":300,"aperture_height":300,"dot_color":["black","black","black","black","black","white","black","black","white","black","white","black","black","white","black","black","white","black","black","white","black","black","white","black","white","white","black","white","black","black","black","black","black","black","white","white","black","white","black","black","white","white","white","black","black","black","white","white","black","black","white","white","black","black","white","white","black","white","black","white","white","black","black","black","white","white","white","white","white","white","white","white","white","white","white","white","black","white","white","white","white","black","white","white","white","white","white","white","black","black","white","black","white","black","black","black","black","black","white","white","black","black","white","white","white","black","black","black","white","black","black","white","white","white","white","black","black","black","white","white","black","black","white","black","white","white","white","black","white","white","black","black","black","black","white","black","white","black","white","white","white","black","white","black","black","white","black","white","black","black","white","black","white","white","white","black","white","black","black","black","white","white","white","black","white","black","black","black","black","black","black","white","black","black","black","white","black","white","white","white","white","black","white","black","black","black","white","white","black","white","white","black","white","black","black","white","white","black","white","white"],"dot_shape":"circle","background_color":"#AAA","RDK_type":3,"aperture_type":2,"reinsert_type":2,"frame_rate":16.84873949579832,"frame_rate_array":[15,17,17,17,20,19,17,18,17,17,16,17,17,17,17,17,17,16,17,17,16,18,17,16,17,16,17,16,17,17,16,16,18,17,17,16,18,16,18,17,17,16,17,17,17,17,17,16,16,16,18,17,17,17,17,16,18,17,17,16,18,17,16,16,18,16,17,15,18,17,16,17,18,16,17,17,17,17,17,16,18,17,17,16,18,16,17,16,17,18,17,16,18,16,16,17,17,17,16,16,17,17,16,17,18,16,17,17,17,16,17,17,17,17,16,16,17,17,17],"number_of_frames":119,"aperture_center_x":896,"aperture_center_y":560,"fixation_cross":true,"fixation_cross_width":15,"fixation_cross_height":15,"fixation_cross_color":"#111","fixation_cross_thickness":1,"border":true,"border_thickness":2,"border_color":"transparent","canvas_width":1792,"canvas_height":1120,"trial_type":"rdk","trial_index":104,"plugin_version":"2.0.0","time_elapsed":299244},{"rt":3311,"stimulus":"\n        <div class=\"response-container\">\n          <div class=\"response-instruction\">\n            <p>rotate the bar by using the left and right arrow keys.</p>\n            <p>when you are determined, press the Enter key.</p>\n          </div>\n          <div class=\"response-circle\">\n            <div class=\"response-fixation\"></div>\n            <div id=\"bar\" class=\"rotating-bar\"></div>\n          </div>\n        </div>\n      ","response":"Enter","trial_type":"html-keyboard-response","trial_index":105,"plugin_version":"2.1.0","time_elapsed":302556,"random_initial_angle":88,"response_angle_css":17,"response_angle_rdk":73,"angular_error_target":-121,"angular_error_distractor":-6,"target_direction":194,"target_group":"white","reward_points":0},{"rt":null,"stimulus":"\n          <p style=\"color: #FF3333;\">Your reward: 0 points</p>\n        ","response":null,"trial_type":"html-keyboard-response","trial_index":106,"plugin_version":"2.1.0","time_elapsed":304558},{"rt":null,"stimulus":"<div class=\"fixation\" style=\"font-size: 60px;\">+</div>","response":null,"trial_type":"html-keyboard-response","trial_index":107,"plugin_version":"2.1.0","time_elapsed":305559},{"phase":"learning-awareness","target_group":"white","condition_label":"W_H_vs_B_L_rep21","target_direction":195,"distractor_direction":67,"session_rotation":153,"rt":-1,"response":"","correct":false,"choices":"ALL_KEYS","correct_choice":["a"],"trial_duration":2000