[{"rt":2530,"stimulus":"Welcome to the experiment. Press any key to begin.","response":" ","trial_type":"html-keyboard-response","trial_index":0,"plugin_version":"2.1.0","time_elapsed":2531},{"rt":37956,"stimulus":"\n        <div class=\"instructions-container\">\n          <h2>Instructions</h2>\n\n          <p>\n          In this experiment, you will see <strong>two Random Dot Kinematograms (RDKs)</strong> displayed simultaneously.\n          </p>\n\n          <p>\n          An RDK is a visual stimulus consisting of many small dots that move coherently in a single direction. \n          In this experiment, the dots will be either <strong>white</strong> or <strong>black</strong> \n          (see the short demo below for an example of an RDK stimulus).\n          </p>\n\n          <p>\n          On each trial, the two RDKs will move in different directions. \n          Your task is to decide <strong>which RDK appears to contain more dots</strong>.\n          </p>\n\n          <p>\n          The RDK that you judge to have more dots is called the <strong>target RDK</strong>. \n          For example, if the white RDK appears to have more dots than the black RDK, \n          you should report the motion direction of the white RDK.\n          </p>\n\n          <p>\n          After viewing the RDKs, you will rotate a bar to indicate the perceived direction of the target RDK \n          using the <strong>left</strong> and <strong>right arrow keys</strong>. \n          Press <strong>Enter</strong> when you are satisfied with your response.\n          </p>\n\n          <p>\n          You will receive points based on the <strong>accuracy of your response</strong>, \n          and your final <strong>bonus reward</strong> may depend on your overall performance. \n          Please try to respond as accurately as possible.\n          </p>\n\n          <p>\n          You will first complete <strong>16 practice trials</strong>. \n          Press the <strong>Enter</strong> key to start the practice phase.\n          </p>\n\n          <canvas id=\"instruction-demo-rdk\" width=\"200\" height=\"200\"style=\"display:block;margin:12px auto; border-radius: 50%;\"></canvas>\n        </div>\n      ","response":"Enter","trial_type":"html-keyboard-response","trial_index":1,"plugin_version":"2.1.0","time_elapsed":40488},{"rt":null,"stimulus":"<div class=\"fixation\" style=\"font-size: 60px;\">+</div>","response":null,"trial_type":"html-keyboard-response","trial_index":2,"plugin_version":"2.1.0","time_elapsed":41489},{"target_group":"black","target_index":1,"condition_label":"practice","rt":-1,"response":"","correct":false,"choices":"ALL_KEYS","correct_choice":["a"],"trial_duration":2000,"flip_timestamps":[],"response_ends_trial":false,"number_of_apertures":2,"number_of_dots":[92,100],"number_of_sets":1,"coherent_direction":[207,44],"coherence":1,"opposite_coherence":0,"dot_radius":2,"dot_side_length":1,"dot_life":-1,"move_distance":1,"aperture_width":300,"aperture_height":300,"dot_color":["white","black"],"dot_shape":"circle","background_color":"#AAA","RDK_type":3,"aperture_type":2,"reinsert_type":2,"frame_rate":33.03333333333333,"frame_rate_array":[22,33,34,33,33,33,33,33,33,34,33,33,33,33,33,33,33,33,33,33,33,34,33,33,33,33,34,33,34,33,34,33,33,33,33,33,33,33,33,34,33,33,34,33,34,33,33,33,34,33,33,33,33,34,33,33,34,33,33,34],"number_of_frames":60,"aperture_center_x":1097.5,"aperture_center_y":617.5,"fixation_cross":true,"fixation_cross_width":15,"fixation_cross_height":15,"fixation_cross_color":"#111","fixation_cross_thickness":1,"border":true,"border_thickness":2,"border_color":"transparent","canvas_width":2195,"canvas_height":1235,"trial_type":"rdk","trial_index":3,"plugin_version":"2.0.0","time_elapsed":43492,"target_direction":44,"distractor_direction":207},{"rt":5997,"stimulus":"\n        <div class=\"response-container\">\n          <div class=\"response-instruction\">\n            <p>rotate the bar by using the left and right arrow keys.</p>\n            <p>when you are determined, press the Enter key.</p>\n          </div>\n          <div class=\"response-circle\">\n            <div class=\"response-fixation\"></div>\n            <div id=\"bar\" class=\"rotating-bar\"></div>\n          </div>\n        </div>\n      ","response":"Enter","trial_type":"html-keyboard-response","trial_index":4,"plugin_version":"2.1.0","time_elapsed":49489,"random_initial_angle":270,"response_angle_css":417,"response_angle_rdk":33,"angular_error_target":-11,"angular_error_distractor":-174,"target_direction":44,"target_group":"black","reward_points":7},{"rt":null,"stimulus":"\n          <p style=\"color: #00FF00;\">Your reward: 7 points</p>\n        ","response":null,"trial_type":"html-keyboard-response","trial_index":5,"plugin_version":"2.1.0","time_elapsed":51502},{"rt":null,"stimulus":"<div class=\"fixation\" style=\"font-size: 60px;\">+</div>","response":null,"trial_type":"html-keyboard-response","trial_index":6,"plugin_version":"2.1.0","time_elapsed":52517},{"target_group":"white","target_index":0,"condition_label":"practice","rt":-1,"response":"","correct":false,"choices":"ALL_KEYS","correct_choice":["a"],"trial_duration":2000,"flip_timestamps":[],"response_ends_trial":false,"number_of_apertures":2,"number_of_dots":[100,63],"number_of_sets":1,"coherent_direction":[293,25],"coherence":1,"opposite_coherence":0,"dot_radius":2,"dot_side_length":1,"dot_life":-1,"move_distance":1,"aperture_width":300,"aperture_height":300,"dot_color":["white","black"],"dot_shape":"circle","background_color":"#AAA","RDK_type":3,"aperture_type":2,"reinsert_type":2,"frame_rate":32.8,"frame_rate_array":[7,34,33,34,33,33,33,33,33,33,33,34,33,33,33,33,33,33,33,34,33,34,33,34,33,34,33,34,33,33,33,33,33,34,33,33,33,33,33,33,33,34,33,33,33,34,33,33,33,33,33,34,33,34,33,33,33,34,33,33],"number_of_frames":60,"aperture_center_x":1097.5,"aperture_center_y":617.5,"fixation_cross":true,"fixation_cross_width":15,"fixation_cross_height":15,"fixation_cross_color":"#111","fixation_cross_thickness":1,"border":true,"border_thickness":2,"border_color":"transparent","canvas_width":2195,"canvas_height":1235,"trial_type":"rdk","trial_index":7,"plugin_version":"2.0.0","time_elapsed":54522,"target_direction":293,"distractor_direction":25},{"rt":5304,"stimulus":"\n        <div class=\"response-container\">\n          <div class=\"response-instruction\">\n            <p>rotate the bar by using the left and right arrow keys.</p>\n            <p>when you are determined, press the Enter key.</p>\n          </div>\n          <div class=\"response-circle\">\n            <div class=\"response-fixation\"></div>\n            <div id=\"bar\" class=\"rotating-bar\"></div>\n          </div>\n        </div>\n      ","response":"Enter","trial_type":"html-keyboard-response","trial_index":8,"plugin_version":"2.1.0","time_elapsed":59827,"random_initial_angle":284,"response_angle_css":176,"response_angle_rdk":274,"angular_error_target":-19,"angular_error_distractor":-111,"target_direction":293,"target_group":"white","reward_points":6},{"rt":null,"stimulus":"\n          <p style=\"color: #00FF00;\">Your reward: 6 points</p>\n        ","response":null,"trial_type":"html-keyboard-response","trial_index":9,"plugin_version":"2.1.0","time_elapsed":61829},{"rt":null,"stimulus":"<div class=\"fixation\" style=\"font-size: 60px;\">+</div>","response":null,"trial_type":"html-keyboard-response","trial_index":10,"plugin_version":"2.1.0","time_elapsed":62842},{"target_group":"black","target_index":1,"condition_label":"practice","rt":-1,"response":"","correct":false,"choices":"ALL_KEYS","correct_choice":["a"],"trial_duration":2000,"flip_timestamps":[],"response_ends_trial":false,"number_of_apertures":2,"number_of_dots":[65,100],"number_of_sets":1,"coherent_direction":[290,103],"coherence":1,"opposite_coherence":0,"dot_radius":2,"dot_side_length":1,"dot_life":-1,"move_distance":1,"aperture_width":300,"aperture_height":300,"dot_color":["white","black"],"dot_shape":"circle","background_color":"#AAA","RDK_type":3,"aperture_type":2,"reinsert_type":2,"frame_rate":33.11666666666667,"frame_rate_array":[26,34,33,34,33,33,33,33,34,33,33,33,34,33,33,33,33,33,33,33,33,33,33,34,33,33,34,34,33,33,33,33,33,34,33,33,33,33,34,33,33,34,33,33,33,33,33,34,33,33,33,34,33,34,33,33,33,33,33,34],"number_of_frames":60,"aperture_center_x":1097.5,"aperture_center_y":617.5,"fixation_cross":true,"fixation_cross_width":15,"fixation_cross_height":15,"fixation_cross_color":"#111","fixation_cross_thickness":1,"border":true,"border_thickness":2,"border_color":"transparent","canvas_width":2195,"canvas_height":1235,"trial_type":"rdk","trial_index":11,"plugin_version":"2.0.0","time_elapsed":64849,"target_direction":103,"distractor_direction":290},{"rt":4595,"stimulus":"\n        <div class=\"response-container\">\n          <div class=\"response-instruction\">\n            <p>rotate the bar by using the left and right arrow keys.</p>\n            <p>when you are determined, press the Enter key.</p>\n          </div>\n          <div class=\"response-circle\">\n            <div class=\"response-fixation\"></div>\n            <div id=\"bar\" class=\"rotating-bar\"></div>\n          </div>\n        </div>\n      ","response":"Enter","trial_type":"html-keyboard-response","trial_index":12,"plugin_version":"2.1.0","time_elapsed":69444,"random_initial_angle":258,"response_angle_css":343,"response_angle_rdk":107,"angular_error_target":4,"angular_error_distractor":177,"target_direction":103,"target_group":"black","reward_points":9},{"rt":null,"stimulus":"\n          <p style=\"color: #00FF00;\">Your reward: 9 points</p>\n        ","response":null,"trial_type":"html-keyboard-response","trial_index":13,"plugin_version":"2.1.0","time_elapsed":71448},{"rt":null,"stimulus":"<div class=\"fixation\" style=\"font-size: 60px;\">+</div>","response":null,"trial_type":"html-keyboard-response","trial_index":14,"plugin_version":"2.1.0","time_elapsed":72462},{"target_group":"black","target_index":1,"condition_label":"practice","rt":-1,"response":"","correct":false,"choices":"ALL_KEYS","correct_choice":["a"],"trial_duration":2000,"flip_timestamps":[],"response_ends_trial":false,"number_of_apertures":2,"number_of_dots":[92,100],"number_of_sets":1,"coherent_direction":[317,152],"coherence":1,"opposite_coherence":0,"dot_radius":2,"dot_side_length":1,"dot_life":-1,"move_distance":1,"aperture_width":300,"aperture_height":300,"dot_color":["white","black"],"dot_shape":"circle","background_color":"#AAA","RDK_type":3,"aperture_type":2,"reinsert_type":2,"frame_rate":32.916666666666664,"frame_rate_array":[15,34,33,33,33,34,33,33,34,33,34,33,33,34,33,33,34,33,33,34,33,33,33,34,33,33,33,33,33,33,34,33,33,33,33,33,33,33,33,33,33,33,34,33,34,33,33,33,33,33,34,33,34,33,33,33,33,33,33,33],"number_of_frames":60,"aperture_center_x":1097.5,"aperture_center_y":617.5,"fixation_cross":true,"fixation_cross_width":15,"fixation_cross_height":15,"fixation_cross_color":"#111","fixation_cross_thickness":1,"border":true,"border_thickness":2,"border_color":"transparent","canvas_width":2195,"canvas_height":1235,"trial_type":"rdk","trial_index":15,"plugin_version":"2.0.0","time_elapsed":74471,"target_direction":152,"distractor_direction":317},{"rt":5686,"stimulus":"\n        <div class=\"response-container\">\n          <div class=\"response-instruction\">\n            <p>rotate the bar by using the left and right arrow keys.</p>\n            <p>when you are determined, press the Enter key.</p>\n          </div>\n          <div class=\"response-circle\">\n            <div class=\"response-fixation\"></div>\n            <div id=\"bar\" class=\"rotating-bar\"></div>\n          </div>\n        </div>\n      ","response":"Enter","trial_type":"html-keyboard-response","trial_index":16,"plugin_version":"2.1.0","time_elapsed":80158,"random_initial_angle":351,"response_angle_css":509,"response_angle_rdk":301,"angular_error_target":149,"angular_error_distractor":-16,"target_direction":152,"target_group":"black","reward_points":0},{"rt":null,"stimulus":"\n          <p style=\"color: #FF3333;\">Your reward: 0 points</p>\n        ","response":null,"trial_type":"html-keyboard-response","trial_index":17,"plugin_version":"2.1.0","time_elapsed":82171},{"rt":null,"stimulus":"<div class=\"fixation\" style=\"font-size: 60px;\">+</div>","response":null,"trial_type":"html-keyboard-response","trial_index":18,"plugin_version":"2.1.0","time_elapsed":83184},{"target_group":"white","target_index":0,"condition_label":"practice","rt":-1,"response":"","correct":false,"choices":"ALL_KEYS","correct_choice":["a"],"trial_duration":2000,"flip_timestamps":[],"response_ends_trial":false,"number_of_apertures":2,"number_of_dots":[100,86],"number_of_sets":1,"coherent_direction":[131,38],"coherence":1,"opposite_coherence":0,"dot_radius":2,"dot_side_length":1,"dot_life":-1,"move_distance":1,"aperture_width":300,"aperture_height":300,"dot_color":["white","black"],"dot_shape":"circle","background_color":"#AAA","RDK_type":3,"aperture_type":2,"reinsert_type":2,"frame_rate":32.68333333333333,"frame_rate_array":[3,34,33,34,33,33,33,33,33,34,33,33,33,34,33,33,33,34,33,34,33,33,33,34,33,33,33,33,33,33,33,33,34,33,33,33,33,33,34,33,33,33,33,33,34,33,33,33,33,33,33,34,33,33,33,33,33,33,33,33],"number_of_frames":60,"aperture_center_x":1097.5,"aperture_center_y":617.5,"fixation_cross":true,"fixation_cross_width":15,"fixation_cross_height":15,"fixation_cross_color":"#111","fixation_cross_thickness":1,"border":true,"border_thickness":2,"border_color":"transparent","canvas_width":2195,"canvas_height":1235,"trial_type":"rdk","trial_index":19,"plugin_version":"2.0.0","time_elapsed":85191,"target_direction":131,"distractor_direction":38},{"rt":4599,"stimulus":"\n        <div class=\"response-container\">\n          <div class=\"response-instruction\">\n            <p>rotate the bar by using the left and right arrow keys.</p>\n            <p>when you are determined, press the Enter key.</p>\n          </div>\n          <div class=\"response-circle\">\n            <div class=\"response-fixation\"></div>\n            <div id=\"bar\" class=\"rotating-bar\"></div>\n          </div>\n        </div>\n      ","response":"Enter","trial_type":"html-keyboard-response","trial_index":20,"plugin_version":"2.1.0","time_elapsed":89790,"random_initial_angle":293,"response_angle_css":407,"response_angle_rdk":43,"angular_error_target":-88,"angular_error_distractor":5,"target_direction":131,"target_group":"white","reward_points":0},{"rt":null,"stimulus":"\n          <p style=\"color: #FF3333;\">Your reward: 0 points</p>\n        ","response":null,"trial_type":"html-keyboard-response","trial_index":21,"plugin_version":"2.1.0","time_elapsed":91799},{"rt":null,"stimulus":"<div class=\"fixation\" style=\"font-size: 60px;\">+</div>","response":null,"trial_type":"html-keyboard-response","trial_index":22,"plugin_version":"2.1.0","time_elapsed":92801},{"target_group":"black","target_index":1,"condition_label":"practice","rt":-1,"response":"","correct":false,"choices":"ALL_KEYS","correct_choice":["a"],"trial_duration":2000,"flip_timestamps":[],"response_ends_trial":false,"number_of_apertures":2,"number_of_dots":[78,100],"number_of_sets":1,"coherent_direction":[340,122],"coherence":1,"opposite_coherence":0,"dot_radius":2,"dot_side_length":1,"dot_life":-1,"move_distance":1,"aperture_width":300,"aperture_height":300,"dot_color":["white","black"],"dot_shape":"circle","background_color":"#AAA","RDK_type":3,"aperture_type":2,"reinsert_type":2,"frame_rate":33.13333333333333,"frame_rate_array":[29,34,33,33,33,33,33,33,33,34,33,33,33,33,34,33,33,33,34,33,33,34,34,33,33,33,33,34,33,33,33,34,33,33,33,33,33,33,33,33,33,34,33,33,33,33,33,33,33,33,33,33,33,34,33,34,33,33,33,34],"number_of_frames":60,"aperture_center_x":1097.5,"aperture_center_y":617.5,"fixation_cross":true,"fixation_cross_width":15,"fixation_cross_height":15,"fixation_cross_color":"#111","fixation_cross_thickness":1,"border":true,"border_thickness":2,"border_color":"transparent","canvas_width":2195,"canvas_height":1235,"trial_type":"rdk","trial_index":23,"plugin_version":"2.0.0","time_elapsed":94816,"target_direction":122,"distractor_direction":340},{"rt":2600,"stimulus":"\n        <div class=\"response-container\">\n          <div class=\"response-instruction\">\n            <p>rotate the bar by using the left and right arrow keys.</p>\n            <p>when you are determined, press the Enter key.</p>\n          </div>\n          <div class=\"response-circle\">\n            <div class=\"response-fixation\"></div>\n            <div id=\"bar\" class=\"rotating-bar\"></div>\n          </div>\n        </div>\n      ","response":"Enter","trial_type":"html-keyboard-response","trial_index":24,"plugin_version":"2.1.0","time_elapsed":97416,"random_initial_angle":302,"response_angle_css":317,"response_angle_rdk":133,"angular_error_target":11,"angular_error_distractor":153,"target_direction":122,"target_group":"black","reward_points":7},{"rt":null,"stimulus":"\n          <p style=\"color: #00FF00;\">Your reward: 7 points</p>\n        ","response":null,"trial_type":"html-keyboard-response","trial_index":25,"plugin_version":"2.1.0","time_elapsed":99426},{"rt":null,"stimulus":"<div class=\"fixation\" style=\"font-size: 60px;\">+</div>","response":null,"trial_type":"html-keyboard-response","trial_index":26,"plugin_version":"2.1.0","time_elapsed":100427},{"target_group":"white","target_index":0,"condition_label":"practice","rt":-1,"response":"","correct":false,"choices":"ALL_KEYS","correct_choice":["a"],"trial_duration":2000,"flip_timestamps":[],"response_ends_trial":false,"number_of_apertures":2,"number_of_dots":[100,61],"number_of_sets":1,"coherent_direction":[196,52],"coherence":1,"opposite_coherence":0,"dot_radius":2,"dot_side_length":1,"dot_life":-1,"move_distance":1,"aperture_width":300,"aperture_height":300,"dot_color":["white","black"],"dot_shape":"circle","background_color":"#AAA","RDK_type":3,"aperture_type":2,"reinsert_type":2,"frame_rate":32.8,"frame_rate_array":[11,33,33,33,33,33,33,33,33,33,34,33,34,33,33,33,34,33,33,33,33,33,33,33,34,33,33,33,34,33,34,33,33,33,34,33,33,34,33,34,33,33,33,33,33,33,34,33,33,33,33,33,33,33,33,33,33,33,33,33],"number_of_frames":60,"aperture_center_x":1097.5,"aperture_center_y":617.5,"fixation_cross":true,"fixation_cross_width":15,"fixation_cross_height":15,"fixation_cross_color":"#111","fixation_cross_thickness":1,"border":true,"border_thickness":2,"border_color":"transparent","canvas_width":2195,"canvas_height":1235,"trial_type":"rdk","trial_index":27,"plugin_version":"2.0.0","time_elapsed":102433,"target_direction":196,"distractor_direction":52},{"rt":4368,"stimulus":"\n        <div class=\"response-container\">\n          <div class=\"response-instruction\">\n            <p>rotate the bar by using the left and right arrow keys.</p>\n            <p>when you are determined, press the Enter key.</p>\n          </div>\n          <div class=\"response-circle\">\n            <div class=\"response-fixation\"></div>\n            <div id=\"bar\" class=\"rotating-bar\"></div>\n          </div>\n        </div>\n      ","response":"Enter","trial_type":"html-keyboard-response","trial_index":28,"plugin_version":"2.1.0","time_elapsed":106802,"random_initial_angle":309,"response_angle_css":225,"response_angle_rdk":225,"angular_error_target":29,"angular_error_distractor":173,"target_direction":196,"target_group":"white","reward_points":4},{"rt":null,"stimulus":"\n          <p style=\"color: #00FF00;\">Your reward: 4 points</p>\n        ","response":null,"trial_type":"html-keyboard-response","trial_index":29,"plugin_version":"2.1.0","time_elapsed":108815},{"rt":null,"stimulus":"<div class=\"fixation\" style=\"font-size: 60px;\">+</div>","response":null,"trial_type":"html-keyboard-response","trial_index":30,"plugin_version":"2.1.0","time_elapsed":109830},{"target_group":"white","target_index":0,"condition_label":"practice","rt":-1,"response":"","correct":false,"choices":"ALL_KEYS","correct_choice":["a"],"trial_duration":2000,"flip_timestamps":[],"response_ends_trial":false,"number_of_apertures":2,"number_of_dots":[100,51],"number_of_sets":1,"coherent_direction":[109,318],"coherence":1,"opposite_coherence":0,"dot_radius":2,"dot_side_length":1,"dot_life":-1,"move_distance":1,"aperture_width":300,"aperture_height":300,"dot_color":["white","black"],"dot_shape":"circle","background_color":"#AAA","RDK_type":3,"aperture_type":2,"reinsert_type":2,"frame_rate":32.916666666666664,"frame_rate_array":[17,33,33,34,34,33,33,34,33,33,33,33,33,33,33,33,33,33,33,33,34,33,33,34,33,33,34,33,33,33,33,33,33,33,33,33,33,33,34,33,33,34,33,33,33,33,33,34,33,34,33,33,34,33,33,33,33,33,33,33],"number_of_frames":60,"aperture_center_x":1097.5,"aperture_center_y":617.5,"fixation_cross":true,"fixation_cross_width":15,"fixation_cross_height":15,"fixation_cross_color":"#111","fixation_cross_thickness":1,"border":true,"border_thickness":2,"border_color":"transparent","canvas_width":2195,"canvas_height":1235,"trial_type":"rdk","trial_index":31,"plugin_version":"2.0.0","time_elapsed":111847,"target_direction":109,"distractor_direction":318},{"rt":4003,"stimulus":"\n        <div class=\"response-container\">\n          <div class=\"response-instruction\">\n            <p>rotate the bar by using the left and right arrow keys.</p>\n            <p>when you are determined, press the Enter key.</p>\n          </div>\n          <div class=\"response-circle\">\n            <div class=\"response-fixation\"></div>\n            <div id=\"bar\" class=\"rotating-bar\"></div>\n          </div>\n        </div>\n      ","response":"Enter","trial_type":"html-keyboard-response","trial_index":32,"plugin_version":"2.1.0","time_elapsed":115851,"random_initial_angle":225,"response_angle_css":327,"response_angle_rdk":123,"angular_error_target":14,"angular_error_distractor":165,"target_direction":109,"target_group":"white","reward_points":7},{"rt":null,"stimulus":"\n          <p style=\"color: #00FF00;\">Your reward: 7 points</p>\n        ","response":null,"trial_type":"html-keyboard-response","trial_index":33,"plugin_version":"2.1.0","time_elapsed":117863},{"rt":null,"stimulus":"<div class=\"fixation\" style=\"font-size: 60px;\">+</div>","response":null,"trial_type":"html-keyboard-response","trial_index":34,"plugin_version":"2.1.0","time_elapsed":118877},{"target_group":"white","target_index":0,"condition_label":"practice","rt":-1,"response":"","correct":false,"choices":"ALL_KEYS","correct_choice":["a"],"trial_duration":2000,"flip_timestamps":[],"response_ends_trial":false,"number_of_apertures":2,"number_of_dots":[100,99],"number_of_sets":1,"coherent_direction":[38,281],"coherence":1,"opposite_coherence":0,"dot_radius":2,"dot_side_length":1,"dot_life":-1,"move_distance":1,"aperture_width":300,"aperture_height":300,"dot_color":["white","black"],"dot_shape":"circle","background_color":"#AAA","RDK_type":3,"aperture_type":2,"reinsert_type":2,"frame_rate":32.77049180327869,"frame_rate_array":[13,33,33,33,33,34,33,33,33,33,33,33,34,33,33,33,34,33,33,33,33,33,33,33,33,33,33,33,33,33,33,33,33,33,33,33,33,33,33,33,33,33,33,33,33,34,33,33,33,33,33,33,34,33,33,33,34,33,33,33,33],"number_of_frames":61,"aperture_center_x":1097.5,"aperture_center_y":617.5,"fixation_cross":true,"fixation_cross_width":15,"fixation_cross_height":15,"fixation_cross_color":"#111","fixation_cross_thickness":1,"border":true,"border_thickness":2,"border_color":"transparent","canvas_width":2195,"canvas_height":1235,"trial_type":"rdk","trial_index":35,"plugin_version":"2.0.0","time_elapsed":120893,"target_direction":38,"distractor_direction":281},{"rt":5351,"stimulus":"\n        <div class=\"response-container\">\n          <div class=\"response-instruction\">\n            <p>rotate the bar by using the left and right arrow keys.</p>\n            <p>when you are determined, press the Enter key.</p>\n          </div>\n          <div class=\"response-circle\">\n            <div class=\"response-fixation\"></div>\n            <div id=\"bar\" class=\"rotating-bar\"></div>\n          </div>\n        </div>\n      ","response":"Enter","trial_type":"html-keyboard-response","trial_index":36,"plugin_version":"2.1.0","time_elapsed":126244,"random_initial_angle":216,"response_angle_css":415,"response_angle_rdk":35,"angular_error_target":-3,"angular_error_distractor":114,"target_direction":38,"target_group":"white","reward_points":9},{"rt":null,"stimulus":"\n          <p style=\"color: #00FF00;\">Your reward: 9 points</p>\n        ","response":null,"trial_type":"html-keyboard-response","trial_index":37,"plugin_version":"2.1.0","time_elapsed":128249},{"rt":null,"stimulus":"<div class=\"fixation\" style=\"font-size: 60px;\">+</div>","response":null,"trial_type":"html-keyboard-response","trial_index":38,"plugin_version":"2.1.0","time_elapsed":129264},{"target_group":"black","target_index":1,"condition_label":"practice","rt":-1,"response":"","correct":false,"choices":"ALL_KEYS","correct_choice":["a"],"trial_duration":2000,"flip_timestamps":[],"response_ends_trial":false,"number_of_apertures":2,"number_of_dots":[50,100],"number_of_sets":1,"coherent_direction":[186,41],"coherence":1,"opposite_coherence":0,"dot_radius":2,"dot_side_length":1,"dot_life":-1,"move_distance":1,"aperture_width":300,"aperture_height":300,"dot_color":["white","black"],"dot_shape":"circle","background_color":"#AAA","RDK_type":3,"aperture_type":2,"reinsert_type":2,"frame_rate":32.65,"frame_rate_array":[2,33,33,34,33,33,33,34,33,33,34,33,33,33,34,33,33,33,33,33,34,33,33,33,33,34,33,34,33,34,33,34,33,33,33,33,33,34,33,33,33,33,33,33,33,33,33,33,33,33,33,33,33,33,33,33,33,33,33,33],"number_of_frames":60,"aperture_center_x":1097.5,"aperture_center_y":617.5,"fixation_cross":true,"fixation_cross_width":15,"fixation_cross_height":15,"fixation_cross_color":"#111","fixation_cross_thickness":1,"border":true,"border_thickness":2,"border_color":"transparent","canvas_width":2195,"canvas_height":1235,"trial_type":"rdk","trial_index":39,"plugin_version":"2.0.0","time_elapsed":131266,"target_direction":41,"distractor_direction":186},{"rt":3571,"stimulus":"\n        <div class=\"response-container\">\n          <div class=\"response-instruction\">\n            <p>rotate the bar by using the left and right arrow keys.</p>\n            <p>when you are determined, press the Enter key.</p>\n          </div>\n          <div class=\"response-circle\">\n            <div class=\"response-fixation\"></div>\n            <div id=\"bar\" class=\"rotating-bar\"></div>\n          </div>\n        </div>\n      ","response":"Enter","trial_type":"html-keyboard-response","trial_index":40,"plugin_version":"2.1.0","time_elapsed":134837,"random_initial_angle":332,"response_angle_css":415,"response_angle_rdk":35,"angular_error_target":-6,"angular_error_distractor":-151,"target_direction":41,"target_group":"black","reward_points":8},{"rt":null,"stimulus":"\n          <p style=\"color: #00FF00;\">Your reward: 8 points</p>\n        ","response":null,"trial_type":"html-keyboard-response","trial_index":41,"plugin_version":"2.1.0","time_elapsed":136846},{"rt":null,"stimulus":"<div class=\"fixation\" style=\"font-size: 60px;\">+</div>","response":null,"trial_type":"html-keyboard-response","trial_index":42,"plugin_version":"2.1.0","time_elapsed":137857},{"target_group":"white","target_index":0,"condition_label":"practice","rt":-1,"response":"","correct":false,"choices":"ALL_KEYS","correct_choice":["a"],"trial_duration":2000,"flip_timestamps":[],"response_ends_trial":false,"number_of_apertures":2,"number_of_dots":[100,90],"number_of_sets":1,"coherent_direction":[294,143],"coherence":1,"opposite_coherence":0,"dot_radius":2,"dot_side_length":1,"dot_life":-1,"move_distance":1,"aperture_width":300,"aperture_height":300,"dot_color":["white","black"],"dot_shape":"circle","background_color":"#AAA","RDK_type":3,"aperture_type":2,"reinsert_type":2,"frame_rate":32.95,"frame_rate_array":[18,33,33,33,34,33,34,33,33,33,33,33,34,33,34,33,34,33,33,33,33,33,34,33,33,33,33,33,33,33,33,34,33,33,33,33,34,33,33,33,33,33,33,34,33,33,33,33,33,33,33,33,34,33,34,33,33,33,33,34],"number_of_frames":60,"aperture_center_x":1097.5,"aperture_center_y":617.5,"fixation_cross":true,"fixation_cross_width":15,"fixation_cross_height":15,"fixation_cross_color":"#111","fixation_cross_thickness":1,"border":true,"border_thickness":2,"border_color":"transparent","canvas_width":2195,"canvas_height":1235,"trial_type":"rdk","trial_index":43,"plugin_version":"2.0.0","time_elapsed":139867,"target_direction":294,"distractor_direction":143},{"rt":4828,"stimulus":"\n        <div class=\"response-container\">\n          <div class=\"response-instruction\">\n            <p>rotate the bar by using the left and right arrow keys.</p>\n            <p>when you are determined, press the Enter key.</p>\n          </div>\n          <div class=\"response-circle\">\n            <div class=\"response-fixation\"></div>\n            <div id=\"bar\" class=\"rotating-bar\"></div>\n          </div>\n        </div>\n      ","response":"Enter","trial_type":"html-keyboard-response","trial_index":44,"plugin_version":"2.1.0","time_elapsed":144695,"random_initial_angle":15,"response_angle_css":146,"response_angle_rdk":304,"angular_error_target":10,"angular_error_distractor":161,"target_direction":294,"target_group":"white","reward_points":8},{"rt":null,"stimulus":"\n          <p style=\"color: #00FF00;\">Your reward: 8 points</p>\n        ","response":null,"trial_type":"html-keyboard-response","trial_index":45,"plugin_version":"2.1.0","time_elapsed":146709},{"rt":null,"stimulus":"<div class=\"fixation\" style=\"font-size: 60px;\">+</div>","response":null,"trial_type":"html-keyboard-response","trial_index":46,"plugin_version":"2.1.0","time_elapsed":147723},{"target_group":"black","target_index":1,"condition_label":"practice","rt":-1,"response":"","correct":false,"choices":"ALL_KEYS","correct_choice":["a"],"trial_duration":2000,"flip_timestamps":[],"response_ends_trial":false,"number_of_apertures":2,"number_of_dots":[76,100],"number_of_sets":1,"coherent_direction":[47,183],"coherence":1,"opposite_coherence":0,"dot_radius":2,"dot_side_length":1,"dot_life":-1,"move_distance":1,"aperture_width":300,"aperture_height":300,"dot_color":["white","black"],"dot_shape":"circle","background_color":"#AAA","RDK_type":3,"aperture_type":2,"reinsert_type":2,"frame_rate":33.15,"frame_rate_array":[28,33,33,33,34,33,33,34,33,33,33,34,33,33,33,33,34,33,33,33,33,33,34,33,33,33,33,33,33,33,33,33,33,33,33,33,33,34,34,33,33,33,33,34,33,34,33,33,34,33,33,34,33,33,33,34,33,34,33,34],"number_of_frames":60,"aperture_center_x":1097.5,"aperture_center_y":617.5,"fixation_cross":true,"fixation_cross_width":15,"fixation_cross_height":15,"fixation_cross_color":"#111","fixation_cross_thickness":1,"border":true,"border_thickness":2,"border_color":"transparent","canvas_width":2195,"canvas_height":1235,"trial_type":"rdk","trial_index":47,"plugin_version":"2.0.0","time_elapsed":149740,"target_direction":183,"distractor_direction":47},{"rt":4188,"stimulus":"\n        <div class=\"response-container\">\n          <div class=\"response-instruction\">\n            <p>rotate the bar by using the left and right arrow keys.</p>\n            <p>when you are determined, press the Enter key.</p>\n          </div>\n          <div class=\"response-circle\">\n            <div class=\"response-fixation\"></div>\n            <div id=\"bar\" class=\"rotating-bar\"></div>\n          </div>\n        </div>\n      ","response":"Enter","trial_type":"html-keyboard-response","trial_index":48,"plugin_version":"2.1.0","time_elapsed":153928,"random_initial_angle":138,"response_angle_css":243,"response_angle_rdk":207,"angular_error_target":24,"angular_error_distractor":160,"target_direction":183,"target_group":"black","reward_points":5},{"rt":null,"stimulus":"\n          <p style=\"color: #00FF00;\">Your reward: 5 points</p>\n        ","response":null,"trial_type":"html-keyboard-response","trial_index":49,"plugin_version":"2.1.0","time_elapsed":155943},{"rt":null,"stimulus":"<div class=\"fixation\" style=\"font-size: 60px;\">+</div>","response":null,"trial_type":"html-keyboard-response","trial_index":50,"plugin_version":"2.1.0","time_elapsed":156957},{"target_group":"black","target_index":1,"condition_label":"practice","rt":-1,"response":"","correct":false,"choices":"ALL_KEYS","correct_choice":["a"],"trial_duration":2000,"flip_timestamps":[],"response_ends_trial":false,"number_of_apertures":2,"number_of_dots":[65,100],"number_of_sets":1,"coherent_direction":[297,191],"coherence":1,"opposite_coherence":0,"dot_radius":2,"dot_side_length":1,"dot_life":-1,"move_distance":1,"aperture_width":300,"aperture_height":300,"dot_color":["white","black"],"dot_shape":"circle","background_color":"#AAA","RDK_type":3,"aperture_type":2,"reinsert_type":2,"frame_rate":32.704918032786885,"frame_rate_array":[4,32,33,33,34,33,34,33,33,33,33,33,34,33,33,34,33,33,34,33,33,34,33,33,33,33,33,33,33,34,33,33,33,33,34,33,33,33,33,33,33,33,34,33,33,33,33,33,33,33,33,34,33,33,33,33,34,33,33,33,34],"number_of_frames":61,"aperture_center_x":1097.5,"aperture_center_y":617.5,"fixation_cross":true,"fixation_cross_width":15,"fixation_cross_height":15,"fixation_cross_color":"#111","fixation_cross_thickness":1,"border":true,"border_thickness":2,"border_color":"transparent","canvas_width":2195,"canvas_height":1235,"trial_type":"rdk","trial_index":51,"plugin_version":"2.0.0","time_elapsed":158964,"target_direction":191,"distractor_direction":297},{"rt":2933,"stimulus":"\n        <div class=\"response-container\">\n          <div class=\"response-instruction\">\n            <p>rotate the bar by using the left and right arrow keys.</p>\n            <p>when you are determined, press the Enter key.</p>\n          </div>\n          <div class=\"response-circle\">\n            <div class=\"response-fixation\"></div>\n            <div id=\"bar\" class=\"rotating-bar\"></div>\n          </div>\n        </div>\n      ","response":"Enter","trial_type":"html-keyboard-response","trial_index":52,"plugin_version":"2.1.0","time_elapsed":161898,"random_initial_angle":236,"response_angle_css":288,"response_angle_rdk":162,"angular_error_target":-29,"angular_error_distractor":-135,"target_direction":191,"target_group":"black","reward_points":4},{"rt":null,"stimulus":"\n          <p style=\"color: #00FF00;\">Your reward: 4 points</p>\n        ","response":null,"trial_type":"html-keyboard-response","trial_index":53,"plugin_version":"2.1.0","time_elapsed":163908},{"rt":null,"stimulus":"<div class=\"fixation\" style=\"font-size: 60px;\">+</div>","response":null,"trial_type":"html-keyboard-response","trial_index":54,"plugin_version":"2.1.0","time_elapsed":164923},{"target_group":"white","target_index":0,"condition_label":"practice","rt":-1,"response":"","correct":false,"choices":"ALL_KEYS","correct_choice":["a"],"trial_duration":2000,"flip_timestamps":[],"response_ends_trial":false,"number_of_apertures":2,"number_of_dots":[100,52],"number_of_sets":1,"coherent_direction":[163,22],"coherence":1,"opposite_coherence":0,"dot_radius":2,"dot_side_length":1,"dot_life":-1,"move_distance":1,"aperture_width":300,"aperture_height":300,"dot_color":["white","black"],"dot_shape":"circle","background_color":"#AAA","RDK_type":3,"aperture_type":2,"reinsert_type":2,"frame_rate":32.86666666666667,"frame_rate_array":[12,34,33,33,33,33,33,34,33,33,33,33,34,33,33,33,33,34,33,33,33,34,33,33,33,33,34,33,34,33,33,33,33,34,33,33,33,33,34,33,33,33,33,33,33,33,34,33,34,33,34,33,34,33,33,33,33,33,33,33],"number_of_frames":60,"aperture_center_x":1097.5,"aperture_center_y":617.5,"fixation_cross":true,"fixation_cross_width":15,"fixation_cross_height":15,"fixation_cross_color":"#111","fixation_cross_thickness":1,"border":true,"border_thickness":2,"border_color":"transparent","canvas_width":2195,"canvas_height":1235,"trial_type":"rdk","trial_index":55,"plugin_version":"2.0.0","time_elapsed":166937,"target_direction":163,"distractor_direction":22},{"rt":7353,"stimulus":"\n        <div class=\"response-container\">\n          <div class=\"response-instruction\">\n            <p>rotate the bar by using the left and right arrow keys.</p>\n            <p>when you are determined, press the Enter key.</p>\n          </div>\n          <div class=\"response-circle\">\n            <div class=\"response-fixation\"></div>\n            <div id=\"bar\" class=\"rotating-bar\"></div>\n          </div>\n        </div>\n      ","response":"Enter","trial_type":"html-keyboard-response","trial_index":56,"plugin_version":"2.1.0","time_elapsed":174290,"random_initial_angle":169,"response_angle_css":428,"response_angle_rdk":22,"angular_error_target":-141,"angular_error_distractor":0,"target_direction":163,"target_group":"white","reward_points":0},{"rt":null,"stimulus":"\n          <p style=\"color: #FF3333;\">Your reward: 0 points</p>\n        ","response":null,"trial_type":"html-keyboard-response","trial_index":57,"plugin_version":"2.1.0","time_elapsed":176301},{"rt":null,"stimulus":"<div class=\"fixation\" style=\"font-size: 60px;\">+</div>","response":null,"trial_type":"html-keyboard-response","trial_index":58,"plugin_version":"2.1.0","time_elapsed":177316},{"target_group":"white","target_index":0,"condition_label":"practice","rt":-1,"response":"","correct":false,"choices":"ALL_KEYS","correct_choice":["a"],"trial_duration":2000,"flip_timestamps":[],"response_ends_trial":false,"number_of_apertures":2,"number_of_dots":[100,88],"number_of_sets":1,"coherent_direction":[292,69],"coherence":1,"opposite_coherence":0,"dot_radius":2,"dot_side_length":1,"dot_life":-1,"move_distance":1,"aperture_width":300,"aperture_height":300,"dot_color":["white","black"],"dot_shape":"circle","background_color":"#AAA","RDK_type":3,"aperture_type":2,"reinsert_type":2,"frame_rate":33.18333333333333,"frame_rate_array":[32,33,33,33,34,33,33,33,34,33,33,33,33,33,33,33,33,33,33,34,33,33,34,33,33,33,33,33,33,33,33,34,33,34,33,33,33,34,33,34,33,33,34,33,34,33,33,33,33,33,33,33,34,33,33,33,33,34,33,33],"number_of_frames":60,"aperture_center_x":1097.5,"aperture_center_y":617.5,"fixation_cross":true,"fixation_cross_width":15,"fixation_cross_height":15,"fixation_cross_color":"#111","fixation_cross_thickness":1,"border":true,"border_thickness":2,"border_color":"transparent","canvas_width":2195,"canvas_height":1235,"trial_type":"rdk","trial_index":59,"plugin_version":"2.0.0","time_elapsed":179317,"target_direction":292,"distractor_direction":69},{"rt":3566,"stimulus":"\n        <div class=\"response-container\">\n          <div class=\"response-instruction\">\n            <p>rotate the bar by using the left and right arrow keys.</p>\n            <p>when you are determined, press the Enter key.</p>\n          </div>\n          <div class=\"response-circle\">\n            <div class=\"response-fixation\"></div>\n            <div id=\"bar\" class=\"rotating-bar\"></div>\n          </div>\n        </div>\n      ","response":"Enter","trial_type":"html-keyboard-response","trial_index":60,"plugin_version":"2.1.0","time_elapsed":182883,"random_initial_angle":125,"response_angle_css":190,"response_angle_rdk":260,"angular_error_target":-32,"angular_error_distractor":-169,"target_direction":292,"target_group":"white","reward_points":3},{"rt":null,"stimulus":"\n          <p style=\"color: #00FF00;\">Your reward: 3 points</p>\n        ","response":null,"trial_type":"html-keyboard-response","trial_index":61,"plugin_version":"2.1.0","time_elapsed":184887},{"rt":null,"stimulus":"<div class=\"fixation\" style=\"font-size: 60px;\">+</div>","response":null,"trial_type":"html-keyboard-response","trial_index":62,"plugin_version":"2.1.0","time_elapsed":185900},{"target_group":"black","target_index":1,"condition_label":"practice","rt":-1,"response":"","correct":false,"choices":"ALL_KEYS","correct_choice":["a"],"trial_duration":2000,"flip_timestamps":[],"response_ends_trial":false,"number_of_apertures":2,"number_of_dots":[77,100],"number_of_sets":1,"coherent_direction":[42,162],"coherence":1,"opposite_coherence":0,"dot_radius":2,"dot_side_length":1,"dot_life":-1,"move_distance":1,"aperture_width":300,"aperture_height":300,"dot_color":["white","black"],"dot_shape":"circle","background_color":"#AAA","RDK_type":3,"aperture_type":2,"reinsert_type":2,"frame_rate":32.93333333333333,"frame_rate_array":[22,33,33,33,33,33,33,33,33,34,33,33,33,34,33,33,33,33,33,34,33,33,33,33,33,33,33,33,33,34,33,33,33,33,33,33,33,33,33,33,33,33,33,33,34,33,33,33,34,33,33,34,33,33,33,33,33,33,33,33],"number_of_frames":60,"aperture_center_x":1097.5,"aperture_center_y":617.5,"fixation_cross":true,"fixation_cross_width":15,"fixation_cross_height":15,"fixation_cross_color":"#111","fixation_cross_thickness":1,"border":true,"border_thickness":2,"border_color":"transparent","canvas_width":2195,"canvas_height":1235,"trial_type":"rdk","trial_index":63,"plugin_version":"2.0.0","time_elapsed":187908,"target_direction":162,"distractor_direction":42},{"rt":5458,"stimulus":"\n        <div class=\"response-container\">\n          <div class=\"response-instruction\">\n            <p>rotate the bar by using the left and right arrow keys.</p>\n            <p>when you are determined, press the Enter key.</p>\n          </div>\n          <div class=\"response-circle\">\n            <div class=\"response-fixation\"></div>\n            <div id=\"bar\" class=\"rotating-bar\"></div>\n          </div>\n        </div>\n      ","response":"Enter","trial_type":"html-keyboard-response","trial_index":64,"plugin_version":"2.1.0","time_elapsed":193366,"random_initial_angle":120,"response_angle_css":282,"response_angle_rdk":168,"angular_error_target":6,"angular_error_distractor":126,"target_direction":162,"target_group":"black","reward_points":8},{"rt":null,"stimulus":"\n          <p style=\"color: #00FF00;\">Your reward: 8 points</p>\n        ","response":null,"trial_type":"html-keyboard-response","trial_index":65,"plugin_version":"2.1.0","time_elapsed":195382},{"rt":2216,"stimulus":"\n        <div class=\"instructions-container\">\n          <h2>End of Practice</h2>\n          <p>You have completed the practice trials.</p>\n          <p>Press <strong>Enter</strong> key to begin the main experiment.</p>\n        </div>\n      ","response":"Enter","trial_type":"html-keyboard-response","trial_index":66,"plugin_version":"2.1.0","time_elapsed":197598},{"rt":null,"stimulus":"<div class=\"fixation\" style=\"font-size: 60px;\">+</div>","response":null,"trial_type":"html-keyboard-response","trial_index":67,"plugin_version":"2.1.0","time_elapsed":198601},{"target_group":"white","condition_label":"W_H_vs_B_L_rep13","target_direction":129,"distractor_direction":34,"session_rotation":98,"rt":-1,"response":"","correct":false,"choices":"ALL_KEYS","correct_choice":["a"],"trial_duration":2000,"flip_timestamps":[],"response_ends_trial":false,"number_of_apertures":200,"number_of_dots":[1,1,1,1,1,1,1,1,1,1,1,1,1,1,1,1,1,1,1,1,1,1,1,1,1,1,1,1,1,1,1,1,1,1,1,1,1,1,1,1,1,1,1,1,1,1,1,1,1,1,1,1,1,1,1,1,1,1,1,1,1,1,1,1,1,1,1,1,1,1,1,1,1,1,1,1,1,1,1,1,1,1,1,1,1,1,1,1,1,1,1,1,1,1,1,1,1,1,1,1,1,1,1,1,1,1,1,1,1,1,1,1,1,1,1,1,1,1,1,1,1,1,1,1,1,1,1,1,1,1,1,1,1,1,1,1,1,1,1,1,1,1,1,1,1,1,1,1,1,1,1,1,1,1,1,1,1,1,1,1,1,1,1,1,1,1,1,1,1,1,1,1,1,1,1,1,1,1,1,1,1,1,1,1,1,1,1,1,1,1,1,1,1,1,1,1,1,1,1,1],"number_of_sets":1,"coherent_direction":[34,34,129,34,129,129,129,34,129,34,34,129,129,129,129,129,34,129,129,129,34,129,34,129,129,129,129,129,34,34,34,34,34,34,129,129,129,129,34,34,129,34,129,34,129,129,34,34,129,34,34,34,129,34,129,34,129,129,129,34,34,129,34,129,34,129,34,34,34,34,34,34,129,34,129,34,34,129,129,129,129,129,34,34,129,34,34,129,34,34,34,129,34,34,129,34,129,129,34,129,129,129,34,129,34,34,34,129,129,129,129,129,34,129,34,129,129,129,34,129,129,34,129,34,34,34,129,34,129,34,34,34,34,34,129,129,34,129,34,129,34,34,34,34,34,34,34,34,129,34,34,129,129,129,34,129,129,34,129,129,129,129,34,129,129,34,129,129,34,129,34,34,129,129,34,129,129,129,34,129,34,129,34,34,34,34,129,34,129,34,129,129,34,34,34,129,34,129,129,34],"coherence":1,"opposite_coherence":0,"dot_radius":2,"dot_side_length":1,"dot_life":-1,"move_distance":1,"aperture_width":300,"aperture_height":300,"dot_color":["black","black","white","black","white","white","white","black","white","black","black","white","white","white","white","white","black","white","white","white","black","white","black","white","white","white","white","white","black","black","black","black","black","black","white","white","white","white","black","black","white","black","white","black","white","white","black","black","white","black","black","black","white","black","white","black","white","white","white","black","black","white","black","white","black","white","black","black","black","black","black","black","white","black","white","black","black","white","white","white","white","white","black","black","white","black","black","white","black","black","black","white","black","black","white","black","white","white","black","white","white","white","black","white","black","black","black","white","white","white","white","white","black","white","black","white","white","white","black","white","white","black","white","black","black","black","white","black","white","black","black","black","black","black","white","white","black","white","black","white","black","black","black","black","black","black","black","black","white","black","black","white","white","white","black","white","white","black","white","white","white","white","black","white","white","black","white","white","black","white","black","black","white","white","black","white","white","white","black","white","black","white","black","black","black","black","white","black","white","black","white","white","black","black","black","white","black","white","white","black"],"dot_shape":"circle","background_color":"#AAA","RDK_type":3,"aperture_type":2,"reinsert_type":2,"frame_rate":32.78688524590164,"frame_rate_array":[1,33,33,34,33,34,33,33,34,33,33,33,33,33,34,33,33,34,33,34,33,33,34,33,33,34,34,33,33,33,33,34,33,33,33,33,34,33,33,34,33,33,33,33,34,33,33,33,34,33,34,34,33,34,33,33,34,33,34,33,33],"number_of_frames":61,"aperture_center_x":1097.5,"aperture_center_y":617.5,"fixation_cross":true,"fixation_cross_width":15,"fixation_cross_height":15,"fixation_cross_color":"#111","fixation_cross_thickness":1,"border":true,"border_thickness":2,"border_color":"transparent","canvas_width":2195,"canvas_height":1235,"trial_type":"rdk","trial_index":68,"plugin_version":"2.0.0","time_elapsed":200605},{"rt":4186,"stimulus":"\n        <div class=\"response-container\">\n          <div class=\"response-instruction\">\n            <p>rotate the bar by using the left and right arrow keys.</p>\n            <p>when you are determined, press the Enter key.</p>\n          </div>\n          <div class=\"response-circle\">\n            <div class=\"response-fixation\"></div>\n            <div id=\"bar\" class=\"rotating-bar\"></div>\n          </div>\n        </div>\n      ","response":"Enter","trial_type":"html-keyboard-response","trial_index":69,"plugin_version":"2.1.0","time_elapsed":204791,"random_initial_angle":302,"response_angle_css":411,"response_angle_rdk":39,"angular_error_target":-90,"angular_error_distractor":5,"target_direction":129,"target_group":"white","reward_points":0},{"rt":null,"stimulus":"\n          <p style=\"color: #FF3333;\">Your reward: 0 points</p>\n        ","response":null,"trial_type":"html-keyboard-response","trial_index":70,"plugin_version":"2.1.0","time_elapsed":206803},{"rt":null,"stimulus":"<div class=\"fixation\" style=\"font-size: 60px;\">+</div>","response":null,"trial_type":"html-keyboard-response","trial_index":71,"plugin_version":"2.1.0","time_elapsed":207817},{"target_group":"white","condition_label":"W_H_vs_B_L_rep8","target_direction":127,"distractor_direction":31,"session_rotation":98,"rt":-1,"response":"","correct":false,"choices":"ALL_KEYS","correct_choice":["a"],"trial_duration":2000,"flip_timestamps":[],"response_ends_trial":false,"number_of_apertures":200,"number_of_dots":[1,1,1,1,1,1,1,1,1,1,1,1,1,1,1,1,1,1,1,1,1,1,1,1,1,1,1,1,1,1,1,1,1,1,1,1,1,1,1,1,1,1,1,1,1,1,1,1,1,1,1,1,1,1,1,1,1,1,1,1,1,1,1,1,1,1,1,1,1,1,1,1,1,1,1,1,1,1,1,1,1,1,1,1,1,1,1,1,1,1,1,1,1,1,1,1,1,1,1,1,1,1,1,1,1,1,1,1,1,1,1,1,1,1,1,1,1,1,1,1,1,1,1,1,1,1,1,1,1,1,1,1,1,1,1,1,1,1,1,1,1,1,1,1,1,1,1,1,1,1,1,1,1,1,1,1,1,1,1,1,1,1,1,1,1,1,1,1,1,1,1,1,1,1,1,1,1,1,1,1,1,1,1,1,1,1,1,1,1,1,1,1,1,1,1,1,1,1,1,1],"number_of_sets":1,"coherent_direction":[31,31,31,127,127,31,127,127,31,31,31,31,127,31,31,31,31,31,127,127,31,31,31,31,127,127,127,31,127,31,127,127,127,31,31,31,127,31,31,31,127,127,31,31,127,31,127,31,127,127,31,31,127,127,31,31,127,127,31,127,31,127,127,31,127,127,127,31,127,127,31,127,31,127,127,127,31,127,31,127,127,31,127,31,127,127,31,127,31,31,127,127,31,31,31,31,127,127,31,31,31,127,127,31,31,127,127,31,127,31,127,127,127,31,127,31,31,127,127,127,127,31,31,127,127,127,127,31,31,31,127,31,127,127,31,31,127,31,31,31,31,127,31,127,127,127,127,127,127,127,127,31,127,127,31,127,127,31,31,127,31,31,127,31,31,127,127,127,31,31,127,31,31,31,31,31,31,31,127,31,127,31,31,127,127,127,127,31,31,127,127,127,127,127,31,127,31,31,31,31],"coherence":1,"opposite_coherence":0,"dot_radius":2,"dot_side_length":1,"dot_life":-1,"move_distance":1,"aperture_width":300,"aperture_height":300,"dot_color":["black","black","black","white","white","black","white","white","black","black","black","black","white","black","black","black","black","black","white","white","black","black","black","black","white","white","white","black","white","black","white","white","white","black","black","black","white","black","black","black","white","white","black","black","white","black","white","black","white","white","black","black","white","white","black","black","white","white","black","white","black","white","white","black","white","white","white","black","white","white","black","white","black","white","white","white","black","white","black","white","white","black","white","black","white","white","black","white","black","black","white","white","black","black","black","black","white","white","black","black","black","white","white","black","black","white","white","black","white","black","white","white","white","black","white","black","black","white","white","white","white","black","black","white","white","white","white","black","black","black","white","black","white","white","black","black","white","black","black","black","black","white","black","white","white","white","white","white","white","white","white","black","white","white","black","white","white","black","black","white","black","black","white","black","black","white","white","white","black","black","white","black","black","black","black","black","black","black","white","black","white","black","black","white","white","white","white","black","black","white","white","white","white","white","black","white","black","black","black","black"],"dot_shape":"circle","background_color":"#AAA","RDK_type":3,"aperture_type":2,"reinsert_type":2,"frame_rate":33.083333333333336,"frame_rate_array":[26,33,34,33,33,33,33,33,34,33,33,34,33,33,33,33,33,34,34,33,33,33,33,33,33,33,33,34,33,33,33,33,33,33,33,33,33,33,33,33,33,33,34,33,33,34,33,34,33,33,33,33,33,33,33,34,33,34,33,34],"number_of_frames":60,"aperture_center_x":1097.5,"aperture_center_y":617.5,"fixation_cross":true,"fixation_cross_width":15,"fixation_cross_height":15,"fixation_cross_color":"#111","fixation_cross_thickness":1,"border":true,"border_thickness":2,"border_color":"transparent","canvas_width":2195,"canvas_height":1235,"trial_type":"rdk","trial_index":72,"plugin_version":"2.0.0","time_elapsed":209822},{"rt":3586,"stimulus":"\n        <div class=\"response-container\">\n          <div class=\"response-instruction\">\n            <p>rotate the bar by using the left and right arrow keys.</p>\n            <p>when you are determined, press the Enter key.</p>\n          </div>\n          <div class=\"response-circle\">\n            <div class=\"response-fixation\"></div>\n            <div id=\"bar\" class=\"rotating-bar\"></div>\n          </div>\n        </div>\n      ","response":"Enter","trial_type":"html-keyboard-response","trial_index":73,"plugin_version":"2.1.0","time_elapsed":213409,"random_initial_angle":327,"response_angle_css":422,"response_angle_rdk":28,"angular_error_target":-99,"angular_error_distractor":-3,"target_direction":127,"target_group":"white","reward_points":0},{"rt":null,"stimulus":"\n          <p style=\"color: #FF3333;\">Your reward: 0 points</p>\n        ","response":null,"trial_type":"html-keyboard-response","trial_index":74,"plugin_version":"2.1.0","time_elapsed":215410},{"rt":null,"stimulus":"<div class=\"fixation\" style=\"font-size: 60px;\">+</div>","response":null,"trial_type":"html-keyboard-response","trial_index":75,"plugin_version":"2.1.0","time_elapsed":216421},{"target_group":"white","condition_label":"W_H_vs_B_L_rep7","target_direction":122,"distractor_direction":23,"session_rotation":98,"rt":-1,"response":"","correct":false,"choices":"ALL_KEYS","correct_choice":["a"],"trial_duration":2000,"flip_timestamps":[],"response_ends_trial":false,"number_of_apertures":200,"number_of_dots":[1,1,1,1,1,1,1,1,1,1,1,1,1,1,1,1,1,1,1,1,1,1,1,1,1,1,1,1,1,1,1,1,1,1,1,1,1,1,1,1,1,1,1,1,1,1,1,1,1,1,1,1,1,1,1,1,1,1,1,1,1,1,1,1,1,1,1,1,1,1,1,1,1,1,1,1,1,1,1,1,1,1,1,1,1,1,1,1,1,1,1,1,1,1,1,1,1,1,1,1,1,1,1,1,1,1,1,1,1,1,1,1,1,1,1,1,1,1,1,1,1,1,1,1,1,1,1,1,1,1,1,1,1,1,1,1,1,1,1,1,1,1,1,1,1,1,1,1,1,1,1,1,1,1,1,1,1,1,1,1,1,1,1,1,1,1,1,1,1,1,1,1,1,1,1,1,1,1,1,1,1,1,1,1,1,1,1,1,1,1,1,1,1,1,1,1,1,1,1,1],"number_of_sets":1,"coherent_direction":[122,23,122,23,23,23,122,122,122,23,23,23,23,23,23,23,23,23,122,122,23,122,23,122,23,23,122,23,23,122,23,122,23,23,23,122,23,122,122,23,122,122,122,23,23,122,122,122,122,23,122,23,122,23,23,23,122,23,23,23,122,23,122,23,23,122,122,122,23,122,122,23,23,23,23,122,122,122,122,23,23,122,23,23,23,122,122,122,23,23,122,122,23,122,122,23,122,122,23,23,23,23,23,122,23,122,122,122,23,122,23,23,23,23,122,122,23,122,23,23,23,122,122,122,23,23,122,122,122,23,122,122,23,122,122,122,23,122,122,122,122,122,23,122,23,122,122,122,23,122,122,23,122,23,23,23,23,23,23,122,23,122,23,23,122,122,23,122,122,23,122,23,122,23,122,122,122,23,23,122,23,122,23,122,122,23,122,122,23,122,122,122,122,122,23,122,23,23,23,23],"coherence":1,"opposite_coherence":0,"dot_radius":2,"dot_side_length":1,"dot_life":-1,"move_distance":1,"aperture_width":300,"aperture_height":300,"dot_color":["white","black","white","black","black","black","white","white","white","black","black","black","black","black","black","black","black","black","white","white","black","white","black","white","black","black","white","black","black","white","black","white","black","black","black","white","black","white","white","black","white","white","white","black","black","white","white","white","white","black","white","black","white","black","black","black","white","black","black","black","white","black","white","black","black","white","white","white","black","white","white","black","black","black","black","white","white","white","white","black","black","white","black","black","black","white","white","white","black","black","white","white","black","white","white","black","white","white","black","black","black","black","black","white","black","white","white","white","black","white","black","black","black","black","white","white","black","white","black","black","black","white","white","white","black","black","white","white","white","black","white","white","black","white","white","white","black","white","white","white","white","white","black","white","black","white","white","white","black","white","white","black","white","black","black","black","black","black","black","white","black","white","black","black","white","white","black","white","white","black","white","black","white","black","white","white","white","black","black","white","black","white","black","white","white","black","white","white","black","white","white","white","white","white","black","white","black","black","black","black"],"dot_shape":"circle","background_color":"#AAA","RDK_type":3,"aperture_type":2,"reinsert_type":2,"frame_rate":33.2,"frame_rate_array":[31,33,33,33,33,34,33,34,33,34,33,33,34,33,33,33,34,33,33,33,33,34,33,34,33,34,33,34,33,33,33,33,33,34,33,33,33,34,33,33,34,33,33,33,33,33,33,33,33,33,33,33,33,33,34,33,33,33,33,34],"number_of_frames":60,"aperture_center_x":1097.5,"aperture_center_y":617.5,"fixation_cross":true,"fixation_cross_width":15,"fixation_cross_height":15,"fixation_cross_color":"#111","fixation_cross_thickness":1,"border":true,"border_thickness":2,"border_color":"transparent","canvas_width":2195,"canvas_height":1235,"trial_type":"rdk","trial_index":76,"plugin_version":"2.0.0","time_elapsed":218423},{"rt":5235,"stimulus":"\n        <div class=\"response-container\">\n          <div class=\"response-instruction\">\n            <p>rotate the bar by using the left and right arrow keys.</p>\n            <p>when you are determined, press the Enter key.</p>\n          </div>\n          <div class=\"response-circle\">\n            <div class=\"response-fixation\"></div>\n            <div id=\"bar\" class=\"rotating-bar\"></div>\n          </div>\n        </div>\n      ","response":"Enter","trial_type":"html-keyboard-response","trial_index":77,"plugin_version":"2.1.0","time_elapsed":223658,"random_initial_angle":220,"response_angle_css":431,"response_angle_rdk":19,"angular_error_target":-103,"angular_error_distractor":-4,"target_direction":122,"target_group":"white","reward_points":0},{"rt":null,"stimulus":"\n          <p style=\"color: #FF3333;\">Your reward: 0 points</p>\n        ","response":null,"trial_type":"html-keyboard-response","trial_index":78,"plugin_version":"2.1.0","time_elapsed":225662},{"rt":null,"stimulus":"<div class=\"fixation\" style=\"font-size: 60px;\">+</div>","response":null,"trial_type":"html-keyboard-response","trial_index":79,"plugin_version":"2.1.0","time_elapsed":226679},{"target_group":"black","condition_label":"B_H_vs_W_L_rep6","target_direction":196,"distractor_direction":302,"session_rotation":98,"rt":-1,"response":"","correct":false,"choices":"ALL_KEYS","correct_choice":["a"],"trial_duration":2000,"flip_timestamps":[],"response_ends_trial":false,"number_of_apertures":200,"number_of_dots":[1,1,1,1,1,1,1,1,1,1,1,1,1,1,1,1,1,1,1,1,1,1,1,1,1,1,1,1,1,1,1,1,1,1,1,1,1,1,1,1,1,1,1,1,1,1,1,1,1,1,1,1,1,1,1,1,1,1,1,1,1,1,1,1,1,1,1,1,1,1,1,1,1,1,1,1,1,1,1,1,1,1,1,1,1,1,1,1,1,1,1,1,1,1,1,1,1,1,1,1,1,1,1,1,1,1,1,1,1,1,1,1,1,1,1,1,1,1,1,1,1,1,1,1,1,1,1,1,1,1,1,1,1,1,1,1,1,1,1,1,1,1,1,1,1,1,1,1,1,1,1,1,1,1,1,1,1,1,1,1,1,1,1,1,1,1,1,1,1,1,1,1,1,1,1,1,1,1,1,1,1,1,1,1,1,1,1,1,1,1,1,1,1,1,1,1,1,1,1,1],"number_of_sets":1,"coherent_direction":[196,196,302,302,196,302,196,196,302,302,302,196,196,302,196,302,196,196,196,302,196,196,196,196,302,196,302,302,196,302,302,196,196,302,196,302,302,302,196,302,302,302,196,196,302,302,302,196,196,196,302,302,196,302,302,196,302,196,196,196,302,196,302,302,302,196,302,196,196,196,302,196,302,302,302,196,302,196,302,302,302,302,302,302,302,196,196,302,302,196,196,196,196,196,196,196,196,196,196,196,196,196,196,196,196,302,302,302,302,196,302,302,196,196,302,302,302,196,196,302,302,196,302,302,196,196,196,302,196,196,196,302,196,302,302,302,302,302,196,302,302,196,302,302,196,196,196,302,302,196,196,302,196,302,196,302,302,302,302,196,196,196,302,302,302,196,196,302,302,196,196,302,196,302,302,302,302,302,196,196,302,196,302,196,302,196,196,196,302,196,196,302,196,302,302,302,196,302,196,196],"coherence":1,"opposite_coherence":0,"dot_radius":2,"dot_side_length":1,"dot_life":-1,"move_distance":1,"aperture_width":300,"aperture_height":300,"dot_color":["black","black","white","white","black","white","black","black","white","white","white","black","black","white","black","white","black","black","black","white","black","black","black","black","white","black","white","white","black","white","white","black","black","white","black","white","white","white","black","white","white","white","black","black","white","white","white","black","black","black","white","white","black","white","white","black","white","black","black","black","white","black","white","white","white","black","white","black","black","black","white","black","white","white","white","black","white","black","white","white","white","white","white","white","white","black","black","white","white","black","black","black","black","black","black","black","black","black","black","black","black","black","black","black","black","white","white","white","white","black","white","white","black","black","white","white","white","black","black","white","white","black","white","white","black","black","black","white","black","black","black","white","black","white","white","white","white","white","black","white","white","black","white","white","black","black","black","white","white","black","black","white","black","white","black","white","white","white","white","black","black","black","white","white","white","black","black","white","white","black","black","white","black","white","white","white","white","white","black","black","white","black","white","black","white","black","black","black","white","black","black","white","black","white","white","white","black","white","black","black"],"dot_shape":"circle","background_color":"#AAA","RDK_type":3,"aperture_type":2,"reinsert_type":2,"frame_rate":32.95,"frame_rate_array":[16,33,33,33,33,34,33,33,34,33,34,33,33,34,33,33,33,33,33,33,33,33,34,33,33,33,34,33,33,34,33,33,33,33,33,33,34,33,34,33,33,33,33,34,33,33,34,33,34,33,33,34,33,33,33,33,33,34,33,33],"number_of_frames":60,"aperture_center_x":1097.5,"aperture_center_y":617.5,"fixation_cross":true,"fixation_cross_width":15,"fixation_cross_height":15,"fixation_cross_color":"#111","fixation_cross_thickness":1,"border":true,"border_thickness":2,"border_color":"transparent","canvas_width":2195,"canvas_height":1235,"trial_type":"rdk","trial_index":80,"plugin_version":"2.0.0","time_elapsed":228689},{"rt":3402,"stimulus":"\n        <div class=\"response-container\">\n          <div class=\"response-instruction\">\n            <p>rotate the bar by using the left and right arrow keys.</p>\n            <p>when you are determined, press the Enter key.</p>\n          </div>\n          <div class=\"response-circle\">\n            <div class=\"response-fixation\"></div>\n            <div id=\"bar\" class=\"rotating-bar\"></div>\n          </div>\n        </div>\n      ","response":"Enter","trial_type":"html-keyboard-response","trial_index":81,"plugin_version":"2.1.0","time_elapsed":232091,"random_initial_angle":183,"response_angle_css":167,"response_angle_rdk":283,"angular_error_target":87,"angular_error_distractor":-19,"target_direction":196,"target_group":"black","reward_points":0},{"rt":null,"stimulus":"\n          <p style=\"color: #FF3333;\">Your reward: 0 points</p>\n        ","response":null,"trial_type":"html-keyboard-response","trial_index":82,"plugin_version":"2.1.0","time_elapsed":234098},{"rt":null,"stimulus":"<div class=\"fixation\" style=\"font-size: 60px;\">+</div>","response":null,"trial_type":"html-keyboard-response","trial_index":83,"plugin_version":"2.1.0","time_elapsed":235111},{"target_group":"black","condition_label":"B_H_vs_W_L_rep7","target_direction":202,"distractor_direction":298,"session_rotation":98,"rt":-1,"response":"","correct":false,"choices":"ALL_KEYS","correct_choice":["a"],"trial_duration":2000,"flip_timestamps":[],"response_ends_trial":false,"number_of_apertures":200,"number_of_dots":[1,1,1,1,1,1,1,1,1,1,1,1,1,1,1,1,1,1,1,1,1,1,1,1,1,1,1,1,1,1,1,1,1,1,1,1,1,1,1,1,1,1,1,1,1,1,1,1,1,1,1,1,1,1,1,1,1,1,1,1,1,1,1,1,1,1,1,1,1,1,1,1,1,1,1,1,1,1,1,1,1,1,1,1,1,1,1,1,1,1,1,1,1,1,1,1,1,1,1,1,1,1,1,1,1,1,1,1,1,1,1,1,1,1,1,1,1,1,1,1,1,1,1,1,1,1,1,1,1,1,1,1,1,1,1,1,1,1,1,1,1,1,1,1,1,1,1,1,1,1,1,1,1,1,1,1,1,1,1,1,1,1,1,1,1,1,1,1,1,1,1,1,1,1,1,1,1,1,1,1,1,1,1,1,1,1,1,1,1,1,1,1,1,1,1,1,1,1,1,1],"number_of_sets":1,"coherent_direction":[298,298,202,298,298,298,202,298,298,298,298,298,298,202,298,298,298,202,298,202,202,298,298,298,298,202,202,298,298,202,202,298,298,202,202,202,202,298,202,202,202,298,202,298,298,202,202,298,298,202,298,298,202,202,202,202,298,202,298,298,202,202,298,202,298,202,298,298,298,298,202,298,202,202,202,202,298,202,298,202,298,202,202,202,298,298,202,298,298,202,202,298,202,202,298,298,298,298,298,202,298,298,202,202,202,298,202,202,202,298,202,298,298,202,202,298,202,298,298,202,202,202,202,202,202,202,298,298,202,202,298,298,202,202,202,202,298,298,298,298,202,298,202,298,298,298,298,298,298,202,202,298,298,298,202,202,298,202,298,202,202,298,202,202,202,202,202,298,298,298,298,202,202,202,298,298,298,298,202,298,298,202,298,202,298,298,298,202,202,298,202,202,202,202,202,298,202,202,202,202],"coherence":1,"opposite_coherence":0,"dot_radius":2,"dot_side_length":1,"dot_life":-1,"move_distance":1,"aperture_width":300,"aperture_height":300,"dot_color":["white","white","black","white","white","white","black","white","white","white","white","white","white","black","white","white","white","black","white","black","black","white","white","white","white","black","black","white","white","black","black","white","white","black","black","black","black","white","black","black","black","white","black","white","white","black","black","white","white","black","white","white","black","black","black","black","white","black","white","white","black","black","white","black","white","black","white","white","white","white","black","white","black","black","black","black","white","black","white","black","white","black","black","black","white","white","black","white","white","black","black","white","black","black","white","white","white","white","white","black","white","white","black","black","black","white","black","black","black","white","black","white","white","black","black","white","black","white","white","black","black","black","black","black","black","black","white","white","black","black","white","white","black","black","black","black","white","white","white","white","black","white","black","white","white","white","white","white","white","black","black","white","white","white","black","black","white","black","white","black","black","white","black","black","black","black","black","white","white","white","white","black","black","black","white","white","white","white","black","white","white","black","white","black","white","white","white","black","black","white","black","black","black","black","black","white","black","black","black","black"],"dot_shape":"circle","background_color":"#AAA","RDK_type":3,"aperture_type":2,"reinsert_type":2,"frame_rate":33.166666666666664,"frame_rate_array":[27,33,34,33,34,33,33,33,33,33,33,33,34,33,34,33,34,33,33,33,33,34,33,33,33,34,33,33,33,33,33,33,34,33,34,33,33,33,34,33,34,33,33,34,33,33,33,33,33,34,34,33,33,33,33,34,33,34,33,33],"number_of_frames":60,"aperture_center_x":1097.5,"aperture_center_y":617.5,"fixation_cross":true,"fixation_cross_width":15,"fixation_cross_height":15,"fixation_cross_color":"#111","fixation_cross_thickness":1,"border":true,"border_thickness":2,"border_color":"transparent","canvas_width":2195,"canvas_height":1235,"trial_type":"rdk","trial_index":84,"plugin_version":"2.0.0","time_elapsed":237120},{"rt":3125,"stimulus":"\n        <div class=\"response-container\">\n          <div class=\"response-instruction\">\n            <p>rotate the bar by using the left and right arrow keys.</p>\n            <p>when you are determined, press the Enter key.</p>\n          </div>\n          <div class=\"response-circle\">\n            <div class=\"response-fixation\"></div>\n            <div id=\"bar\" class=\"rotating-bar\"></div>\n          </div>\n        </div>\n      ","response":"Enter","trial_type":"html-keyboard-response","trial_index":85,"plugin_version":"2.1.0","time_elapsed":240245,"random_initial_angle":152,"response_angle_css":127,"response_angle_rdk":323,"angular_error_target":121,"angular_error_distractor":25,"target_direction":202,"target_group":"black","reward_points":0},{"rt":null,"stimulus":"\n          <p style=\"color: #FF3333;\">Your reward: 0 points</p>\n        ","response":null,"trial_type":"html-keyboard-response","trial_index":86,"plugin_version":"2.1.0","time_elapsed":242261},{"rt":null,"stimulus":"<div class=\"fixation\" style=\"font-size: 60px;\">+</div>","response":null,"trial_type":"html-keyboard-response","trial_index":87,"plugin_version":"2.1.0","time_elapsed":243274},{"target_group":"white","condition_label":"W_H_vs_B_L_rep4","target_direction":132,"distractor_direction":13,"session_rotation":98,"rt":-1,"response":"","correct":false,"choices":"ALL_KEYS","correct_choice":["a"],"trial_duration":2000,"flip_timestamps":[],"response_ends_trial":false,"number_of_apertures":200,"number_of_dots":[1,1,1,1,1,1,1,1,1,1,1,1,1,1,1,1,1,1,1,1,1,1,1,1,1,1,1,1,1,1,1,1,1,1,1,1,1,1,1,1,1,1,1,1,1,1,1,1,1,1,1,1,1,1,1,1,1,1,1,1,1,1,1,1,1,1,1,1,1,1,1,1,1,1,1,1,1,1,1,1,1,1,1,1,1,1,1,1,1,1,1,1,1,1,1,1,1,1,1,1,1,1,1,1,1,1,1,1,1,1,1,1,1,1,1,1,1,1,1,1,1,1,1,1,1,1,1,1,1,1,1,1,1,1,1,1,1,1,1,1,1,1,1,1,1,1,1,1,1,1,1,1,1,1,1,1,1,1,1,1,1,1,1,1,1,1,1,1,1,1,1,1,1,1,1,1,1,1,1,1,1,1,1,1,1,1,1,1,1,1,1,1,1,1,1,1,1,1,1,1],"number_of_sets":1,"coherent_direction":[132,13,132,13,13,13,13,132,132,13,132,132,132,13,13,13,13,13,132,132,132,132,132,132,13,132,132,132,132,13,132,13,132,13,13,13,132,132,13,13,13,13,13,132,13,132,132,132,132,13,132,132,132,132,132,132,13,132,13,13,13,132,132,132,13,13,132,13,132,132,13,132,13,13,13,132,13,13,13,132,13,132,13,13,13,132,13,13,13,13,13,13,13,13,132,13,13,13,13,132,13,132,13,13,132,13,13,132,132,13,132,13,132,132,13,132,13,13,13,13,13,132,132,132,13,132,13,132,13,13,132,13,13,13,132,132,132,132,132,132,13,132,13,13,132,132,13,132,13,132,13,132,132,132,132,132,13,132,13,13,13,13,132,13,132,13,132,13,132,132,13,132,132,13,132,13,13,13,132,13,132,13,132,132,132,132,132,13,132,132,13,132,132,132,132,132,132,13,13,13],"coherence":1,"opposite_coherence":0,"dot_radius":2,"dot_side_length":1,"dot_life":-1,"move_distance":1,"aperture_width":300,"aperture_height":300,"dot_color":["white","black","white","black","black","black","black","white","white","black","white","white","white","black","black","black","black","black","white","white","white","white","white","white","black","white","white","white","white","black","white","black","white","black","black","black","white","white","black","black","black","black","black","white","black","white","white","white","white","black","white","white","white","white","white","white","black","white","black","black","black","white","white","white","black","black","white","black","white","white","black","white","black","black","black","white","black","black","black","white","black","white","black","black","black","white","black","black","black","black","black","black","black","black","white","black","black","black","black","white","black","white","black","black","white","black","black","white","white","black","white","black","white","white","black","white","black","black","black","black","black","white","white","white","black","white","black","white","black","black","white","black","black","black","white","white","white","white","white","white","black","white","black","black","white","white","black","white","black","white","black","white","white","white","white","white","black","white","black","black","black","black","white","black","white","black","white","black","white","white","black","white","white","black","white","black","black","black","white","black","white","black","white","white","white","white","white","black","white","white","black","white","white","white","white","white","white","black","black","black"],"dot_shape":"circle","background_color":"#AAA","RDK_type":3,"aperture_type":2,"reinsert_type":2,"frame_rate":32.73770491803279,"frame_rate_array":[5,33,34,33,33,33,34,33,33,33,34,33,33,33,33,33,33,33,33,33,33,33,33,33,34,33,34,33,33,33,33,33,34,33,33,34,33,33,33,33,33,33,34,33,34,33,33,33,34,33,33,33,33,33,34,33,33,34,33,33,33],"number_of_frames":61,"aperture_center_x":1097.5,"aperture_center_y":617.5,"fixation_cross":true,"fixation_cross_width":15,"fixation_cross_height":15,"fixation_cross_color":"#111","fixation_cross_thickness":1,"border":true,"border_thickness":2,"border_color":"transparent","canvas_width":2195,"canvas_height":1235,"trial_type":"rdk","trial_index":88,"plugin_version":"2.0.0","time_elapsed":245282},{"rt":3715,"stimulus":"\n        <div class=\"response-container\">\n          <div class=\"response-instruction\">\n            <p>rotate the bar by using the left and right arrow keys.</p>\n            <p>when you are determined, press the Enter key.</p>\n          </div>\n          <div class=\"response-circle\">\n            <div class=\"response-fixation\"></div>\n            <div id=\"bar\" class=\"rotating-bar\"></div>\n          </div>\n        </div>\n      ","response":"Enter","trial_type":"html-keyboard-response","trial_index":89,"plugin_version":"2.1.0","time_elapsed":248998,"random_initial_angle":109,"response_angle_css":66,"response_angle_rdk":24,"angular_error_target":-108,"angular_error_distractor":11,"target_direction":132,"target_group":"white","reward_points":0},{"rt":null,"stimulus":"\n          <p style=\"color: #FF3333;\">Your reward: 0 points</p>\n        ","response":null,"trial_type":"html-keyboard-response","trial_index":90,"plugin_version":"2.1.0","time_elapsed":251008},{"rt":null,"stimulus":"<div class=\"fixation\" style=\"font-size: 60px;\">+</div>","response":null,"trial_type":"html-keyboard-response","trial_index":91,"plugin_version":"2.1.0","time_elapsed":252020},{"target_group":"white","condition_label":"W_H_vs_B_L_rep23","target_direction":121,"distractor_direction":12,"session_rotation":98,"rt":-1,"response":"","correct":false,"choices":"ALL_KEYS","correct_choice":["a"],"trial_duration":2000,"flip_timestamps":[],"response_ends_trial":false,"number_of_apertures":200,"number_of_dots":[1,1,1,1,1,1,1,1,1,1,1,1,1,1,1,1,1,1,1,1,1,1,1,1,1,1,1,1,1,1,1,1,1,1,1,1,1,1,1,1,1,1,1,1,1,1,1,1,1,1,1,1,1,1,1,1,1,1,1,1,1,1,1,1,1,1,1,1,1,1,1,1,1,1,1,1,1,1,1,1,1,1,1,1,1,1,1,1,1,1,1,1,1,1,1,1,1,1,1,1,1,1,1,1,1,1,1,1,1,1,1,1,1,1,1,1,1,1,1,1,1,1,1,1,1,1,1,1,1,1,1,1,1,1,1,1,1,1,1,1,1,1,1,1,1,1,1,1,1,1,1,1,1,1,1,1,1,1,1,1,1,1,1,1,1,1,1,1,1,1,1,1,1,1,1,1,1,1,1,1,1,1,1,1,1,1,1,1,1,1,1,1,1,1,1,1,1,1,1,1],"number_of_sets":1,"coherent_direction":[12,12,121,12,121,121,121,12,12,12,121,121,121,121,121,12,121,12,121,12,12,121,121,12,12,12,12,12,12,12,121,12,12,121,121,121,121,12,12,12,12,121,12,121,121,121,12,121,12,121,12,12,121,12,12,121,12,12,121,121,121,12,12,121,121,121,12,12,12,121,12,121,121,121,121,12,12,121,12,12,121,12,12,121,12,121,121,121,12,121,12,12,12,12,121,121,12,121,121,12,121,12,121,12,12,12,12,12,121,121,12,12,12,121,121,12,121,121,12,12,121,12,121,121,12,121,121,121,12,121,121,12,121,12,121,12,121,121,121,121,12,121,12,121,12,121,12,12,121,121,12,121,12,12,12,12,121,12,12,12,121,121,12,121,12,121,12,121,121,12,121,12,121,121,121,12,121,121,12,12,12,121,12,12,121,121,121,12,121,12,121,121,121,121,121,121,12,12,12,12],"coherence":1,"opposite_coherence":0,"dot_radius":2,"dot_side_length":1,"dot_life":-1,"move_distance":1,"aperture_width":300,"aperture_height":300,"dot_color":["black","black","white","black","white","white","white","black","black","black","white","white","white","white","white","black","white","black","white","black","black","white","white","black","black","black","black","black","black","black","white","black","black","white","white","white","white","black","black","black","black","white","black","white","white","white","black","white","black","white","black","black","white","black","black","white","black","black","white","white","white","black","black","white","white","white","black","black","black","white","black","white","white","white","white","black","black","white","black","black","white","black","black","white","black","white","white","white","black","white","black","black","black","black","white","white","black","white","white","black","white","black","white","black","black","black","black","black","white","white","black","black","black","white","white","black","white","white","black","black","white","black","white","white","black","white","white","white","black","white","white","black","white","black","white","black","white","white","white","white","black","white","black","white","black","white","black","black","white","white","black","white","black","black","black","black","white","black","black","black","white","white","black","white","black","white","black","white","white","black","white","black","white","white","white","black","white","white","black","black","black","white","black","black","white","white","white","black","white","black","white","white","white","white","white","white","black","black","black","black"],"dot_shape":"circle","background_color":"#AAA","RDK_type":3,"aperture_type":2,"reinsert_type":2,"frame_rate":32.704918032786885,"frame_rate_array":[1,33,33,34,33,33,33,33,34,33,34,33,33,33,33,33,34,33,34,33,33,33,34,33,33,33,34,33,33,33,33,33,34,33,33,33,34,33,33,33,34,33,33,33,33,33,34,33,33,34,33,33,34,33,34,33,33,33,33,33,33],"number_of_frames":61,"aperture_center_x":1097.5,"aperture_center_y":617.5,"fixation_cross":true,"fixation_cross_width":15,"fixation_cross_height":15,"fixation_cross_color":"#111","fixation_cross_thickness":1,"border":true,"border_thickness":2,"border_color":"transparent","canvas_width":2195,"canvas_height":1235,"trial_type":"rdk","trial_index":92,"plugin_version":"2.0.0","time_elapsed":254024},{"rt":3142,"stimulus":"\n        <div class=\"response-container\">\n          <div class=\"response-instruction\">\n            <p>rotate the bar by using the left and right arrow keys.</p>\n            <p>when you are determined, press the Enter key.</p>\n          </div>\n          <div class=\"response-circle\">\n            <div class=\"response-fixation\"></div>\n            <div id=\"bar\" class=\"rotating-bar\"></div>\n          </div>\n        </div>\n      ","response":"Enter","trial_type":"html-keyboard-response","trial_index":93,"plugin_version":"2.1.0","time_elapsed":257167,"random_initial_angle":42,"response_angle_css":72,"response_angle_rdk":18,"angular_error_target":-103,"angular_error_distractor":6,"target_direction":121,"target_group":"white","reward_points":0},{"rt":null,"stimulus":"\n          <p style=\"color: #FF3333;\">Your reward: 0 points</p>\n        ","response":null,"trial_type":"html-keyboard-response","trial_index":94,"plugin_version":"2.1.0","time_elapsed":259177},{"rt":null,"stimulus":"<div class=\"fixation\" style=\"font-size: 60px;\">+</div>","response":null,"trial_type":"html-keyboard-response","trial_index":95,"plugin_version":"2.1.0","time_elapsed":260189},{"target_group":"black","condition_label":"B_H_vs_W_L_rep20","target_direction":211,"distractor_direction":304,"session_rotation":98,"rt":-1,"response":"","correct":false,"choices":"ALL_KEYS","correct_choice":["a"],"trial_duration":2000,"flip_timestamps":[],"response_ends_trial":false,"number_of_apertures":200,"number_of_dots":[1,1,1,1,1,1,1,1,1,1,1,1,1,1,1,1,1,1,1,1,1,1,1,1,1,1,1,1,1,1,1,1,1,1,1,1,1,1,1,1,1,1,1,1,1,1,1,1,1,1,1,1,1,1,1,1,1,1,1,1,1,1,1,1,1,1,1,1,1,1,1,1,1,1,1,1,1,1,1,1,1,1,1,1,1,1,1,1,1,1,1,1,1,1,1,1,1,1,1,1,1,1,1,1,1,1,1,1,1,1,1,1,1,1,1,1,1,1,1,1,1,1,1,1,1,1,1,1,1,1,1,1,1,1,1,1,1,1,1,1,1,1,1,1,1,1,1,1,1,1,1,1,1,1,1,1,1,1,1,1,1,1,1,1,1,1,1,1,1,1,1,1,1,1,1,1,1,1,1,1,1,1,1,1,1,1,1,1,1,1,1,1,1,1,1,1,1,1,1,1],"number_of_sets":1,"coherent_direction":[304,304,211,304,304,304,304,304,211,211,304,304,211,211,304,211,304,304,211,304,211,304,304,211,304,211,211,304,211,304,304,211,211,304,304,304,304,304,211,211,304,304,211,304,211,304,211,304,211,304,211,304,211,304,304,304,304,211,211,304,304,304,211,211,211,211,304,304,211,304,304,304,211,211,304,304,304,304,211,211,304,211,304,211,211,211,304,304,304,211,304,304,211,304,211,211,211,304,211,304,211,304,211,304,211,211,211,304,304,211,211,304,304,211,211,304,211,304,211,211,304,304,211,304,304,211,211,211,304,304,304,304,211,211,304,304,211,211,304,304,304,211,211,211,211,211,304,211,304,211,211,304,304,211,211,304,211,304,211,304,211,211,304,304,211,211,211,211,211,304,304,304,211,211,304,211,211,304,304,211,304,211,304,211,211,211,211,211,304,211,304,211,211,211,304,211,304,211,304,211],"coherence":1,"opposite_coherence":0,"dot_radius":2,"dot_side_length":1,"dot_life":-1,"move_distance":1,"aperture_width":300,"aperture_height":300,"dot_color":["white","white","black","white","white","white","white","white","black","black","white","white","black","black","white","black","white","white","black","white","black","white","white","black","white","black","black","white","black","white","white","black","black","white","white","white","white","white","black","black","white","white","black","white","black","white","black","white","black","white","black","white","black","white","white","white","white","black","black","white","white","white","black","black","black","black","white","white","black","white","white","white","black","black","white","white","white","white","black","black","white","black","white","black","black","black","white","white","white","black","white","white","black","white","black","black","black","white","black","white","black","white","black","white","black","black","black","white","white","black","black","white","white","black","black","white","black","white","black","black","white","white","black","white","white","black","black","black","white","white","white","white","black","black","white","white","black","black","white","white","white","black","black","black","black","black","white","black","white","black","black","white","white","black","black","white","black","white","black","white","black","black","white","white","black","black","black","black","black","white","white","white","black","black","white","black","black","white","white","black","white","black","white","black","black","black","black","black","white","black","white","black","black","black","white","black","white","black","white","black"],"dot_shape":"circle","background_color":"#AAA","RDK_type":3,"aperture_type":2,"reinsert_type":2,"frame_rate":32.78688524590164,"frame_rate_array":[6,33,33,34,33,33,33,34,34,33,34,33,34,33,33,33,33,33,33,34,33,33,34,33,33,34,33,34,33,33,33,33,33,33,33,33,33,33,33,34,33,33,33,34,33,33,33,33,33,33,34,33,33,34,33,33,33,33,33,34,33],"number_of_frames":61,"aperture_center_x":1097.5,"aperture_center_y":617.5,"fixation_cross":true,"fixation_cross_width":15,"fixation_cross_height":15,"fixation_cross_color":"#111","fixation_cross_thickness":1,"border":true,"border_thickness":2,"border_color":"transparent","canvas_width":2195,"canvas_height":1235,"trial_type":"rdk","trial_index":96,"plugin_version":"2.0.0","time_elapsed":262199},{"rt":4136,"stimulus":"\n        <div class=\"response-container\">\n          <div class=\"response-instruction\">\n            <p>rotate the bar by using the left and right arrow keys.</p>\n            <p>when you are determined, press the Enter key.</p>\n          </div>\n          <div class=\"response-circle\">\n            <div class=\"response-fixation\"></div>\n            <div id=\"bar\" class=\"rotating-bar\"></div>\n          </div>\n        </div>\n      ","response":"Enter","trial_type":"html-keyboard-response","trial_index":97,"plugin_version":"2.1.0","time_elapsed":266335,"random_initial_angle":325,"response_angle_css":282,"response_angle_rdk":168,"angular_error_target":-43,"angular_error_distractor":-136,"target_direction":211,"target_group":"black","reward_points":1},{"rt":null,"stimulus":"\n          <p style=\"color: #FF3333;\">Your reward: 1 points</p>\n        ","response":null,"trial_type":"html-keyboard-response","trial_index":98,"plugin_version":"2.1.0","time_elapsed":268338},{"rt":null,"stimulus":"<div class=\"fixation\" style=\"font-size: 60px;\">+</div>","response":null,"trial_type":"html-keyboard-response","trial_index":99,"plugin_version":"2.1.0","time_elapsed":269348},{"target_group":"white","condition_label":"W_H_vs_B_L_rep12","target_direction":132,"distractor_direction":39,"session_rotation":98,"rt":-1,"response":"","correct":false,"choices":"ALL_KEYS","correct_choice":["a"],"trial_duration":2000,"flip_timestamps":[],"response_ends_trial":false,"number_of_apertures":200,"number_of_dots":[1,1,1,1,1,1,1,1,1,1,1,1,1,1,1,1,1,1,1,1,1,1,1,1,1,1,1,1,1,1,1,1,1,1,1,1,1,1,1,1,1,1,1,1,1,1,1,1,1,1,1,1,1,1,1,1,1,1,1,1,1,1,1,1,1,1,1,1,1,1,1,1,1,1,1,1,1,1,1,1,1,1,1,1,1,1,1,1,1,1,1,1,1,1,1,1,1,1,1,1,1,1,1,1,1,1,1,1,1,1,1,1,1,1,1,1,1,1,1,1,1,1,1,1,1,1,1,1,1,1,1,1,1,1,1,1,1,1,1,1,1,1,1,1,1,1,1,1,1,1,1,1,1,1,1,1,1,1,1,1,1,1,1,1,1,1,1,1,1,1,1,1,1,1,1,1,1,1,1,1,1,1,1,1,1,1,1,1,1,1,1,1,1,1,1,1,1,1,1,1],"number_of_sets":1,"coherent_direction":[39,39,39,39,132,132,39,132,39,132,132,132,39,39,39,132,132,39,132,39,132,132,132,132,132,39,132,39,132,132,39,39,132,132,39,132,132,132,39,132,132,132,132,132,132,132,132,132,132,132,39,39,39,132,132,39,39,132,39,132,132,39,39,39,39,39,132,39,132,39,132,132,39,39,39,132,39,39,39,39,39,132,39,39,39,132,132,132,132,39,132,132,39,39,132,132,132,132,132,132,39,132,39,39,39,132,39,39,132,39,132,132,132,132,39,39,39,132,132,132,132,39,39,132,39,132,39,39,39,132,39,39,132,39,39,132,39,132,39,132,132,39,132,39,39,132,39,132,132,132,132,39,39,132,39,39,132,39,132,132,39,39,39,132,39,39,39,132,132,39,39,132,39,132,39,132,132,39,39,39,39,39,39,39,132,39,39,132,39,132,132,39,39,39,132,39,39,132,132,132],"coherence":1,"opposite_coherence":0,"dot_radius":2,"dot_side_length":1,"dot_life":-1,"move_distance":1,"aperture_width":300,"aperture_height":300,"dot_color":["black","black","black","black","white","white","black","white","black","white","white","white","black","black","black","white","white","black","white","black","white","white","white","white","white","black","white","black","white","white","black","black","white","white","black","white","white","white","black","white","white","white","white","white","white","white","white","white","white","white","black","black","black","white","white","black","black","white","black","white","white","black","black","black","black","black","white","black","white","black","white","white","black","black","black","white","black","black","black","black","black","white","black","black","black","white","white","white","white","black","white","white","black","black","white","white","white","white","white","white","black","white","black","black","black","white","black","black","white","black","white","white","white","white","black","black","black","white","white","white","white","black","black","white","black","white","black","black","black","white","black","black","white","black","black","white","black","white","black","white","white","black","white","black","black","white","black","white","white","white","white","black","black","white","black","black","white","black","white","white","black","black","black","white","black","black","black","white","white","black","black","white","black","white","black","white","white","black","black","black","black","black","black","black","white","black","black","white","black","white","white","black","black","black","white","black","black","white","white","white"],"dot_shape":"circle","background_color":"#AAA","RDK_type":3,"aperture_type":2,"reinsert_type":2,"frame_rate":33,"frame_rate_array":[23,33,33,33,33,33,33,34,33,33,33,33,33,33,33,34,33,33,33,34,33,33,33,33,33,33,34,33,34,33,33,33,33,33,33,34,33,33,34,33,34,33,33,33,33,33,34,33,33,33,33,33,33,33,33,33,34,33,33,33],"number_of_frames":60,"aperture_center_x":1097.5,"aperture_center_y":617.5,"fixation_cross":true,"fixation_cross_width":15,"fixation_cross_height":15,"fixation_cross_color":"#111","fixation_cross_thickness":1,"border":true,"border_thickness":2,"border_color":"transparent","canvas_width":2195,"canvas_height":1235,"trial_type":"rdk","trial_index":100,"plugin_version":"2.0.0","time_elapsed":271362},{"rt":4607,"stimulus":"\n        <div class=\"response-container\">\n          <div class=\"response-instruction\">\n            <p>rotate the bar by using the left and right arrow keys.</p>\n            <p>when you are determined, press the Enter key.</p>\n          </div>\n          <div class=\"response-circle\">\n            <div class=\"response-fixation\"></div>\n            <div id=\"bar\" class=\"rotating-bar\"></div>\n          </div>\n        </div>\n      ","response":"Enter","trial_type":"html-keyboard-response","trial_index":101,"plugin_version":"2.1.0","time_elapsed":275969,"random_initial_angle":66,"response_angle_css":-71,"response_angle_rdk":161,"angular_error_target":29,"angular_error_distractor":122,"target_direction":132,"target_group":"white","reward_points":4},{"rt":null,"stimulus":"\n          <p style=\"color: #00FF00;\">Your reward: 4 points</p>\n        ","response":null,"trial_type":"html-keyboard-response","trial_index":102,"plugin_version":"2.1.0","time_elapsed":277980},{"rt":null,"stimulus":"<div class=\"fixation\" style=\"font-size: 60px;\">+</div>","response":null,"trial_type":"html-keyboard-response","trial_index":103,"plugin_version":"2.1.0","time_elapsed":278983},{"target_group":"black","condition_label":"B_H_vs_W_L_rep10","target_direction":188,"distractor_direction":292,"session_rotation":98,"rt":-1,"response":"","correct":false,"choices":"ALL_KEYS","correct_choice":["a"],"trial_duration":2000,"flip_timestamps":[],"response_ends_trial":false,"number_of_apertures":200,"number_of_dots":[1,1,1,1,1,1,1,1,1,1,1,1,1,1,1,1,1,1,1,1,1,1,1,1,1,1,1,1,1,1,1,1,1,1,1,1,1,1,1,1,1,1,1,1,1,1,1,1,1,1,1,1,1,1,1,1,1,1,1,1,1,1,1,1,1,1,1,1,1,1,1,1,1,1,1,1,1,1,1,1,1,1,1,1,1,1,1,1,1,1,1,1,1,1,1,1,1,1,1,1,1,1,1,1,1,1,1,1,1,1,1,1,1,1,1,1,1,1,1,1,1,1,1,1,1,1,1,1,1,1,1,1,1,1,1,1,1,1,1,1,1,1,1,1,1,1,1,1,1,1,1,1,1,1,1,1,1,1,1,1,1,1,1,1,1,1,1,1,1,1,1,1,1,1,1,1,1,1,1,1,1,1,1,1,1,1,1,1,1,1,1,1,1,1,1,1,1,1,1,1],"number_of_sets":1,"coherent_direction":[188,188,292,292,188,292,188,292,292,188,292,188,188,292,188,188,188,188,188,292,292,292,292,292,188,188,292,292,188,292,292,188,292,292,292,292,292,188,292,188,188,188,292,188,292,188,188,188,292,292,188,188,188,292,292,188,292,292,188,188,292,292,188,188,188,188,188,292,188,188,292,188,188,188,188,188,292,292,292,292,188,292,292,188,292,188,188,292,292,188,292,292,292,292,188,292,188,292,188,292,292,188,292,292,292,188,292,292,292,292,188,292,292,188,188,292,188,292,188,188,188,188,292,292,292,188,292,188,292,292,292,292,292,292,292,292,188,292,292,292,188,188,188,188,188,188,188,188,292,188,292,188,188,292,188,292,292,292,292,188,188,188,188,188,188,188,292,188,188,188,292,292,188,188,292,292,292,188,292,188,188,188,188,292,188,292,188,188,188,188,188,292,292,188,292,292,292,292,292,188],"coherence":1,"opposite_coherence":0,"dot_radius":2,"dot_side_length":1,"dot_life":-1,"move_distance":1,"aperture_width":300,"aperture_height":300,"dot_color":["black","black","white","white","black","white","black","white","white","black","white","black","black","white","black","black","black","black","black","white","white","white","white","white","black","black","white","white","black","white","white","black","white","white","white","white","white","black","white","black","black","black","white","black","white","black","black","black","white","white","black","black","black","white","white","black","white","white","black","black","white","white","black","black","black","black","black","white","black","black","white","black","black","black","black","black","white","white","white","white","black","white","white","black","white","black","black","white","white","black","white","white","white","white","black","white","black","white","black","white","white","black","white","white","white","black","white","white","white","white","black","white","white","black","black","white","black","white","black","black","black","black","white","white","white","black","white","black","white","white","white","white","white","white","white","white","black","white","white","white","black","black","black","black","black","black","black","black","white","black","white","black","black","white","black","white","white","white","white","black","black","black","black","black","black","black","white","black","black","black","white","white","black","black","white","white","white","black","white","black","black","black","black","white","black","white","black","black","black","black","black","white","white","black","white","white","white","white","white","black"],"dot_shape":"circle","background_color":"#AAA","RDK_type":3,"aperture_type":2,"reinsert_type":2,"frame_rate":33.083333333333336,"frame_rate_array":[31,33,33,33,33,33,33,33,33,34,33,33,33,33,33,33,33,33,33,34,33,33,33,34,33,33,33,33,33,33,33,34,33,33,33,33,34,33,33,33,33,33,34,33,33,33,33,33,33,34,33,33,33,33,33,33,33,33,33,33],"number_of_frames":60,"aperture_center_x":1097.5,"aperture_center_y":617.5,"fixation_cross":true,"fixation_cross_width":15,"fixation_cross_height":15,"fixation_cross_color":"#111","fixation_cross_thickness":1,"border":true,"border_thickness":2,"border_color":"transparent","canvas_width":2195,"canvas_height":1235,"trial_type":"rdk","trial_index":104,"plugin_version":"2.0.0","time_elapsed":280984},{"rt":3652,"stimulus":"\n        <div class=\"response-container\">\n          <div class=\"response-instruction\">\n            <p>rotate the bar by using the left and right arrow keys.</p>\n            <p>when you are determined, press the Enter key.</p>\n          </div>\n          <div class=\"response-circle\">\n            <div class=\"response-fixation\"></div>\n            <div id=\"bar\" class=\"rotating-bar\"></div>\n          </div>\n        </div>\n      ","response":"Enter","trial_type":"html-keyboard-response","trial_index":105,"plugin_version":"2.1.0","time_elapsed":284637,"random_initial_angle":12,"response_angle_css":-72,"response_angle_rdk":162,"angular_error_target":-26,"angular_error_distractor":-130,"target_direction":188,"target_group":"black","reward_points":4},{"rt":null,"stimulus":"\n          <p style=\"color: #00FF00;\">Your reward: 4 points</p>\n        ","response":null,"trial_type":"html-keyboard-response","trial_index":106,"plugin_version":"2.1.0","time_elapsed":286644},{"rt":null,"stimulus":"<div class=\"fixation\" style=\"font-size: 60px;\">+</div>","response":null,"trial_type":"html-keyboard-response","trial_index":107,"plugin_version":"2.1.0","time_elapsed":287655},{"target_group":"black","condition_label":"B_H_vs_W_L_rep5","target_direction":222,"distractor_direction":316,"session_rotation":98,"rt":-1,"response":"","correct":false,"choices":"ALL_KEYS","correct_choice":["a"],"trial_duration":2000,"flip_timestamps":[],"response_ends_trial":false,"number_of_apertures":200,"number_of_dots":[1,1,1,1,1,1,1,1,1,1,1,1,1,1,1,1,1,1,1,1,1,1,1,1,1,1,1,1,1,1,1,1,1,1,1,1,1,1,1,1,1,1,1,1,1,1,1,1,1,1,1,1,1,1,1,1,1,1,1,1,1,1,1,1,1,1,1,1,1,1,1,1,1,1,1,1,1,1,1,1,1,1,1,1,1,1,1,1,1,1,1,1,1,1,1,1,1,1,1,1,1,1,1,1,1,1,1,1,1,1,1,1,1,1,1,1,1,1,1,1,1,1,1,1,1,1,1,1,1,1,1,1,1,1,1,1,1,1,1,1,1,1,1,1,1,1,1,1,1,1,1,1,1,1,1,1,1,1,1,1,1,1,1,1,1,1,1,1,1,1,1,1,1,1,1,1,1,1,1,1,1,1,1,1,1,1,1,1,1,1,1,1,1,1,1,1,1,1,1,1],"number_of_sets":1,"coherent_direction":[316,222,222,222,222,222,222,316,316,316,222,316,222,316,222,316,222,316,222,316,222,222,222,316,316,316,316,222,222,316,222,316,316,316,222,316,222,316,222,222,316,222,316,222,222,222,222,222,316,316,222,316,222,316,222,316,316,316,222,222,316,316,316,316,222,316,316,316,222,316,316,316,222,316,222,222,222,316,222,316,316,222,316,222,316,222,316,222,316,222,316,316,316,316,316,222,316,316,222,222,222,222,222,222,222,222,316,316,316,222,222,222,316,316,222,316,222,316,316,316,222,316,316,316,316,316,316,316,316,222,222,222,222,222,222,316,222,222,316,316,316,316,222,222,316,222,316,316,316,222,316,222,316,222,316,316,222,222,222,316,222,222,222,316,222,222,222,222,222,316,222,316,316,222,316,316,316,222,316,222,316,222,316,316,222,222,222,316,222,316,222,316,222,222,316,222,222,222,222,316],"coherence":1,"opposite_coherence":0,"dot_radius":2,"dot_side_length":1,"dot_life":-1,"move_distance":1,"aperture_width":300,"aperture_height":300,"dot_color":["white","black","black","black","black","black","black","white","white","white","black","white","black","white","black","white","black","white","black","white","black","black","black","white","white","white","white","black","black","white","black","white","white","white","black","white","black","white","black","black","white","black","white","black","black","black","black","black","white","white","black","white","black","white","black","white","white","white","black","black","white","white","white","white","black","white","white","white","black","white","white","white","black","white","black","black","black","white","black","white","white","black","white","black","white","black","white","black","white","black","white","white","white","white","white","black","white","white","black","black","black","black","black","black","black","black","white","white","white","black","black","black","white","white","black","white","black","white","white","white","black","white","white","white","white","white","white","white","white","black","black","black","black","black","black","white","black","black","white","white","white","white","black","black","white","black","white","white","white","black","white","black","white","black","white","white","black","black","black","white","black","black","black","white","black","black","black","black","black","white","black","white","white","black","white","white","white","black","white","black","white","black","white","white","black","black","black","white","black","white","black","white","black","black","white","black","black","black","black","white"],"dot_shape":"circle","background_color":"#AAA","RDK_type":3,"aperture_type":2,"reinsert_type":2,"frame_rate":32.68852459016394,"frame_rate_array":[2,31,33,33,34,33,34,33,34,33,33,33,33,34,33,33,33,34,33,33,34,33,33,33,34,33,34,33,33,33,33,34,33,33,33,33,33,33,33,34,33,33,34,33,33,33,33,33,33,34,33,33,34,33,33,33,33,33,34,33,33],"number_of_frames":61,"aperture_center_x":1097.5,"aperture_center_y":617.5,"fixation_cross":true,"fixation_cross_width":15,"fixation_cross_height":15,"fixation_cross_color":"#111","fixation_cross_thickness":1,"border":true,"border_thickness":2,"border_color":"transparent","canvas_width":2195,"canvas_height":1235,"trial_type":"rdk","trial_index":108,"plugin_version":"2.0.0","time_elapsed":289659},{"rt":2656,"stimulus":"\n        <div class=\"response-container\">\n          <div class=\"response-instruction\">\n            <p>rotate the bar by using the left and right arrow keys.</p>\n            <p>when you are determined, press the Enter key.</p>\n          </div>\n          <div class=\"response-circle\">\n            <div class=\"response-fixation\"></div>\n            <div id=\"bar\" class=\"rotating-bar\"></div>\n          </div>\n        </div>\n      ","response":"Enter","trial_type":"html-keyboard-response","trial_index":109,"plugin_version":"2.1.0","time_elapsed":292316,"random_initial_angle":220,"response_angle_css":241,"response_angle_rdk":209,"angular_error_target":-13,"angular_error_distractor":-107,"target_direction":222,"target_group":"black","reward_points":7},{"rt":null,"stimulus":"\n          <p style=\"color: #00FF00;\">Your reward: 7 points</p>\n        ","response":null,"trial_type":"html-keyboard-response","trial_index":110,"plugin_version":"2.1.0","time_elapsed":294317},{"rt":null,"stimulus":"<div class=\"fixation\" style=\"font-size: 60px;\">+</div>","response":null,"trial_type":"html-keyboard-respon