[{"rt":12041,"stimulus":"Welcome to the experiment. Press any key to begin.","response":"a","trial_type":"html-keyboard-response","trial_index":0,"plugin_version":"2.1.0","time_elapsed":12044},{"rt":27637,"stimulus":"\n        <div class=\"instructions-container\">\n          <h2>Instructions</h2>\n\n          <p>\n          In this experiment, you will see <strong>two Random Dot Kinematograms (RDKs)</strong> displayed simultaneously.\n          </p>\n\n          <p>\n          An RDK is a visual stimulus consisting of many small dots that move coherently in a single direction. \n          In this experiment, the dots will be either <strong>white</strong> or <strong>black</strong> \n          (see the short demo below for an example of an RDK stimulus).\n          </p>\n\n          <p>\n          On each trial, the two RDKs will move in different directions. \n          Your task is to decide <strong>which RDK appears to contain more dots</strong>.\n          </p>\n\n          <p>\n          The RDK that you judge to have more dots is called the <strong>target RDK</strong>. \n          For example, if the white RDK appears to have more dots than the black RDK, \n          you should report the motion direction of the white RDK.\n          </p>\n\n          <p>\n          After viewing the RDKs, you will rotate a bar to indicate the perceived direction of the target RDK \n          using the <strong>left</strong> and <strong>right arrow keys</strong>. \n          Press <strong>Enter</strong> when you are satisfied with your response.\n          When the bar is held down, the rotation speed increases.\n          </p>\n\n          <p>\n          You will receive points based on the <strong>accuracy of your response</strong>, \n          and your final <strong>bonus reward</strong> may depend on your overall performance. \n          Please try to respond as accurately as possible.\n          </p>\n\n          <p>\n          You will first complete <strong>16 practice trials</strong>. \n          Press the <strong>Enter</strong> key to start the practice phase.\n          </p>\n\n          <canvas id=\"instruction-demo-rdk\" width=\"200\" height=\"200\"style=\"display:block;margin:12px auto; border-radius: 50%;\"></canvas>\n        </div>\n      ","response":"Enter","trial_type":"html-keyboard-response","trial_index":1,"plugin_version":"2.1.0","time_elapsed":39683},{"rt":null,"stimulus":"<div class=\"fixation\" style=\"font-size: 60px;\">+</div>","response":null,"trial_type":"html-keyboard-response","trial_index":2,"plugin_version":"2.1.0","time_elapsed":40699},{"target_group":"white","target_index":0,"condition_label":"practice","rt":-1,"response":"","correct":false,"choices":"ALL_KEYS","correct_choice":["a"],"trial_duration":2000,"flip_timestamps":[],"response_ends_trial":false,"number_of_apertures":2,"number_of_dots":[100,57],"number_of_sets":1,"coherent_direction":[127,225],"coherence":1,"opposite_coherence":0,"dot_radius":2,"dot_side_length":1,"dot_life":-1,"move_distance":1,"aperture_width":300,"aperture_height":300,"dot_color":["white","black"],"dot_shape":"circle","background_color":"#AAA","RDK_type":3,"aperture_type":2,"reinsert_type":2,"frame_rate":13.34,"frame_rate_array":[0,27,12,13,14,14,13,13,14,13,13,13,14,14,13,13,13,14,13,14,13,12,14,14,13,14,12,14,13,14,13,14,13,13,13,14,13,14,13,13,14,13,13,13,14,14,12,13,14,14,13,14,12,14,13,13,14,12,14,13,14,14,12,15,12,14,13,14,13,12,14,14,13,14,13,13,14,13,13,13,14,14,13,13,13,14,13,13,14,13,14,12,14,13,14,13,14,12,15,12,14,13,14,13,13,14,13,13,14,12,15,12,14,14,12,14,13,13,14,13,14,12,15,12,14,13,13,14,13,13,14,13,14,12,14,14,13,13,13,14,14,12,14,13,14,13,14,13,13,14],"number_of_frames":150,"aperture_center_x":960,"aperture_center_y":540,"fixation_cross":true,"fixation_cross_width":15,"fixation_cross_height":15,"fixation_cross_color":"#111","fixation_cross_thickness":1,"border":true,"border_thickness":2,"border_color":"transparent","canvas_width":1920,"canvas_height":1080,"trial_type":"rdk","trial_index":3,"plugin_version":"2.0.0","time_elapsed":42710,"phase":"practice","target_direction":127,"distractor_direction":225},{"rt":5693,"stimulus":"\n        <div class=\"response-container\">\n          <div class=\"response-instruction\">\n            <p>rotate the bar by using the left and right arrow keys.</p>\n            <p>when you are determined, press the Enter key.</p>\n          </div>\n          <div class=\"response-circle\">\n            <div class=\"response-fixation\"></div>\n            <div id=\"bar\" class=\"rotating-bar\"></div>\n          </div>\n        </div>\n      ","response":"Enter","trial_type":"html-keyboard-response","trial_index":4,"plugin_version":"2.1.0","time_elapsed":48404,"random_initial_angle":122,"response_angle_css":-43,"response_angle_rdk":133,"angular_error_target":6,"angular_error_distractor":-92,"target_direction":127,"target_group":"white","reward_points":8},{"rt":null,"stimulus":"\n          <p style=\"color: #00FF00;\">Your reward: 8 points</p>\n        ","response":null,"trial_type":"html-keyboard-response","trial_index":5,"plugin_version":"2.1.0","time_elapsed":50416},{"rt":null,"stimulus":"<div class=\"fixation\" style=\"font-size: 60px;\">+</div>","response":null,"trial_type":"html-keyboard-response","trial_index":6,"plugin_version":"2.1.0","time_elapsed":51496},{"target_group":"black","target_index":1,"condition_label":"practice","rt":-1,"response":"","correct":false,"choices":"ALL_KEYS","correct_choice":["a"],"trial_duration":2000,"flip_timestamps":[],"response_ends_trial":false,"number_of_apertures":2,"number_of_dots":[74,100],"number_of_sets":1,"coherent_direction":[177,57],"coherence":1,"opposite_coherence":0,"dot_radius":2,"dot_side_length":1,"dot_life":-1,"move_distance":1,"aperture_width":300,"aperture_height":300,"dot_color":["white","black"],"dot_shape":"circle","background_color":"#AAA","RDK_type":3,"aperture_type":2,"reinsert_type":2,"frame_rate":13.211920529801324,"frame_rate_array":[1,9,10,14,14,13,14,12,14,14,12,14,14,13,13,14,13,14,12,14,14,13,12,14,14,13,13,13,14,13,14,13,13,13,14,13,13,14,13,13,14,13,13,15,13,13,12,14,14,13,14,12,14,13,13,14,14,13,13,13,14,13,13,14,13,14,13,13,14,13,13,13,13,14,13,14,13,13,14,12,14,14,13,14,12,14,13,14,14,12,14,13,13,13,14,14,13,13,14,13,13,13,14,14,12,13,14,14,13,13,13,14,13,13,14,14,12,14,13,13,13,15,13,12,14,13,14,13,13,14,13,14,13,13,14,14,12,13,14,14,13,13,13,14,13,13,14,13,13,13,14],"number_of_frames":151,"aperture_center_x":960,"aperture_center_y":540,"fixation_cross":true,"fixation_cross_width":15,"fixation_cross_height":15,"fixation_cross_color":"#111","fixation_cross_thickness":1,"border":true,"border_thickness":2,"border_color":"transparent","canvas_width":1920,"canvas_height":1080,"trial_type":"rdk","trial_index":7,"plugin_version":"2.0.0","time_elapsed":53502,"phase":"practice","target_direction":57,"distractor_direction":177},{"rt":3116,"stimulus":"\n        <div class=\"response-container\">\n          <div class=\"response-instruction\">\n            <p>rotate the bar by using the left and right arrow keys.</p>\n            <p>when you are determined, press the Enter key.</p>\n          </div>\n          <div class=\"response-circle\">\n            <div class=\"response-fixation\"></div>\n            <div id=\"bar\" class=\"rotating-bar\"></div>\n          </div>\n        </div>\n      ","response":"Enter","trial_type":"html-keyboard-response","trial_index":8,"plugin_version":"2.1.0","time_elapsed":56620,"random_initial_angle":69,"response_angle_css":-90,"response_angle_rdk":180,"angular_error_target":123,"angular_error_distractor":3,"target_direction":57,"target_group":"black","reward_points":0},{"rt":null,"stimulus":"\n          <p style=\"color: #FF3333;\">Your reward: 0 points</p>\n        ","response":null,"trial_type":"html-keyboard-response","trial_index":9,"plugin_version":"2.1.0","time_elapsed":58626},{"rt":null,"stimulus":"<div class=\"fixation\" style=\"font-size: 60px;\">+</div>","response":null,"trial_type":"html-keyboard-response","trial_index":10,"plugin_version":"2.1.0","time_elapsed":59633},{"target_group":"white","target_index":0,"condition_label":"practice","rt":-1,"response":"","correct":false,"choices":"ALL_KEYS","correct_choice":["a"],"trial_duration":2000,"flip_timestamps":[],"response_ends_trial":false,"number_of_apertures":2,"number_of_dots":[100,81],"number_of_sets":1,"coherent_direction":[115,326],"coherence":1,"opposite_coherence":0,"dot_radius":2,"dot_side_length":1,"dot_life":-1,"move_distance":1,"aperture_width":300,"aperture_height":300,"dot_color":["white","black"],"dot_shape":"circle","background_color":"#AAA","RDK_type":3,"aperture_type":2,"reinsert_type":2,"frame_rate":13.211920529801324,"frame_rate_array":[0,10,10,14,13,13,14,13,13,14,13,14,13,13,14,13,14,12,14,14,12,14,13,14,13,13,13,14,13,14,13,13,14,13,13,14,13,13,14,13,13,14,13,14,12,14,13,14,14,12,13,14,13,14,13,14,12,14,13,14,13,13,14,12,15,13,13,13,13,14,13,14,13,14,13,13,13,14,13,14,12,14,13,14,13,14,13,13,13,14,13,14,13,14,13,13,13,14,13,13,14,13,13,13,14,14,13,13,13,14,13,13,14,13,14,12,14,13,14,13,13,14,13,13,14,12,14,13,14,14,13,13,14,12,14,13,14,14,13,13,13,14,13,13,14,12,14,13,14,14,13],"number_of_frames":151,"aperture_center_x":960,"aperture_center_y":540,"fixation_cross":true,"fixation_cross_width":15,"fixation_cross_height":15,"fixation_cross_color":"#111","fixation_cross_thickness":1,"border":true,"border_thickness":2,"border_color":"transparent","canvas_width":1920,"canvas_height":1080,"trial_type":"rdk","trial_index":11,"plugin_version":"2.0.0","time_elapsed":61640,"phase":"practice","target_direction":115,"distractor_direction":326},{"rt":2363,"stimulus":"\n        <div class=\"response-container\">\n          <div class=\"response-instruction\">\n            <p>rotate the bar by using the left and right arrow keys.</p>\n            <p>when you are determined, press the Enter key.</p>\n          </div>\n          <div class=\"response-circle\">\n            <div class=\"response-fixation\"></div>\n            <div id=\"bar\" class=\"rotating-bar\"></div>\n          </div>\n        </div>\n      ","response":"Enter","trial_type":"html-keyboard-response","trial_index":12,"plugin_version":"2.1.0","time_elapsed":64004,"random_initial_angle":226,"response_angle_css":329,"response_angle_rdk":121,"angular_error_target":6,"angular_error_distractor":155,"target_direction":115,"target_group":"white","reward_points":8},{"rt":null,"stimulus":"\n          <p style=\"color: #00FF00;\">Your reward: 8 points</p>\n        ","response":null,"trial_type":"html-keyboard-response","trial_index":13,"plugin_version":"2.1.0","time_elapsed":66016},{"rt":null,"stimulus":"<div class=\"fixation\" style=\"font-size: 60px;\">+</div>","response":null,"trial_type":"html-keyboard-response","trial_index":14,"plugin_version":"2.1.0","time_elapsed":67025},{"target_group":"black","target_index":1,"condition_label":"practice","rt":-1,"response":"","correct":false,"choices":"ALL_KEYS","correct_choice":["a"],"trial_duration":2000,"flip_timestamps":[],"response_ends_trial":false,"number_of_apertures":2,"number_of_dots":[56,100],"number_of_sets":1,"coherent_direction":[213,58],"coherence":1,"opposite_coherence":0,"dot_radius":2,"dot_side_length":1,"dot_life":-1,"move_distance":1,"aperture_width":300,"aperture_height":300,"dot_color":["white","black"],"dot_shape":"circle","background_color":"#AAA","RDK_type":3,"aperture_type":2,"reinsert_type":2,"frame_rate":13.19078947368421,"frame_rate_array":[0,6,11,14,13,14,14,13,12,14,13,13,14,14,13,13,13,14,13,13,14,14,12,14,13,13,14,14,12,15,12,14,13,14,13,13,14,13,13,13,14,14,12,13,14,14,13,13,13,13,14,13,14,14,12,13,14,14,13,13,13,14,13,13,14,13,13,13,15,12,14,13,14,12,14,14,13,13,14,13,13,14,13,13,14,13,13,14,13,13,14,13,13,14,13,13,14,13,13,13,14,14,12,14,13,14,13,13,14,14,12,14,13,14,13,13,14,12,14,13,14,13,13,13,14,13,14,13,14,13,13,13,14,14,12,14,13,13,14,13,14,13,13,13,14,13,13,14,13,13,14,13],"number_of_frames":152,"aperture_center_x":960,"aperture_center_y":540,"fixation_cross":true,"fixation_cross_width":15,"fixation_cross_height":15,"fixation_cross_color":"#111","fixation_cross_thickness":1,"border":true,"border_thickness":2,"border_color":"transparent","canvas_width":1920,"canvas_height":1080,"trial_type":"rdk","trial_index":15,"plugin_version":"2.0.0","time_elapsed":69034,"phase":"practice","target_direction":58,"distractor_direction":213},{"rt":1522,"stimulus":"\n        <div class=\"response-container\">\n          <div class=\"response-instruction\">\n            <p>rotate the bar by using the left and right arrow keys.</p>\n            <p>when you are determined, press the Enter key.</p>\n          </div>\n          <div class=\"response-circle\">\n            <div class=\"response-fixation\"></div>\n            <div id=\"bar\" class=\"rotating-bar\"></div>\n          </div>\n        </div>\n      ","response":"Enter","trial_type":"html-keyboard-response","trial_index":16,"plugin_version":"2.1.0","time_elapsed":70556,"random_initial_angle":0,"response_angle_css":53,"response_angle_rdk":37,"angular_error_target":-21,"angular_error_distractor":-176,"target_direction":58,"target_group":"black","reward_points":5},{"rt":null,"stimulus":"\n          <p style=\"color: #00FF00;\">Your reward: 5 points</p>\n        ","response":null,"trial_type":"html-keyboard-response","trial_index":17,"plugin_version":"2.1.0","time_elapsed":72560},{"rt":null,"stimulus":"<div class=\"fixation\" style=\"font-size: 60px;\">+</div>","response":null,"trial_type":"html-keyboard-response","trial_index":18,"plugin_version":"2.1.0","time_elapsed":73572},{"target_group":"black","target_index":1,"condition_label":"practice","rt":-1,"response":"","correct":false,"choices":"ALL_KEYS","correct_choice":["a"],"trial_duration":2000,"flip_timestamps":[],"response_ends_trial":false,"number_of_apertures":2,"number_of_dots":[87,100],"number_of_sets":1,"coherent_direction":[254,128],"coherence":1,"opposite_coherence":0,"dot_radius":2,"dot_side_length":1,"dot_life":-1,"move_distance":1,"aperture_width":300,"aperture_height":300,"dot_color":["white","black"],"dot_shape":"circle","background_color":"#AAA","RDK_type":3,"aperture_type":2,"reinsert_type":2,"frame_rate":13.198675496688741,"frame_rate_array":[0,11,9,13,13,12,14,13,14,14,13,13,14,13,13,13,14,13,13,14,13,13,15,12,14,13,13,13,14,13,14,13,13,13,14,13,14,13,13,13,14,14,12,14,13,14,13,13,14,13,13,14,13,13,14,13,14,13,13,13,14,13,13,13,14,13,14,13,13,13,14,13,14,13,13,14,13,14,13,13,14,12,14,13,14,14,12,14,14,12,14,13,14,13,13,13,14,13,14,13,14,13,13,13,14,13,13,13,14,13,14,13,13,13,14,13,14,13,13,14,13,13,13,14,13,14,13,14,13,13,14,13,14,12,14,13,14,13,13,13,14,14,13,13,13,14,13,13,13,14,13],"number_of_frames":151,"aperture_center_x":960,"aperture_center_y":540,"fixation_cross":true,"fixation_cross_width":15,"fixation_cross_height":15,"fixation_cross_color":"#111","fixation_cross_thickness":1,"border":true,"border_thickness":2,"border_color":"transparent","canvas_width":1920,"canvas_height":1080,"trial_type":"rdk","trial_index":19,"plugin_version":"2.0.0","time_elapsed":75574,"phase":"practice","target_direction":128,"distractor_direction":254},{"rt":3150,"stimulus":"\n        <div class=\"response-container\">\n          <div class=\"response-instruction\">\n            <p>rotate the bar by using the left and right arrow keys.</p>\n            <p>when you are determined, press the Enter key.</p>\n          </div>\n          <div class=\"response-circle\">\n            <div class=\"response-fixation\"></div>\n            <div id=\"bar\" class=\"rotating-bar\"></div>\n          </div>\n        </div>\n      ","response":"Enter","trial_type":"html-keyboard-response","trial_index":20,"plugin_version":"2.1.0","time_elapsed":78724,"random_initial_angle":330,"response_angle_css":564,"response_angle_rdk":246,"angular_error_target":118,"angular_error_distractor":-8,"target_direction":128,"target_group":"black","reward_points":0},{"rt":null,"stimulus":"\n          <p style=\"color: #FF3333;\">Your reward: 0 points</p>\n        ","response":null,"trial_type":"html-keyboard-response","trial_index":21,"plugin_version":"2.1.0","time_elapsed":80726},{"rt":null,"stimulus":"<div class=\"fixation\" style=\"font-size: 60px;\">+</div>","response":null,"trial_type":"html-keyboard-response","trial_index":22,"plugin_version":"2.1.0","time_elapsed":81729},{"target_group":"black","target_index":1,"condition_label":"practice","rt":-1,"response":"","correct":false,"choices":"ALL_KEYS","correct_choice":["a"],"trial_duration":2000,"flip_timestamps":[],"response_ends_trial":false,"number_of_apertures":2,"number_of_dots":[73,100],"number_of_sets":1,"coherent_direction":[333,84],"coherence":1,"opposite_coherence":0,"dot_radius":2,"dot_side_length":1,"dot_life":-1,"move_distance":1,"aperture_width":300,"aperture_height":300,"dot_color":["white","black"],"dot_shape":"circle","background_color":"#AAA","RDK_type":3,"aperture_type":2,"reinsert_type":2,"frame_rate":13.245033112582782,"frame_rate_array":[0,14,11,14,13,13,13,14,13,14,13,13,14,13,14,12,14,14,13,13,13,14,13,13,14,12,14,13,14,13,14,13,13,14,13,13,14,13,14,12,14,13,13,14,13,14,13,13,14,13,14,13,13,14,13,13,14,12,15,12,14,14,13,13,13,14,13,13,14,12,14,13,13,14,13,14,13,14,12,14,14,13,13,13,14,13,14,13,14,12,14,13,14,12,15,13,13,14,13,13,14,12,14,13,14,13,13,14,13,13,13,14,14,12,14,13,14,13,14,13,12,14,13,14,14,13,14,12,14,13,14,13,13,13,14,13,14,12,15,12,14,13,14,13,14,13,12,14,13,14,14],"number_of_frames":151,"aperture_center_x":960,"aperture_center_y":540,"fixation_cross":true,"fixation_cross_width":15,"fixation_cross_height":15,"fixation_cross_color":"#111","fixation_cross_thickness":1,"border":true,"border_thickness":2,"border_color":"transparent","canvas_width":1920,"canvas_height":1080,"trial_type":"rdk","trial_index":23,"plugin_version":"2.0.0","time_elapsed":83739,"phase":"practice","target_direction":84,"distractor_direction":333},{"rt":2521,"stimulus":"\n        <div class=\"response-container\">\n          <div class=\"response-instruction\">\n            <p>rotate the bar by using the left and right arrow keys.</p>\n            <p>when you are determined, press the Enter key.</p>\n          </div>\n          <div class=\"response-circle\">\n            <div class=\"response-fixation\"></div>\n            <div id=\"bar\" class=\"rotating-bar\"></div>\n          </div>\n        </div>\n      ","response":"Enter","trial_type":"html-keyboard-response","trial_index":24,"plugin_version":"2.1.0","time_elapsed":86260,"random_initial_angle":92,"response_angle_css":-13,"response_angle_rdk":103,"angular_error_target":19,"angular_error_distractor":130,"target_direction":84,"target_group":"black","reward_points":6},{"rt":null,"stimulus":"\n          <p style=\"color: #00FF00;\">Your reward: 6 points</p>\n        ","response":null,"trial_type":"html-keyboard-response","trial_index":25,"plugin_version":"2.1.0","time_elapsed":88262},{"rt":null,"stimulus":"<div class=\"fixation\" style=\"font-size: 60px;\">+</div>","response":null,"trial_type":"html-keyboard-response","trial_index":26,"plugin_version":"2.1.0","time_elapsed":89264},{"target_group":"white","target_index":0,"condition_label":"practice","rt":-1,"response":"","correct":false,"choices":"ALL_KEYS","correct_choice":["a"],"trial_duration":2000,"flip_timestamps":[],"response_ends_trial":false,"number_of_apertures":2,"number_of_dots":[100,61],"number_of_sets":1,"coherent_direction":[347,105],"coherence":1,"opposite_coherence":0,"dot_radius":2,"dot_side_length":1,"dot_life":-1,"move_distance":1,"aperture_width":300,"aperture_height":300,"dot_color":["white","black"],"dot_shape":"circle","background_color":"#AAA","RDK_type":3,"aperture_type":2,"reinsert_type":2,"frame_rate":13.251655629139073,"frame_rate_array":[0,25,2,14,13,13,14,13,14,13,13,14,13,13,14,13,13,14,13,13,13,14,14,12,14,13,14,13,13,13,13,14,13,14,14,12,14,13,13,14,13,14,13,13,13,14,14,12,14,13,14,13,13,14,13,13,13,14,13,13,14,13,14,13,14,13,13,13,13,14,14,13,13,14,13,13,13,13,14,14,13,13,13,14,13,13,13,15,12,14,13,14,13,14,12,14,13,14,13,13,14,12,14,14,13,14,12,14,13,14,13,13,14,12,14,14,13,13,13,14,13,14,13,14,13,13,13,14,13,14,13,13,14,12,14,13,14,14,12,14,13,14,13,13,14,13,13,13,14,14,12],"number_of_frames":151,"aperture_center_x":960,"aperture_center_y":540,"fixation_cross":true,"fixation_cross_width":15,"fixation_cross_height":15,"fixation_cross_color":"#111","fixation_cross_thickness":1,"border":true,"border_thickness":2,"border_color":"transparent","canvas_width":1920,"canvas_height":1080,"trial_type":"rdk","trial_index":27,"plugin_version":"2.0.0","time_elapsed":91267,"phase":"practice","target_direction":347,"distractor_direction":105},{"rt":1569,"stimulus":"\n        <div class=\"response-container\">\n          <div class=\"response-instruction\">\n            <p>rotate the bar by using the left and right arrow keys.</p>\n            <p>when you are determined, press the Enter key.</p>\n          </div>\n          <div class=\"response-circle\">\n            <div class=\"response-fixation\"></div>\n            <div id=\"bar\" class=\"rotating-bar\"></div>\n          </div>\n        </div>\n      ","response":"Enter","trial_type":"html-keyboard-response","trial_index":28,"plugin_version":"2.1.0","time_elapsed":92836,"random_initial_angle":168,"response_angle_css":132,"response_angle_rdk":318,"angular_error_target":-29,"angular_error_distractor":-147,"target_direction":347,"target_group":"white","reward_points":4},{"rt":null,"stimulus":"\n          <p style=\"color: #00FF00;\">Your reward: 4 points</p>\n        ","response":null,"trial_type":"html-keyboard-response","trial_index":29,"plugin_version":"2.1.0","time_elapsed":94839},{"rt":null,"stimulus":"<div class=\"fixation\" style=\"font-size: 60px;\">+</div>","response":null,"trial_type":"html-keyboard-response","trial_index":30,"plugin_version":"2.1.0","time_elapsed":95842},{"target_group":"black","target_index":1,"condition_label":"practice","rt":-1,"response":"","correct":false,"choices":"ALL_KEYS","correct_choice":["a"],"trial_duration":2000,"flip_timestamps":[],"response_ends_trial":false,"number_of_apertures":2,"number_of_dots":[59,100],"number_of_sets":1,"coherent_direction":[127,32],"coherence":1,"opposite_coherence":0,"dot_radius":2,"dot_side_length":1,"dot_life":-1,"move_distance":1,"aperture_width":300,"aperture_height":300,"dot_color":["white","black"],"dot_shape":"circle","background_color":"#AAA","RDK_type":3,"aperture_type":2,"reinsert_type":2,"frame_rate":13.23841059602649,"frame_rate_array":[0,14,12,13,13,13,13,14,14,13,13,13,14,13,13,14,13,13,14,13,13,13,14,13,14,13,13,14,13,13,13,14,14,13,13,13,14,13,13,14,13,13,13,14,14,12,15,12,14,13,13,14,13,14,13,13,14,13,13,13,13,14,13,14,13,14,13,13,13,13,14,14,13,13,14,12,14,14,13,13,13,13,14,14,13,13,14,13,14,13,13,13,14,13,13,14,13,14,13,13,13,14,13,14,12,14,13,14,13,14,13,14,12,14,13,14,13,14,13,12,14,14,13,13,13,14,13,14,13,13,14,13,13,14,13,13,14,12,15,12,14,13,13,14,13,13,14,14,13,13,13],"number_of_frames":151,"aperture_center_x":960,"aperture_center_y":540,"fixation_cross":true,"fixation_cross_width":15,"fixation_cross_height":15,"fixation_cross_color":"#111","fixation_cross_thickness":1,"border":true,"border_thickness":2,"border_color":"transparent","canvas_width":1920,"canvas_height":1080,"trial_type":"rdk","trial_index":31,"plugin_version":"2.0.0","time_elapsed":97845,"phase":"practice","target_direction":32,"distractor_direction":127},{"rt":1438,"stimulus":"\n        <div class=\"response-container\">\n          <div class=\"response-instruction\">\n            <p>rotate the bar by using the left and right arrow keys.</p>\n            <p>when you are determined, press the Enter key.</p>\n          </div>\n          <div class=\"response-circle\">\n            <div class=\"response-fixation\"></div>\n            <div id=\"bar\" class=\"rotating-bar\"></div>\n          </div>\n        </div>\n      ","response":"Enter","trial_type":"html-keyboard-response","trial_index":32,"plugin_version":"2.1.0","time_elapsed":99283,"random_initial_angle":32,"response_angle_css":59,"response_angle_rdk":31,"angular_error_target":-1,"angular_error_distractor":-96,"target_direction":32,"target_group":"black","reward_points":9},{"rt":null,"stimulus":"\n          <p style=\"color: #00FF00;\">Your reward: 9 points</p>\n        ","response":null,"trial_type":"html-keyboard-response","trial_index":33,"plugin_version":"2.1.0","time_elapsed":101295},{"rt":null,"stimulus":"<div class=\"fixation\" style=\"font-size: 60px;\">+</div>","response":null,"trial_type":"html-keyboard-response","trial_index":34,"plugin_version":"2.1.0","time_elapsed":102296},{"target_group":"black","target_index":1,"condition_label":"practice","rt":-1,"response":"","correct":false,"choices":"ALL_KEYS","correct_choice":["a"],"trial_duration":2000,"flip_timestamps":[],"response_ends_trial":false,"number_of_apertures":2,"number_of_dots":[50,100],"number_of_sets":1,"coherent_direction":[193,307],"coherence":1,"opposite_coherence":0,"dot_radius":2,"dot_side_length":1,"dot_life":-1,"move_distance":1,"aperture_width":300,"aperture_height":300,"dot_color":["white","black"],"dot_shape":"circle","background_color":"#AAA","RDK_type":3,"aperture_type":2,"reinsert_type":2,"frame_rate":13.245033112582782,"frame_rate_array":[0,15,11,13,14,13,14,13,13,13,14,13,13,14,13,14,13,13,14,13,13,13,13,14,14,13,13,13,14,13,13,13,14,14,12,14,13,14,13,14,13,13,13,14,12,15,13,13,14,12,14,13,14,14,12,14,13,13,14,14,12,14,13,14,13,14,12,14,14,12,14,14,14,11,14,14,13,13,13,14,13,14,13,13,14,13,13,14,13,14,12,14,14,13,14,12,14,14,12,14,14,13,14,12,14,13,13,14,12,13,14,14,14,13,13,13,14,13,13,14,12,15,12,14,14,13,13,13,14,13,13,14,13,14,12,14,14,12,14,14,12,13,14,14,13,13,14,13,13,14,13],"number_of_frames":151,"aperture_center_x":960,"aperture_center_y":540,"fixation_cross":true,"fixation_cross_width":15,"fixation_cross_height":15,"fixation_cross_color":"#111","fixation_cross_thickness":1,"border":true,"border_thickness":2,"border_color":"transparent","canvas_width":1920,"canvas_height":1080,"trial_type":"rdk","trial_index":35,"plugin_version":"2.0.0","time_elapsed":104305,"phase":"practice","target_direction":307,"distractor_direction":193},{"rt":1970,"stimulus":"\n        <div class=\"response-container\">\n          <div class=\"response-instruction\">\n            <p>rotate the bar by using the left and right arrow keys.</p>\n            <p>when you are determined, press the Enter key.</p>\n          </div>\n          <div class=\"response-circle\">\n            <div class=\"response-fixation\"></div>\n            <div id=\"bar\" class=\"rotating-bar\"></div>\n          </div>\n        </div>\n      ","response":"Enter","trial_type":"html-keyboard-response","trial_index":36,"plugin_version":"2.1.0","time_elapsed":106275,"random_initial_angle":233,"response_angle_css":148,"response_angle_rdk":302,"angular_error_target":-5,"angular_error_distractor":109,"target_direction":307,"target_group":"black","reward_points":9},{"rt":null,"stimulus":"\n          <p style=\"color: #00FF00;\">Your reward: 9 points</p>\n        ","response":null,"trial_type":"html-keyboard-response","trial_index":37,"plugin_version":"2.1.0","time_elapsed":108286},{"rt":null,"stimulus":"<div class=\"fixation\" style=\"font-size: 60px;\">+</div>","response":null,"trial_type":"html-keyboard-response","trial_index":38,"plugin_version":"2.1.0","time_elapsed":109308},{"target_group":"black","target_index":1,"condition_label":"practice","rt":-1,"response":"","correct":false,"choices":"ALL_KEYS","correct_choice":["a"],"trial_duration":2000,"flip_timestamps":[],"response_ends_trial":false,"number_of_apertures":2,"number_of_dots":[99,100],"number_of_sets":1,"coherent_direction":[45,191],"coherence":1,"opposite_coherence":0,"dot_radius":2,"dot_side_length":1,"dot_life":-1,"move_distance":1,"aperture_width":300,"aperture_height":300,"dot_color":["white","black"],"dot_shape":"circle","background_color":"#AAA","RDK_type":3,"aperture_type":2,"reinsert_type":2,"frame_rate":13.19205298013245,"frame_rate_array":[0,6,11,14,13,14,13,14,13,13,14,12,14,14,13,12,14,14,13,13,14,13,13,13,14,14,12,15,12,14,13,13,14,13,13,13,14,14,12,15,12,14,13,13,14,14,12,14,13,14,13,13,13,14,13,13,14,13,14,13,13,14,13,14,13,13,13,14,13,14,13,14,12,14,14,12,14,13,13,14,13,14,13,13,13,14,13,13,14,14,13,13,13,13,14,14,12,14,13,13,14,13,13,13,14,14,13,14,12,14,13,14,13,13,13,14,13,14,12,15,12,14,13,13,14,13,14,13,13,13,14,13,14,13,13,14,13,14,13,13,13,13,14,13,14,13,14,13,12,15,13],"number_of_frames":151,"aperture_center_x":960,"aperture_center_y":540,"fixation_cross":true,"fixation_cross_width":15,"fixation_cross_height":15,"fixation_cross_color":"#111","fixation_cross_thickness":1,"border":true,"border_thickness":2,"border_color":"transparent","canvas_width":1920,"canvas_height":1080,"trial_type":"rdk","trial_index":39,"plugin_version":"2.0.0","time_elapsed":111310,"phase":"practice","target_direction":191,"distractor_direction":45},{"rt":2212,"stimulus":"\n        <div class=\"response-container\">\n          <div class=\"response-instruction\">\n            <p>rotate the bar by using the left and right arrow keys.</p>\n            <p>when you are determined, press the Enter key.</p>\n          </div>\n          <div class=\"response-circle\">\n            <div class=\"response-fixation\"></div>\n            <div id=\"bar\" class=\"rotating-bar\"></div>\n          </div>\n        </div>\n      ","response":"Enter","trial_type":"html-keyboard-response","trial_index":40,"plugin_version":"2.1.0","time_elapsed":113523,"random_initial_angle":144,"response_angle_css":49,"response_angle_rdk":41,"angular_error_target":-150,"angular_error_distractor":-4,"target_direction":191,"target_group":"black","reward_points":0},{"rt":null,"stimulus":"\n          <p style=\"color: #FF3333;\">Your reward: 0 points</p>\n        ","response":null,"trial_type":"html-keyboard-response","trial_index":41,"plugin_version":"2.1.0","time_elapsed":115529},{"rt":null,"stimulus":"<div class=\"fixation\" style=\"font-size: 60px;\">+</div>","response":null,"trial_type":"html-keyboard-response","trial_index":42,"plugin_version":"2.1.0","time_elapsed":116530},{"target_group":"white","target_index":0,"condition_label":"practice","rt":-1,"response":"","correct":false,"choices":"ALL_KEYS","correct_choice":["a"],"trial_duration":2000,"flip_timestamps":[],"response_ends_trial":false,"number_of_apertures":2,"number_of_dots":[100,80],"number_of_sets":1,"coherent_direction":[78,200],"coherence":1,"opposite_coherence":0,"dot_radius":2,"dot_side_length":1,"dot_life":-1,"move_distance":1,"aperture_width":300,"aperture_height":300,"dot_color":["white","black"],"dot_shape":"circle","background_color":"#AAA","RDK_type":3,"aperture_type":2,"reinsert_type":2,"frame_rate":13.240506329113924,"frame_rate_array":[0,13,12,12,14,13,14,13,14,12,14,13,13,14,14,13,13,13,14,13,13,14,13,13,13,14,12,14,14,13,14,13,13,14,12,14,13,14,14,12,14,14,12,14,14,13,14,12,14,13,14,13,13,14,13,13,13,14,13,13,13,14,13,14,13,13,14,13,13,14,13,14,13,14,12,14,13,13,14,13,13,14,13,14,13,14,12,14,13,14,13,14,13,13,13,14,13,13,13,13,14,13,14,13,14,13,13,14,13,14,13,13,14,13,13,14,13,13,13,14,13,14,13,13,13,14,13,14,13,13,13,14,13,14,13,12,15,13,13,14,13,14,12,14,13,14,13,13,14,13,13,14,13,14,13,13,13,14],"number_of_frames":158,"aperture_center_x":960,"aperture_center_y":540,"fixation_cross":true,"fixation_cross_width":15,"fixation_cross_height":15,"fixation_cross_color":"#111","fixation_cross_thickness":1,"border":true,"border_thickness":2,"border_color":"transparent","canvas_width":1920,"canvas_height":1080,"trial_type":"rdk","trial_index":43,"plugin_version":"2.0.0","time_elapsed":118627,"phase":"practice","target_direction":78,"distractor_direction":200},{"rt":1144,"stimulus":"\n        <div class=\"response-container\">\n          <div class=\"response-instruction\">\n            <p>rotate the bar by using the left and right arrow keys.</p>\n            <p>when you are determined, press the Enter key.</p>\n          </div>\n          <div class=\"response-circle\">\n            <div class=\"response-fixation\"></div>\n            <div id=\"bar\" class=\"rotating-bar\"></div>\n          </div>\n        </div>\n      ","response":"Enter","trial_type":"html-keyboard-response","trial_index":44,"plugin_version":"2.1.0","time_elapsed":119771,"random_initial_angle":51,"response_angle_css":26,"response_angle_rdk":64,"angular_error_target":-14,"angular_error_distractor":-136,"target_direction":78,"target_group":"white","reward_points":7},{"rt":null,"stimulus":"\n          <p style=\"color: #00FF00;\">Your reward: 7 points</p>\n        ","response":null,"trial_type":"html-keyboard-response","trial_index":45,"plugin_version":"2.1.0","time_elapsed":121774},{"rt":null,"stimulus":"<div class=\"fixation\" style=\"font-size: 60px;\">+</div>","response":null,"trial_type":"html-keyboard-response","trial_index":46,"plugin_version":"2.1.0","time_elapsed":122775},{"target_group":"white","target_index":0,"condition_label":"practice","rt":-1,"response":"","correct":false,"choices":"ALL_KEYS","correct_choice":["a"],"trial_duration":2000,"flip_timestamps":[],"response_ends_trial":false,"number_of_apertures":2,"number_of_dots":[100,84],"number_of_sets":1,"coherent_direction":[209,57],"coherence":1,"opposite_coherence":0,"dot_radius":2,"dot_side_length":1,"dot_life":-1,"move_distance":1,"aperture_width":300,"aperture_height":300,"dot_color":["white","black"],"dot_shape":"circle","background_color":"#AAA","RDK_type":3,"aperture_type":2,"reinsert_type":2,"frame_rate":13.218543046357615,"frame_rate_array":[0,10,12,14,12,14,13,13,13,13,14,13,14,13,13,14,13,13,14,13,14,14,12,14,13,13,14,13,13,13,14,13,14,12,14,14,13,14,13,13,14,12,14,13,14,14,12,14,13,14,13,13,14,13,13,13,13,14,14,13,13,13,14,13,14,13,13,13,14,13,13,14,13,13,13,14,13,14,13,14,12,14,14,13,13,14,13,13,13,14,14,13,13,13,14,13,13,14,12,15,12,14,14,13,13,13,14,13,13,14,13,14,12,14,14,13,13,14,13,13,14,13,14,13,13,13,14,13,13,13,14,13,14,13,13,14,13,13,13,14,13,14,13,14,12,14,14,13,13,13,14],"number_of_frames":151,"aperture_center_x":960,"aperture_center_y":540,"fixation_cross":true,"fixation_cross_width":15,"fixation_cross_height":15,"fixation_cross_color":"#111","fixation_cross_thickness":1,"border":true,"border_thickness":2,"border_color":"transparent","canvas_width":1920,"canvas_height":1080,"trial_type":"rdk","trial_index":47,"plugin_version":"2.0.0","time_elapsed":124786,"phase":"practice","target_direction":209,"distractor_direction":57},{"rt":6393,"stimulus":"\n        <div class=\"response-container\">\n          <div class=\"response-instruction\">\n            <p>rotate the bar by using the left and right arrow keys.</p>\n            <p>when you are determined, press the Enter key.</p>\n          </div>\n          <div class=\"response-circle\">\n            <div class=\"response-fixation\"></div>\n            <div id=\"bar\" class=\"rotating-bar\"></div>\n          </div>\n        </div>\n      ","response":"Enter","trial_type":"html-keyboard-response","trial_index":48,"plugin_version":"2.1.0","time_elapsed":131179,"random_initial_angle":221,"response_angle_css":298,"response_angle_rdk":152,"angular_error_target":-57,"angular_error_distractor":95,"target_direction":209,"target_group":"white","reward_points":0},{"rt":null,"stimulus":"\n          <p style=\"color: #FF3333;\">Your reward: 0 points</p>\n        ","response":null,"trial_type":"html-keyboard-response","trial_index":49,"plugin_version":"2.1.0","time_elapsed":133185},{"rt":null,"stimulus":"<div class=\"fixation\" style=\"font-size: 60px;\">+</div>","response":null,"trial_type":"html-keyboard-response","trial_index":50,"plugin_version":"2.1.0","time_elapsed":134197},{"target_group":"black","target_index":1,"condition_label":"practice","rt":-1,"response":"","correct":false,"choices":"ALL_KEYS","correct_choice":["a"],"trial_duration":2000,"flip_timestamps":[],"response_ends_trial":false,"number_of_apertures":2,"number_of_dots":[78,100],"number_of_sets":1,"coherent_direction":[66,245],"coherence":1,"opposite_coherence":0,"dot_radius":2,"dot_side_length":1,"dot_life":-1,"move_distance":1,"aperture_width":300,"aperture_height":300,"dot_color":["white","black"],"dot_shape":"circle","background_color":"#AAA","RDK_type":3,"aperture_type":2,"reinsert_type":2,"frame_rate":13.19078947368421,"frame_rate_array":[1,7,10,14,13,13,14,13,13,14,13,13,14,13,14,13,13,13,14,13,13,13,14,14,13,13,14,12,14,14,13,13,13,14,14,12,14,13,14,13,13,13,14,14,13,13,14,12,14,13,14,13,13,13,14,13,14,13,13,13,14,13,13,14,13,14,12,14,14,13,14,12,14,13,14,13,13,14,13,13,14,13,14,13,13,13,14,13,14,13,14,12,14,13,14,13,13,13,14,13,13,14,13,13,14,13,13,14,13,14,12,14,14,13,14,12,14,13,14,13,13,14,12,14,14,13,13,13,14,13,13,14,14,13,13,13,14,13,13,13,14,13,13,14,14,13,13,13,13,14,14,12],"number_of_frames":152,"aperture_center_x":960,"aperture_center_y":540,"fixation_cross":true,"fixation_cross_width":15,"fixation_cross_height":15,"fixation_cross_color":"#111","fixation_cross_thickness":1,"border":true,"border_thickness":2,"border_color":"transparent","canvas_width":1920,"canvas_height":1080,"trial_type":"rdk","trial_index":51,"plugin_version":"2.0.0","time_elapsed":136208,"phase":"practice","target_direction":245,"distractor_direction":66},{"rt":3019,"stimulus":"\n        <div class=\"response-container\">\n          <div class=\"response-instruction\">\n            <p>rotate the bar by using the left and right arrow keys.</p>\n            <p>when you are determined, press the Enter key.</p>\n          </div>\n          <div class=\"response-circle\">\n            <div class=\"response-fixation\"></div>\n            <div id=\"bar\" class=\"rotating-bar\"></div>\n          </div>\n        </div>\n      ","response":"Enter","trial_type":"html-keyboard-response","trial_index":52,"plugin_version":"2.1.0","time_elapsed":139227,"random_initial_angle":163,"response_angle_css":22,"response_angle_rdk":68,"angular_error_target":-177,"angular_error_distractor":2,"target_direction":245,"target_group":"black","reward_points":0},{"rt":null,"stimulus":"\n          <p style=\"color: #FF3333;\">Your reward: 0 points</p>\n        ","response":null,"trial_type":"html-keyboard-response","trial_index":53,"plugin_version":"2.1.0","time_elapsed":141234},{"rt":null,"stimulus":"<div class=\"fixation\" style=\"font-size: 60px;\">+</div>","response":null,"trial_type":"html-keyboard-response","trial_index":54,"plugin_version":"2.1.0","time_elapsed":142234},{"target_group":"white","target_index":0,"condition_label":"practice","rt":-1,"response":"","correct":false,"choices":"ALL_KEYS","correct_choice":["a"],"trial_duration":2000,"flip_timestamps":[],"response_ends_trial":false,"number_of_apertures":2,"number_of_dots":[100,55],"number_of_sets":1,"coherent_direction":[102,336],"coherence":1,"opposite_coherence":0,"dot_radius":2,"dot_side_length":1,"dot_life":-1,"move_distance":1,"aperture_width":300,"aperture_height":300,"dot_color":["white","black"],"dot_shape":"circle","background_color":"#AAA","RDK_type":3,"aperture_type":2,"reinsert_type":2,"frame_rate":13.225165562913908,"frame_rate_array":[0,12,11,14,13,13,13,14,14,13,13,14,12,14,13,14,14,13,12,14,13,14,13,13,13,15,13,13,14,13,13,13,13,13,14,14,12,14,13,14,13,13,14,13,13,13,14,14,13,13,14,13,13,14,13,14,12,14,13,13,14,13,14,13,13,13,14,14,12,14,13,14,13,13,14,13,13,13,14,14,12,14,13,14,13,13,14,13,13,14,13,14,13,13,14,13,13,13,14,13,13,13,14,14,13,13,13,14,13,13,14,14,12,13,14,14,13,14,13,13,13,13,14,14,12,14,13,14,12,14,14,13,13,13,14,13,14,13,14,13,13,13,14,13,13,13,14,14,13,13,13],"number_of_frames":151,"aperture_center_x":960,"aperture_center_y":540,"fixation_cross":true,"fixation_cross_width":15,"fixation_cross_height":15,"fixation_cross_color":"#111","fixation_cross_thickness":1,"border":true,"border_thickness":2,"border_color":"transparent","canvas_width":1920,"canvas_height":1080,"trial_type":"rdk","trial_index":55,"plugin_version":"2.0.0","time_elapsed":144237,"phase":"practice","target_direction":102,"distractor_direction":336},{"rt":3054,"stimulus":"\n        <div class=\"response-container\">\n          <div class=\"response-instruction\">\n            <p>rotate the bar by using the left and right arrow keys.</p>\n            <p>when you are determined, press the Enter key.</p>\n          </div>\n          <div class=\"response-circle\">\n            <div class=\"response-fixation\"></div>\n            <div id=\"bar\" class=\"rotating-bar\"></div>\n          </div>\n        </div>\n      ","response":"Enter","trial_type":"html-keyboard-response","trial_index":56,"plugin_version":"2.1.0","time_elapsed":147292,"random_initial_angle":255,"response_angle_css":-6,"response_angle_rdk":96,"angular_error_target":-6,"angular_error_distractor":120,"target_direction":102,"target_group":"white","reward_points":8},{"rt":null,"stimulus":"\n          <p style=\"color: #00FF00;\">Your reward: 8 points</p>\n        ","response":null,"trial_type":"html-keyboard-response","trial_index":57,"plugin_version":"2.1.0","time_elapsed":149303},{"rt":null,"stimulus":"<div class=\"fixation\" style=\"font-size: 60px;\">+</div>","response":null,"trial_type":"html-keyboard-response","trial_index":58,"plugin_version":"2.1.0","time_elapsed":150304},{"target_group":"white","target_index":0,"condition_label":"practice","rt":1970,"response":"ArrowLeft","correct":false,"choices":"ALL_KEYS","correct_choice":["a"],"trial_duration":2000,"flip_timestamps":[],"response_ends_trial":false,"number_of_apertures":2,"number_of_dots":[100,75],"number_of_sets":1,"coherent_direction":[177,48],"coherence":1,"opposite_coherence":0,"dot_radius":2,"dot_side_length":1,"dot_life":-1,"move_distance":1,"aperture_width":300,"aperture_height":300,"dot_color":["white","black"],"dot_shape":"circle","background_color":"#AAA","RDK_type":3,"aperture_type":2,"reinsert_type":2,"frame_rate":13.2317880794702,"frame_rate_array":[0,13,10,13,14,13,14,13,13,13,14,13,14,13,13,13,13,14,13,14,14,12,14,13,14,12,14,13,14,14,13,13,13,13,14,13,14,13,13,13,14,13,14,13,14,12,14,13,14,13,13,14,13,13,14,13,13,14,12,14,13,14,14,13,13,13,14,13,13,14,13,13,14,13,14,13,13,13,14,13,13,14,13,14,12,14,14,13,14,12,14,13,13,15,13,13,13,13,14,13,13,14,13,14,12,14,13,14,13,13,14,13,14,13,13,14,12,14,14,13,13,13,14,13,13,14,13,14,12,14,13,14,13,13,13,15,12,14,14,13,12,14,14,13,13,14,13,13,13,14,14],"number_of_frames":151,"aperture_center_x":960,"aperture_center_y":540,"fixation_cross":true,"fixation_cross_width":15,"fixation_cross_height":15,"fixation_cross_color":"#111","fixation_cross_thickness":1,"border":true,"border_thickness":2,"border_color":"transparent","canvas_width":1920,"canvas_height":1080,"trial_type":"rdk","trial_index":59,"plugin_version":"2.0.0","time_elapsed":152313,"phase":"practice","target_direction":177,"distractor_direction":48},{"rt":2898,"stimulus":"\n        <div class=\"response-container\">\n          <div class=\"response-instruction\">\n            <p>rotate the bar by using the left and right arrow keys.</p>\n            <p>when you are determined, press the Enter key.</p>\n          </div>\n          <div class=\"response-circle\">\n            <div class=\"response-fixation\"></div>\n            <div id=\"bar\" class=\"rotating-bar\"></div>\n          </div>\n        </div>\n      ","response":"Enter","trial_type":"html-keyboard-response","trial_index":60,"plugin_version":"2.1.0","time_elapsed":155211,"random_initial_angle":200,"response_angle_css":248,"response_angle_rdk":202,"angular_error_target":25,"angular_error_distractor":154,"target_direction":177,"target_group":"white","reward_points":5},{"rt":null,"stimulus":"\n          <p style=\"color: #00FF00;\">Your reward: 5 points</p>\n        ","response":null,"trial_type":"html-keyboard-response","trial_index":61,"plugin_version":"2.1.0","time_elapsed":157216},{"rt":null,"stimulus":"<div class=\"fixation\" style=\"font-size: 60px;\">+</div>","response":null,"trial_type":"html-keyboard-response","trial_index":62,"plugin_version":"2.1.0","time_elapsed":158217},{"target_group":"white","target_index":0,"condition_label":"practice","rt":-1,"response":"","correct":false,"choices":"ALL_KEYS","correct_choice":["a"],"trial_duration":2000,"flip_timestamps":[],"response_ends_trial":false,"number_of_apertures":2,"number_of_dots":[100,52],"number_of_sets":1,"coherent_direction":[8,176],"coherence":1,"opposite_coherence":0,"dot_radius":2,"dot_side_length":1,"dot_life":-1,"move_distance":1,"aperture_width":300,"aperture_height":300,"dot_color":["white","black"],"dot_shape":"circle","background_color":"#AAA","RDK_type":3,"aperture_type":2,"reinsert_type":2,"frame_rate":13.21875,"frame_rate_array":[1,8,12,12,14,14,13,14,12,14,13,14,13,14,13,13,14,13,13,14,12,14,13,14,13,13,14,13,13,14,13,14,13,13,13,13,14,13,14,14,12,14,13,14,13,14,13,13,13,14,13,14,12,14,13,14,13,13,14,13,14,13,13,14,12,14,13,14,13,13,13,14,13,13,14,14,12,15,12,13,14,14,13,13,13,13,14,14,12,15,12,14,13,13,14,13,14,13,13,14,13,13,14,13,13,13,14,13,13,14,13,13,15,12,14,13,13,14,13,13,14,13,14,12,14,13,14,14,12,13,14,13,14,13,14,12,14,13,14,13,13,14,13,13,14,13,14,13,14,13,12,14,14,13,14,12,14,13,14,13],"number_of_frames":160,"aperture_center_x":960,"aperture_center_y":540,"fixation_cross":true,"fixation_cross_width":15,"fixation_cross_height":15,"fixation_cross_color":"#111","fixation_cross_thickness":1,"border":true,"border_thickness":2,"border_color":"transparent","canvas_width":1920,"canvas_height":1080,"trial_type":"rdk","trial_index":63,"plugin_version":"2.0.0","time_elapsed":160339,"phase":"practice","target_direction":8,"distractor_direction":176},{"rt":2431,"stimulus":"\n        <div class=\"response-container\">\n          <div class=\"response-instruction\">\n            <p>rotate the bar by using the left and right arrow keys.</p>\n            <p>when you are determined, press the Enter key.</p>\n          </div>\n          <div class=\"response-circle\">\n            <div class=\"response-fixation\"></div>\n            <div id=\"bar\" class=\"rotating-bar\"></div>\n          </div>\n        </div>\n      ","response":"Enter","trial_type":"html-keyboard-response","trial_index":64,"plugin_version":"2.1.0","time_elapsed":162771,"random_initial_angle":221,"response_angle_css":80,"response_angle_rdk":10,"angular_error_target":2,"angular_error_distractor":-166,"target_direction":8,"target_group":"white","reward_points":9},{"rt":null,"stimulus":"\n          <p style=\"color: #00FF00;\">Your reward: 9 points</p>\n        ","response":null,"trial_type":"html-keyboard-response","trial_index":65,"plugin_version":"2.1.0","time_elapsed":164783},{"rt":1156,"stimulus":"\n        <div class=\"instructions-container\">\n          <h2>End of Practice</h2>\n          <p>You have completed the practice trials.</p>\n          <p>Press <strong>Enter</strong> key to begin the main experiment.</p>\n        </div>\n      ","response":"Enter","trial_type":"html-keyboard-response","trial_index":66,"plugin_version":"2.1.0","time_elapsed":165939},{"rt":null,"stimulus":"<div class=\"fixation\" style=\"font-size: 60px;\">+</div>","response":null,"trial_type":"html-keyboard-response","trial_index":67,"plugin_version":"2.1.0","time_elapsed":166946},{"phase":"learning-awareness","target_group":"black","condition_label":"B_H_vs_W_L_rep7","target_direction":79,"distractor_direction":177,"session_rotation":340,"rt":-1,"response":"","correct":false,"choices":"ALL_KEYS","correct_choice":["a"],"trial_duration":2000,"flip_timestamps":[],"response_ends_trial":false,"number_of_apertures":200,"number_of_dots":[1,1,1,1,1,1,1,1,1,1,1,1,1,1,1,1,1,1,1,1,1,1,1,1,1,1,1,1,1,1,1,1,1,1,1,1,1,1,1,1,1,1,1,1,1,1,1,1,1,1,1,1,1,1,1,1,1,1,1,1,1,1,1,1,1,1,1,1,1,1,1,1,1,1,1,1,1,1,1,1,1,1,1,1,1,1,1,1,1,1,1,1,1,1,1,1,1,1,1,1,1,1,1,1,1,1,1,1,1,1,1,1,1,1,1,1,1,1,1,1,1,1,1,1,1,1,1,1,1,1,1,1,1,1,1,1,1,1,1,1,1,1,1,1,1,1,1,1,1,1,1,1,1,1,1,1,1,1,1,1,1,1,1,1,1,1,1,1,1,1,1,1,1,1,1,1,1,1,1,1,1,1,1,1,1,1,1,1,1,1,1,1,1,1,1,1,1,1,1,1],"number_of_sets":1,"coherent_direction":[79,79,79,79,177,79,79,79,177,79,79,79,177,177,177,177,177,79,79,177,79,79,79,177,177,79,177,177,79,79,79,177,79,177,177,177,79,79,79,79,177,177,79,177,79,177,79,79,79,79,79,79,177,177,79,79,79,177,177,177,79,177,177,79,79,177,177,177,79,79,79,79,79,177,79,177,79,79,79,177,79,177,177,177,79,79,177,79,79,79,79,177,177,177,177,79,79,79,79,79,79,177,79,79,79,79,177,177,79,177,177,177,79,177,177,177,177,79,79,177,177,177,79,177,79,177,79,79,177,177,79,177,79,177,177,177,177,177,177,177,79,177,79,79,79,79,177,177,177,177,79,177,177,177,79,79,177,79,177,79,177,79,177,177,79,177,177,79,177,79,177,79,177,177,79,177,177,79,79,177,177,177,177,177,79,177,79,177,177,177,177,79,177,79,79,79,79,177,177,79],"coherence":1,"opposite_coherence":0,"dot_radius":2,"dot_side_length":1,"dot_life":-1,"move_distance":1,"aperture_width":300,"aperture_height":300,"dot_color":["black","black","black","black","white","black","black","black","white","black","black","black","white","white","white","white","white","black","black","white","black","black","black","white","white","black","white","white","black","black","black","white","black","white","white","white","black","black","black","black","white","white","black","white","black","white","black","black","black","black","black","black","white","white","black","black","black","white","white","white","black","white","white","black","black","white","white","white","black","black","black","black","black","white","black","white","black","black","black","white","black","white","white","white","black","black","white","black","black","black","black","white","white","white","white","black","black","black","black","black","black","white","black","black","black","black","white","white","black","white","white","white","black","white","white","white","white","black","black","white","white","white","black","white","black","white","black","black","white","white","black","white","black","white","white","white","white","white","white","white","black","white","black","black","black","black","white","white","white","white","black","white","white","white","black","black","white","black","white","black","white","black","white","white","black","white","white","black","white","black","white","black","white","white","black","white","white","black","black","white","white","white","white","white","black","white","black","white","white","white","white","black","white","black","black","black","black","white","white","black"],"dot_shape":"circle","background_color":"#AAA","RDK_type":3,"aperture_type":2,"reinsert_type":2,"frame_rate":13.258278145695364,"frame_rate_array":[1,16,11,14,12,14,14,13,13,13,14,14,13,12,14,14,13,13,13,13,14,13,14,13,14,12,14,14,13,14,12,13,14,13,14,13,14,12,14,14,13,14,12,14,14,12,14,13,14,13,13,13,13,14,14,13,14,13,13,13,14,13,13,14,13,13,14,13,13,14,13,13,14,13,14,12,14,13,14,13,13,14,13,14,13,13,14,13,13,14,13,13,14,13,13,13,13,14,14,13,13,13,13,14,13,14,14,12,14,13,14,13,13,14,13,13,14,13,13,13,14,13,14,13,13,14,12,14,13,13,14,13,14,12,15,13,14,13,14,12,13,14,14,13,13,13,14,13,14,13,13],"number_of_frames":151,"aperture_center_x":960,"aperture_center_y":540,"fixation_cross":true,"fixation_cross_width":15,"fixation_cross_height":15,"fixation_cross_color":"#111","fixation_cross_thickness":1,"border":true,"border_thickness":2,"border_color":"transparent","canvas_width":1920,"canvas_height":1080,"trial_type":"rdk","trial_index":68,"plugin_version":"2.0.0","time_elapsed":168953},{"rt":2896,"stimulus":"\n        <div class=\"response-container\">\n          <div class=\"response-instruction\">\n            <p>rotate the bar by using the left and right arrow keys.</p>\n            <p>when you are determined, press the Enter key.</p>\n          </div>\n          <div class=\"response-circle\">\n            <div class=\"response-fixation\"></div>\n            <div id=\"bar\" class=\"rotating-bar\"></div>\n          </div>\n        </div>\n      ","response":"Enter","trial_type":"html-keyboard-response","trial_index":69,"plugin_version":"2.1.0","time_elapsed":171851,"random_initial_angle":223,"response_angle_css":29,"response_angle_rdk":61,"angular_error_target":-18,"angular_error_distractor":-116,"target_direction":79,"target_group":"black","reward_points":6},{"rt":null,"stimulus":"\n          <p style=\"color: #00FF00;\">Your reward: 6 points</p>\n        ","response":null,"trial_type":"html-keyboard-response","trial_index":70,"plugin_version":"2.1.0","time_elapsed":173859},{"rt":null,"stimulus":"<div class=\"fixation\" style=\"font-size: 60px;\">+</div>","response":null,"trial_type":"html-keyboard-response","trial_index":71,"plugin_version":"2.1.0","time_elapsed":174864},{"phase":"learning-awareness","target_group":"white","condition_label":"W_H_vs_B_L_rep19","target_direction":5,"distractor_direction":250,"session_rotation":340,"rt":-1,"response":"","correct":false,"choices":"ALL_KEYS","correct_choice":["a"],"trial_duration":2000,"flip_timestamps":[],"response_ends_trial":false,"number_of_apertures":200,"number_of_dots":[1,1,1,1,1,1,1,1,1,1,1,1,1,1,1,1,1,1,1,1,1,1,1,1,1,1,1,1,1,1,1,1,1,1,1,1,1,1,1,1,1,1,1,1,1,1,1,1,1,1,1,1,1,1,1,1,1,1,1,1,1,1,1,1,1,1,1,1,1,1,1,1,1,1,1,1,1,1,1,1,1,1,1,1,1,1,1,1,1,1,1,1,1,1,1,1,1,1,1,1,1,1,1,1,1,1,1,1,1,1,1,1,1,1,1,1,1,1,1,1,1,1,1,1,1,1,1,1,1,1,1,1,1,1,1,1,1,1,1,1,1,1,1,1,1,1,1,1,1,1,1,1,1,1,1,1,1,1,1,1,1,1,1,1,1,1,1,1,1,1,1,1,1,1,1,1,1,1,1,1,1,1,1,1,1,1,1,1,1,1,1,1,1,1,1,1,1,1,1,1],"number_of_sets":1,"coherent_direction":[250,5,5,250,5,250,5,250,250,5,5,250,5,250,250,5,5,5,250,250,250,5,5,250,250,250,5,5,250,5,250,5,250,5,5,5,5,5,250,250,5,5,5,5,250,5,5,250,250,250,5,5,250,250,250,5,250,5,5,5,5,250,250,5,250,250,250,5,5,250,250,250,250,5,250,5,5,250,250,5,250,5,5,250,5,250,5,250,250,5,5,5,250,250,5,5,5,250,250,250,250,5,5,250,250,250,5,250,250,5,250,5,5,250,5,5,5,5,5,5,250,250,250,250,5,250,5,250,5,250,250,250,5,5,250,250,250,250,250,5,250,250,250,5,250,5,5,5,250,5,250,250,250,250,5,5,5,250,250,250,5,250,5,250,5,5,5,5,250,250,250,250,250,5,5,5,250,5,5,250,250,250,5,250,5,250,5,250,5,250,5,5,250,5,5,5,5,5,5,250],"coherence":1,"opposite_coherence":0,"dot_radius":2,"dot_side_length":1,"dot_life":-1,"move_distance":1,"aperture_width":300,"aperture_height":300,"dot_color":["black","white","white","black","white","black","white","black","black","white","white","black","white","black","black","white","white","white","black","black","black","white","white","black","black","black","white","white","black","white","black","white","black","white","white","white","white","white","black","black","white","white","white","white","black","white","white","black","black","black","white","white","black","black","black","white","black","white","white","white","white","black","black","white","black","black","black","white","white","black","black","black","black","white","black","white","white","black","black","white","black","white","white","black","white","black","white","black","black","white","white","white","black","black","white","white","white","black","black","black","black","white","white","black","black","black","white","black","black","white","black","white","white","black","white","white","white","white","white","white","black","black","black","black","white","black","white","black","white","black","black","black","white","white","black","black","black","black","black","white","black","black","black","white","black","white","white","white","black","white","black","black","black","black","white","white","white","black","black","black","white","black","white","black","white","white","white","white","black","black","black","black","black","white","white","white","black","white","white","black","black","black","white","black","white","black","white","black","white","black","white","white","black","white","white","white","white","white","white","black"],"dot_shape":"circle","background_color":"#AAA","RDK_type":3,"aperture_type":2,"reinsert_type":2,"frame_rate":13.211920529801324,"frame_rate_array":[1,9,10,14,13,14,13,14,12,14,13,14,14,12,14,13,13,14,13,14,12,13,14,14,13,13,14,13,14,13,13,13,13,14,13,14,13,13,14,13,14,13,13,13,14,13,14,13,13,14,13,14,12,14,13,14,13,13,14,13,14,13,13,14,12,14,13,14,13,13,13,14,14,13,13,14,12,14,13,14,13,14,13,14,12,13,14,14,12,14,13,14,14,12,14,14,12,14,13,14,13,14,13,13,13,14,12,14,13,14,12,14,14,14,13,13,13,14,13,14,13,13,14,12,14,14,13,13,13,14,13,13,14,12,15,13,13,14,13,13,13,14,13,13,14,13,14,13,13,14,13],"number_of_frames":151,"aperture_center_x":960,"aperture_center_y":540,"fixation_cross":true,"fixation_cross_width":15,"fixation_cross_height":15,"fixation_cross_color":"#111","fixation_cross_thickness":1,"border":true,"border_thickness":2,"border_color":"transparent","canvas_width":1920,"canvas_height":1080,"trial_type":"rdk","trial_index":72,"plugin_version":"2.0.0","time_elapsed":176868},{"rt":2199,"stimulus":"\n        <div class=\"response-container\">\n          <div class=\"response-instruction\">\n            <p>rotate the bar by using the left and right arrow keys.</p>\n            <p>when you are determined, press the Enter key.</p>\n          </div>\n          <div class=\"response-circle\">\n            <div class=\"response-fixation\"></div>\n            <div id=\"bar\" class=\"rotating-bar\"></div>\n          </div>\n        </div>\n      ","response":"Enter","trial_type":"html-keyboard-response","trial_index":73,"plugin_version":"2.1.0","time_elapsed":179067,"random_initial_angle":165,"response_angle_css":61,"response_angle_rdk":29,"angular_error_target":24,"angular_error_distractor":139,"target_direction":5,"target_group":"white","reward_points":5},{"rt":null,"stimulus":"\n          <p style=\"color: #00FF00;\">Your reward: 5 points</p>\n        ","response":null,"trial_type":"html-keyboard-response","trial_index":74,"plugin_version":"2.1.0","time_elapsed":181319},{"rt":null,"stimulus":"<div class=\"fixation\" style=\"font-size: 60px;\">+</div>","response":null,"trial_type":"html-keyboard-response","trial_index":75,"plugin_version":"2.1.0","time_elapsed":182325},{"phase":"learning-awareness","target_group":"white","condition_label":"W_H_vs_B_L_rep10","target_direction":8,"distractor_direction":270,"session_rotation":340,"rt":-1,"response":"","correct":false,"choices":"ALL_KEYS","correct_choice":["a"],"trial_duration":2000,"flip_timestamps":[],"response_ends_trial":false,"number_of_apertures":200,"number_of_dots":[1,1,1,1,1,1,1,1,1,1,1,1,1,1,1,1,1,1,1,1,1,1,1,1,1,1,1,1,1,1,1,1,1,1,1,1,1,1,1,1,1,1,1,1,1,1,1,1,1,1,1,1,1,1,1,1,1,1,1,1,1,1,1,1,1,1,1,1,1,1,1,1,1,1,1,1,1,1,1,1,1,1,1,1,1,1,1,1,1,1,1,1,1,1,1,1,1,1,1,1,1,1,1,1,1,1,1,1,1,1,1,1,1,1,1,1,1,1,1,1,1,1,1,1,1,1,1,1,1,1,1,1,1,1,1,1,1,1,1,1,1,1,1,1,1,1,1,1,1,1,1,1,1,1,1,1,1,1,1,1,1,1,1,1,1,1,1,1,1,1,1,1,1,1,1,1,1,1,1,1,1,1,1,1,1,1,1,1,1,1,1,1,1,1,1,1,1,1,1,1],"number_of_sets":1,"coherent_direction":[270,270,270,8,270,270,8,270,8,270,8,8,8,8,8,8,270,270,8,8,8,270,8,8,8,8,270,270,8,270,8,270,270,8,8,8,270,270,270,8,8,8,8,8,8,270,8,8,8,270,270,8,8,8,270,8,270,8,8,270,8,8,270,270,8,270,8,8,270,270,8,8,270,270,8,270,270,8,8,270,270,8,270,270,270,270,270,270,8,270,270,270,8,8,270,270,270,270,8,270,8,270,270,8,270,8,8,8,270,270,270,8,270,8,8,270,270,270,8,270,8,270,270,8,8,270,8,8,8,270,8,8,270,8,8,270,270,270,8,270,8,270,270,270,270,8,8,8,270,8,8,8,270,270,270,270,270,8,270,8,8,8,270,8,270,270,8,270,8,8,270,8,270,8,270,270,8,8,270,8,8,270,8,8,8,270,270,270,8,8,270,270,270,8,270,270,8,270,270,8],"coherence":1,"opposite_coherence":0,"dot_radius":2,"dot_side_length":1,"dot_life":-1,"move_distance":1,"aperture_width":300,"aperture_height":300,"dot_color":["black","black","black","white","black","black","white","black","white","black","white","white","white","white","white","white","black","black","white","white","white","black","white","white","white","white","black","black","white","black","white","black","black","white","white","white","black","black","black","white","white","white","white","white","white","black","white","white","white","black","black","white","white","white","black","white","black","white","white","black","white","white","black","black","white","black","white","white","black","black","white","white","black","black","white","black","black","white","white","black","black","white","black","black","black","black","black","black","white","black","black","black","white","white","black","black","black","black","white","black","white","black","black","white","black","white","white","white","black","black","black","white","black","white","white","black","black","black","white","black","white","black","black","white","white","black","white","white","white","black","white","white","black","white","white","black","black","black","white","black","white","black","black","black","black","white","white","white","black","white","white","white","black","black","black","black","black","white","black","white","white","white","black","white","black","black","white","black","white","white","black","white","black","white","black","black","white","white","black","white","white","black","white","white","white","black","black","black","white","white","black","black","black","white","black","black","white","black","black","white"],"dot_shape":"circle","background_color":"#AAA","RDK_type":3,"aperture_type":2,"reinsert_type":2,"frame_rate":13.253333333333334,"frame_rate_array":[1,15,11,13,14,13,14,13,13,13,13,15,12,14,13,13,14,13,13,14,14,13,13,13,14,13,13,14,13,13,13,14,14,12,14,14,12,14,13,14,14,13,13,13,14,12,14,14,12,13,14,13,14,14,13,13,14,13,14,13,13,14,12,14,13,14,13,13,14,13,13,13,14,13,14,13,13,13,14,14,12,14,13,14,13,13,13,14,14,13,13,14,12,14,13,14,13,14,12,13,14,13,14,13,13,14,13,14,14,13,13,14,12,14,13,14,13,13,13,14,13,14,13,12,14,14,13,14,13,14,13,13,13,13,14,12,14,14,13,14,13,14,12,14,13,14,13,13,14,13],"number_of_frames":150,"aperture_center_x":960,"aperture_center_y":540,"fixation_cross":true,"fixation_cross_width":15,"fixation_cross_height":15,"fixation_cross_color":"#111","fixation_cross_thickness":1,"border":true,"border_thickness":2,"border_color":"transparent","canvas_width":1920,"canvas_height":1080,"trial_type":"rdk","trial_index":76,"plugin_version":"2.0.0","time_elapsed":184329},{"rt":1529,"stimulus":"\n        <div class=\"response-container\">\n          <div class=\"response-instruction\">\n            <p>rotate the bar by using the left and right arrow keys.</p>\n            <p>when you are determined, press the Enter key.</p>\n          </div>\n          <div class=\"response-circle\">\n            <div class=\"response-fixation\"></div>\n            <div id=\"bar\" class=\"rotating-bar\"></div>\n          </div>\n        </div>\n      ","response":"Enter","trial_type":"html-keyboard-response","trial_index":77,"plugin_version":"2.1.0","time_elapsed":185859,"random_initial_angle":216,"response_angle_css":180,"response_angle_rdk":270,"angular_error_target":-98,"angular_error_distractor":0,"target_direction":8,"target_group":"white","reward_points":0},{"rt":null,"stimulus":"\n          <p style=\"color: #FF3333;\">Your reward: 0 points</p>\n        ","response":null,"trial_type":"html-keyboard-response","trial_index":78,"plugin_version":"2.1.0","time_elapsed":187862},{"rt":null,"stimulus":"<div class=\"fixation\" style=\"font-size: 60px;\">+</div>","response":null,"trial_type":"html-keyboard-response","trial_index":79,"plugin_version":"2.1.0","time_elapsed":188866},{"phase":"learning-awareness","target_group":"black","condition_label":"B_H_vs_W_L_rep8","target_direction":73,"distractor_direction":168,"session_rotation":340,"rt":-1,"response":"","correct":false,"choices":"ALL_KEYS","correct_choice":["a"],"trial_duration":2000,"flip_timestamps":[],"response_ends_trial":false,"number_of_apertures":200,"number_of_dots":[1,1,1,1,1,1,1,1,1,1,1,1,1,1,1,1,1,1,1,1,1,1,1,1,1,1,1,1,1,1,1,1,1,1,1,1,1,1,1,1,1,1,1,1,1,1,1,1,1,1,1,1,1,1,1,1,1,1,1,1,1,1,1,1,1,1,1,1,1,1,1,1,1,1,1,1,1,1,1,1,1,1,1,1,1,1,1,1,1,1,1,1,1,1,1,1,1,1,1,1,1,1,1,1,1,1,1,1,1,1,1,1,1,1,1,1,1,1,1,1,1,1,1,1,1,1,1,1,1,1,1,1,1,1,1,1,1,1,1,1,1,1,1,1,1,1,1,1,1,1,1,1,1,1,1,1,1,1,1,1,1,1,1,1,1,1,1,1,1,1,1,1,1,1,1,1,1,1,1,1,1,1,1,1,1,1,1,1,1,1,1,1,1,1,1,1,1,1,1,1],"number_of_sets":1,"coherent_direction":[168,73,168,73,73,73,73,73,73,168,168,168,168,168,73,168,168,168,73,168,168,168,168,168,73,73,73,73,73,168,73,168,168,73,168,168,168,168,73,73,73,73,73,73,168,168,73,73,73,73,168,168,73,73,168,168,168,73,73,73,73,168,168,73,73,168,168,73,73,73,73,73,73,73,168,168,168,168,168,73,168,73,168,168,73,73,73,73,73,168,168,73,168,73,168,73,168,73,73,73,73,73,73,168,168,168,168,168,73,168,168,73,73,73,73,168,73,168,168,168,73,168,73,168,168,73,168,168,168,168,73,73,73,168,168,73,73,168,168,168,73,73,168,73,168,168,168,73,168,73,168,168,168,73,73,168,168,168,73,168,168,168,168,73,168,73,73,73,73,73,168,73,168,168,73,168,168,168,73,168,73,73,73,73,168,168,73,73,73,73,168,168,73,168,73,73,168,168,73,168],"coherence":1,"opposite_coherence":0,"dot_radius":2,"dot_side_length":1,"dot_life":-1,"move_distance":1,"aperture_width":300,"aperture_height":300,"dot_color":["white","black","white","black","black","black","black","black","black","white","white","white","white","white","black","white","white","white","black","white","white","white","white","white","black","black","black","black","black","white","black","white","white","black","white","white","white","white","black","black","black","black","black","black","white","white","black","black","black","black","white","white","black","black","white","white","white","black","black","black","black","white","white","black","black","white","white","black","black","black","black","black","black","black","white","white","white","white","white","black","white","black","white","white","black","black","black","black","black","white","white","black","white","black","white","black","white","black","black","black","black","black","black","white","white","white","white","white","black","white","white","black","black","black","black","white","black","white","white","white","black","white","black","white","white","black","white","white","white","white","black","black","black","white","white","black","black","white","white","white","black","black","white","black","white","white","white","black","white","black","white","white","white","black","black","white","white","white","black","white","white","white","white","black","white","black","black","black","black","black","white","black","white","white","black","white","white","white","black","white","black","black","black","black","white","white","black","black","black","black","white","white","black","white","black","black","white","white","black","white"],"dot_shape":"circle","background_color":"#AAA","RDK_type":3,"aperture_type":2,"reinsert_type":2,"frame_rate":13.225165562913908,"frame_rate_array":[1,9,12,13,14,13,14,13,13,14,13,14,12,14,13,13,14,14,12,14,13,14,13,13,14,13,14,13,13,14,13,13,13,14,13,13,14,13,13,13,13,14,13,14,13,14,13,13,14,12,14,14,13,14,13,13,14,12,15,12,13,14,14,13,13,14,13,13,14,13,12,15,13,13,13,14,12,14,14,13,14,13,14,12,14,13,14,13,14,12,14,13,14,13,13,14,13,13,13,14,14,12,14,13,14,13,13,13,14,13,13,14,13,13,14,13,13,14,13,14,13,13,13,14,14,12,15,12,14,14,13,13,13,13,13,14,14,13,13,13,13,14,13,14,14,12,13,14,14,13,14],"number_of_frames":151,"aperture_center_x":960,"aperture_center_y":540,"fixation_cross":true,"fixation_cross_width":15,"fixation_cross_height":15,"fixation_cross_color":"#111","fixation_cross_thickness":1,"border":true,"border_thickness":2,"border_color":"transparent","canvas_width":1920,"canvas_height":1080,"trial_type":"rdk","trial_index":80,"plugin_version":"2.0.0","time_elapsed":190870},{"rt":2398,"stimulus":"\n        <div class=\"response-container\">\n          <div class=\"response-instruction\">\n            <p>rotate the bar by using the left and right arrow keys.</p>\n            <p>when you are determined, press the Enter key.</p>\n          </div>\n          <div class=\"response-circle\">\n            <div class=\"response-fixation\"></div>\n            <div id=\"bar\" class=\"rotating-bar\"></div>\n          </div>\n        </div>\n      ","response":"Enter","trial_type":"html-keyboard-response","trial_index":81,"plugin_version":"2.1.0","time_elapsed":193267,"random_initial_angle":116,"response_angle_css":-77,"response_angle_rdk":167,"angular_error_target":94,"angular_error_distractor":-1,"target_direction":73,"target_group":"black","reward_points":0},{"rt":null,"stimulus":"\n          <p style=\"color: #FF3333;\">Your reward: 0 points</p>\n        ","response":null,"trial_type":"html-keyboard-response","trial_index":82,"plugin_version":"2.1.0","time_elapsed":195274},{"rt":null,"stimulus":"<div class=\"fixation\" style=\"font-size: 60px;\">+</div>","response":null,"trial_type":"html-keyboard-response","trial_index":83,"plugin_version":"2.1.0","time_elapsed":196277},{"phase":"learning-awareness","target_group":"black","condition_label":"B_H_vs_W_L_rep17","target_direction":96,"distractor_direction":199,"session_rotation":340,"rt":-1,"response":"","correct":false,"choices":"ALL_KEYS","correct_choice":["a"],"trial_duration":2000,"flip_timestamps":[],"response_ends_trial":false,"number_of_apertures":200,"number_of_dots":[1,1,1,1,1,1,1,1,1,1,1,1,1,1,1,1,1,1,1,1,1,1,1,1,1,1,1,1,1,1,1,1,1,1,1,1,1,1,1,1,1,1,1,1,1,1,1,1,1,1,1,1,1,1,1,1,1,1,1,1,1,1,1,1,1,1,1,1,1,1,1,1,1,1,1,1,1,1,1,1,1,1,1,1,1,1,1,1,1,1,1,1,1,1,1,1,1,1,1,1,1,1,1,1,1,1,1,1,1,1,1,1,1,1,1,1,1,1,1,1,1,1,1,1,1,1,1,1,1,1,1,1,1,1,1,1,1,1,1,1,1,1,1,1,1,1,1,1,1,1,1,1,1,1,1,1,1,1,1,1,1,1,1,1,1,1,1,1,1,1,1,1,1,1,1,1,1,1,1,1,1,1,1,1,1,1,1,1,1,1,1,1,1,1,1,1,1,1,1,1],"number_of_sets":1,"coherent_direction":[199,199,96,199,199,96,199,199,199,96,199,96,96,96,199,199,96,96,96,199,199,199,199,96,199,199,96,96,199,199,199,96,96,96,199,96,96,96,199,96,199,96,199,199,96,199,199,96,96,96,96,96,199,199,199,199,96,199,96,199,199,96,96,96,199,96,96,199,96,199,199,199,96,199,96,199,96,96,96,199,199,199,96,199,96,199,199,199,96,96,199,96,96,96,96,96,96,96,96,96,96,199,96,199,199,96,96,96,199,199,199,96,199,199,96,96,96,199,96,199,96,96,96,199,96,199,199,96,199,96,199,199,96,199,96,96,96,199,199,199,96,96,96,199,199,96,199,199,199,96,199,96,96,96,199,96,96,96,199,199,199,96,199,199,96,199,96,199,96,96,199,199,199,96,199,199,199,96,199,96,96,199,96,96,96,96,199,199,96,199,199,96,199,96,96,199,199,199,199,199],"coherence":1,"opposite_coherence":0,"dot_radius":2,"dot_side_length":1,"dot_life":-1,"move_distance":1,"aperture_width":300,"aperture_height":300,"dot_color":["white","white","black","white","white","black","white","white","white","black","white","black","black","black","white","white","black","black","black","white","white","white","white","black","white","white","black","black","white","white","white","black","black","black","white","black","black","black","white","black","white","black","white","white","black","white","white","black","black","black","black","black","white","white","white","white","black","white","black","white","white","black","black","black","white","black","black","white","black","white","white","white","black","white","black","white","black","black","black","white","white","white","black","white","black","white","white","white","black","black","white","black","black","black","black","black","black","black","black","black","black","white","black","white","white","black","black","black","white","white","white","black","white","white","black","black","black","white","black","white","black","black","black","white","black","white","white","black","white","black","white","white","black","white","black","black","black","white","white","white","black","black","black","white","white","black","white","white","white","black","white","black","black","black","white","black","black","black","white","white","white","black","white","white","black","white","black","white","black","black","white","white","white","black","white","white","white","black","white","black","black","white","black","black","black","black","white","white","black","white","white","black","white","black","black","white","white","white","white","white"],"dot_shape":"circle","background_color":"#AAA","RDK_type":3,"aperture_type":2,"reinsert_type":2,"frame_rate":13.264900662251655,"frame_rate_array":[1,15,12,14,13,14,12,13,14,13,14,13,14,13,13,14,13,13,14,13,13,14,13,13,13,15,12,14,13,13,14,13,13,13,14,14,13,14,12,13,14,14,13,12,14,13,14,13,14,13,14,13,13,13,14,14,12,13,14,14,13,13,13,14,13,13,13,14,14,13,14,12,13,14,14,13,13,14,13,13,14,13,13,13,14,13,13,14,13,14,13,13,14,13,14,12,14,13,13,14,13,14,13,13,14,13,14,13,13,14,13,13,14,13,14,12,14,13,13,14,13,13,14,13,14,12,14,13,13,14,14,13,13,14,12,14,14,13,14,12,14,12,14,14,13,14,13,14,13,13,14],"number_of_frames":151,"aperture_center_x":960,"aperture_center_y":540,"fixation_cross":true,"fixation_cross_width":15,"fixation_cross_height":15,"fixation_cross_color":"#111","fixation_cross_thickness":1,"border":true,"border_thickness":2,"border_color":"transparent","canvas_width":1920,"canvas_height":1080,"trial_type":"rdk","trial_index":84,"plugin_version":"2.0.0","time_elapsed":198282},{"rt":3041,"stimulus":"\n        <div class=\"response-container\">\n          <div class=\"response-instruction\">\n            <p>rotate the bar by using the left and right arrow keys.</p>\n            <p>when you are determined, press the Enter key.</p>\n          </div>\n          <div class=\"response-circle\">\n            <div class=\"response-fixation\"></div>\n            <div id=\"bar\" class=\"rotating-bar\"></div>\n          </div>\n        </div>\n      ","response":"Enter","trial_type":"html-keyboard-response","trial_index":85,"plugin_version":"2.1.0","time_elapsed":201324,"random_initial_angle":122,"response_angle_css":260,"response_angle_rdk":190,"angular_error_target":94,"angular_error_distractor":-9,"target_direction":96,"target_group":"black","reward_points":0},{"rt":null,"stimulus":"\n          <p style=\"color: #FF3333;\">Your reward: 0 points</p>\n        ","response":null,"trial_type":"html-keyboard-response","trial_index":86,"plugin_version":"2.1.0","time_elapsed":203333},{"rt":null,"stimulus":"<div class=\"fixation\" style=\"font-size: 60px;\">+</div>","response":null,"trial_type":"html-keyboard-response","trial_index":87,"plugin_version":"2.1.0","time_elapsed":204348},{"phase":"learning-awareness","target_group":"black","condition_label":"B_H_vs_W_L_rep13","target_direction":70,"distractor_direction":189,"session_rotation":340,"rt":-1,"response":"","correct":false,"choices":"ALL_KEYS","correct_choice":["a"],"trial_duration":2000,"flip_timestamps":[],"response_ends_trial":false,"number_of_apertures":200,"number_of_dots":[1,1,1,1,1,1,1,1,1,1,1,1,1,1,1,1,1,1,1,1,1,1,1,1,1,1,1,1,1,1,1,1,1,1,1,1,1,1,1,1,1,1,1,1,1,1,1,1,1,1,1,1,1,1,1,1,1,1,1,1,1,1,1,1,1,1,1,1,1,1,1,1,1,1,1,1,1,1,1,1,1,1,1,1,1,1,1,1,1,1,1,1,1,1,1,1,1,1,1,1,1,1,1,1,1,1,1,1,1,1,1,1,1,1,1,1,1,1,1,1,1,1,1,1,1,1,1,1,1,1,1,1,1,1,1,1,1,1,1,1,1,1,1,1,1,1,1,1,1,1,1,1,1,1,1,1,1,1,1,1,1,1,1,1,1,1,1,1,1,1,1,1,1,1,1,1,1,1,1,1,1,1,1,1,1,1,1,1,1,1,1,1,1,1,1,1,1,1,1,1],"number_of_sets":1,"coherent_direction":[70,70,189,189,70,70,189,189,70,189,189,189,70,189,70,189,189,70,189,189,70,189,189,70,70,189,189,70,189,70,189,189,70,189,189,70,70,70,70,189,189,189,189,189,189,70,70,189,70,189,189,70,70,189,70,189,189,70,189,189,189,189,189,189,70,189,189,189,70,189,70,70,70,70,189,189,70,70,70,70,189,189,70,70,70,70,70,70,189,189,70,189,70,70,189,189,189,70,70,189,189,70,70,189,70,189,70,70,70,189,70,70,70,70,189,70,70,70,189,189,70,189,70,189,189,70,70,70,70,189,189,70,189,70,189,189,189,70,70,70,70,70,70,70,189,70,189,70,70,70,70,70,70,70,70,70,70,70,189,189,70,70,189,189,70,189,189,189,189,189,189,70,189,70,189,70,189,70,189,189,189,70,189,189,189,189,70,70,189,189,70,189,70,189,189,189,189,70,189,70],"coherence":1,"opposite_coherence":0,"dot_radius":2,"dot_side_length":1,"dot_life":-1,"move_distance":1,"aperture_width":300,"aperture_height":300,"dot_color":["black","black","white","white","black","black","white","white","black","white","white","white","black","white","black","white","white","black","white","white","black","white","white","black","black","white","white","black","white","black","white","white","black","white","white","black","black","black","black","white","white","white","white","white","white","black","black","white","black","white","white","black","black","white","black","white","white","black","white","white","white","white","white","white","black","white","white","white","black","white","black","black","black","black","white","white","black","black","black","black","white","white","black","black","black","black","black","black","white","white","black","white","black","black","white","white","white","black","black","white","white","black","black","white","black","white","black","black","black","white","black","black","black","black","white","black","black","black","white","white","black","white","black","white","white","black","black","black","black","white","white","black","white","black","white","white","white","black","black","black","black","black","black","black","white","black","white","black","black","black","black","black","black","black","black","black","black","black","white","white","black","black","white","white","black","white","white","white","white","white","white","black","white","black","white","black","white","black","white","white","white","black","white","white","white","white","black","black","white","white","black","white","black","white","white","white","white","black","white","black"],"dot_shape":"circle","background_color":"#AAA","RDK_type":3,"aperture_type":2,"reinsert_type":2,"frame_rate":13.251655629139073,"frame_rate_array":[1,15,10,15,12,14,14,12,14,13,13,14,13,14,14,12,14,13,14,13,13,14,13,13,14,13,14,13,13,13,14,13,13,14,12,15,12,14,14,13,13,13,13,14,13,14,13,13,13,14,13,13,14,13,14,13,13,14,12,15,12,14,14,13,13,13,14,13,13,14,13,14,13,13,13,14,13,14,12,15,12,14,14,13,12,13,14,14,13,14,13,13,13,14,13,13,14,14,12,13,14,13,14,14,12,14,13,13,14,12,15,13,14,12,14,13,14,14,12,13,14,14,13,13,13,14,13,13,14,13,13,13,14,14,13,13,13,14,13,13,14,13,13,14,12,15,12,14,13,13,14],"number_of_frames":151,"aperture_center_x":960,"aperture_center_y":540,"fixation_cross":true,"fixation_cross_width":15,"fixation_cross_height":15,"fixation_cross_color":"#111","fixation_cross_thickness":1,"border":true,"border_thickness":2,"border_color":"transparent","canvas_width":1920,"canvas_height":1080,"trial_type":"rdk","trial_index":88,"plugin_version":"2.0.0","time_elapsed":206354},{"rt":2377,"stimulus":"\n        <div class=\"response-container\">\n          <div class=\"response-instruction\">\n            <p>rotate the bar by using the left and right arrow keys.</p>\n            <p>when you are determined, press the Enter key.</p>\n          </div>\n          <div class=\"response-circle\">\n            <div class=\"response-fixation\"></div>\n            <div id=\"bar\" class=\"rotating-bar\"></div>\n          </div>\n        </div>\n      ","response":"Enter","trial_type":"html-keyboard-response","trial_index":89,"plugin_version":"2.1.0","time_elapsed":208731,"random_initial_angle":190,"response_angle_css":387,"response_angle_rdk":63,"angular_error_target":-7,"angular_error_distractor":-126,"target_direction":70,"target_group":"black","reward_points":8},{"rt":null,"stimulus":"\n          <p style=\"color: #00FF00;\">Your reward: 8 points</p>\n        ","response":null,"trial_type":"html-keyboard-response","trial_index":90,"plugin_version":"2.1.0","time_elapsed":210742},{"rt":null,"stimulus":"<div class=\"fixation\" style=\"font-size: 60px;\">+</div>","response":null,"trial_type":"html-keyboard-response","trial_index":91,"plugin_version":"2.1.0","time_elapsed":211757},{"phase":"learning-awareness","target_group":"white","condition_label":"W_H_vs_B_L_rep17","target_direction":11,"distractor_direction":267,"session_rotation":340,"rt":-1,"response":"","correct":false,"choices":"ALL_KEYS","correct_choice":["a"],"trial_duration":2000,"flip_timestamps":[],"response_ends_trial":false,"number_of_apertures":200,"number_of_dots":[1,1,1,1,1,1,1,1,1,1,1,1,1,1,1,1,1,1,1,1,1,1,1,1,1,1,1,1,1,1,1,1,1,1,1,1,1,1,1,1,1,1,1,1,1,1,1,1,1,1,1,1,1,1,1,1,1,1,1,1,1,1,1,1,1,1,1,1,1,1,1,1,1,1,1,1,1,1,1,1,1,1,1,1,1,1,1,1,1,1,1,1,1,1,1,1,1,1,1,1,1,1,1,1,1,1,1,1,1,1,1,1,1,1,1,1,1,1,1,1,1,1,1,1,1,1,1,1,1,1,1,1,1,1,1,1,1,1,1,1,1,1,1,1,1,1,1,1,1,1,1,1,1,1,1,1,1,1,1,1,1,1,1,1,1,1,1,1,1,1,1,1,1,1,1,1,1,1,1,1,1,1,1,1,1,1,1,1,1,1,1,1,1,1,1,1,1,1,1,1],"number_of_sets":1,"coherent_direction":[11,11,11,267,267,267,267,267,11,11,11,267,11,11,11,11,11,267,267,267,11,11,11,11,267,267,267,11,267,11,11,11,11,267,11,11,267,11,267,267,11,11,11,267,267,11,11,267,267,267,267,267,267,267,11,11,11,267,267,267,267,11,11,267,267,267,11,267,267,267,267,11,11,267,267,11,267,11,11,11,11,267,267,11,11,11,11,11,267,267,267,267,267,11,11,267,11,11,11,267,11,267,11,11,11,267,267,11,267,11,11,267,11,11,11,267,11,11,267,267,11,11,11,267,11,267,267,267,267,267,11,11,267,267,11,11,11,267,11,267,267,267,11,11,11,11,11,11,267,267,11,267,267,11,267,267,267,267,267,267,11,267,267,267,11,267,267,267,267,11,267,267,11,11,267,11,267,11,11,11,11,267,267,267,267,11,11,11,267,11,11,11,11,267,267,267,11,267,267,11],"coherence":1,"opposite_coherence":0,"dot_radius":2,"dot_side_length":1,"dot_life":-1,"move_distance":1,"aperture_width":300,"aperture_height":300,"dot_color":["white","white","white","black","black","black","black","black","white","white","white","black","white","white","white","white","white","black","black","black","white","white","white","white","black","black","black","white","black","white","white","white","white","black","white","white","black","white","black","black","white","white","white","black","black","white","white","black","black","black","black","black","black","black","white","white","white","black","black","black","black","white","white","black","black","black","white","black","black","black","black","white","white","black","black","white","black","white","white","white","white","black","black","white","white","white","white","white","black","black","black","black","black","white","white","black","white","white","white","black","white","black","white","white","white","black","black","white","black","white","white","black","white","white","white","black","white","white","black","black","white","white","white","black","white","black","black","black","black","black","white","white","black","black","white","white","white","black","white","black","black","black","white","white","white","white","white","white","black","black","white","black","black","white","black","black","black","black","black","black","white","black","black","black","white","black","black","black","black","white","black","black","white","white","black","white","black","white","white","white","white","black","black","black","black","white","white","white","black","white","white","white","white","black","black","black","white","black","black","white"],"dot_shape":"circle","background_color":"#AAA","RDK_type":3,"aperture_type":2,"reinsert_type":2,"frame_rate":13.218543046357615,"frame_rate_array":[1,10,11,14,13,13,14,12,14,13,13,14,13,13,14,13,14,13,13,13,14,13,13,14,13,13,14,13,14,13,13,14,13,13,14,13,14,12,14,13,13,14,13,14,13,13,14,13,13,13,14,13,14,13,13,14,13,13,14,13,13,13,14,13,14,14,12,14,14,12,14,13,14,13,13,13,14,13,13,14,13,13,14,13,14,13,13,14,13,13,14,13,14,12,14,13,14,13,13,14,13,13,14,13,14,13,13,13,14,13,13,14,12,14,14,13,14,13,13,13,14,13,14,13,13,13,14,13,14,12,14,14,13,13,13,14,12,14,14,13,14,13,13,13,14,13,14,13,14,13,13],"number_of_frames":151,"aperture_center_x":960,"aperture_center_y":540,"fixation_cross":true,"fixation_cross_width":15,"fixation_cross_height":15,"fixation_cross_color":"#111","fixation_cross_thickness":1,"border":true,"border_thickness":2,"border_color":"transparent","canvas_width":1920,"canvas_height":1080,"trial_type":"rdk","trial_index":92,"plugin_version":"2.0.0","time_elapsed":213760},{"rt":2498,"stimulus":"\n        <div class=\"response-container\">\n          <div class=\"response-instruction\">\n            <p>rotate the bar by using the left and right arrow keys.</p>\n            <p>when you are determined, press the Enter key.</p>\n          </div>\n          <div class=\"response-circle\">\n            <div class=\"response-fixation\"></div>\n            <div id=\"bar\" class=\"rotating-bar\"></div>\n          </div>\n        </div>\n      ","response":"Enter","trial_type":"html-keyboard-response","trial_index":93,"plugin_version":"2.1.0","time_elapsed":216259,"random_initial_angle":325,"response_angle_css":534,"response_angle_rdk":276,"angular_error_target":-95,"angular_error_distractor":9,"target_direction":11,"target_group":"white","reward_points":0},{"rt":null,"stimulus":"\n          <p style=\"color: #FF3333;\">Your reward: 0 points</p>\n        ","response":null,"trial_type":"html-keyboard-response","trial_index":94,"plugin_version":"2.1.0","time_elapsed":218265},{"rt":null,"stimulus":"<div class=\"fixation\" style=\"font-size: 60px;\">+</div>","response":null,"trial_type":"html-keyboard-response","trial_index":95,"plugin_version":"2.1.0","time_elapsed":219266},{"phase":"learning-awareness","target_group":"black","condition_label":"B_H_vs_W_L_rep2","target_direction":95,"distractor_direction":199,"session_rotation":340,"rt":-1,"response":"","correct":false,"choices":"ALL_KEYS","correct_choice":["a"],"trial_duration":2000,"flip_timestamps":[],"response_ends_trial":false,"number_of_apertures":200,"number_of_dots":[1,1,1,1,1,1,1,1,1,1,1,1,1,1,1,1,1,1,1,1,1,1,1,1,1,1,1,1,1,1,1,1,1,1,1,1,1,1,1,1,1,1,1,1,1,1,1,1,1,1,1,1,1,1,1,1,1,1,1,1,1,1,1,1,1,1,1,1,1,1,1,1,1,1,1,1,1,1,1,1,1,1,1,1,1,1,1,1,1,1,1,1,1,1,1,1,1,1,1,1,1,1,1,1,1,1,1,1,1,1,1,1,1,1,1,1,1,1,1,1,1,1,1,1,1,1,1,1,1,1,1,1,1,1,1,1,1,1,1,1,1,1,1,1,1,1,1,1,1,1,1,1,1,1,1,1,1,1,1,1,1,1,1,1,1,1,1,1,1,1,1,1,1,1,1,1,1,1,1,1,1,1,1,1,1,1,1,1,1,1,1,1,1,1,1,1,1,1,1,1],"number_of_sets":1,"coherent_direction":[95,95,199,95,95,199,95,199,95,199,95,199,199,199,95,199,199,199,95,95,95,199,95,199,95,199,95,95,95,199,199,199,199,95,95,199,95,199,199,199,95,95,95,199,199,199,199,199,199,199,199,199,199,95,199,199,95,95,199,199,95,199,95,95,95,95,95,199,199,95,95,95,95,95,95,199,199,95,199,95,95,95,199,95,95,95,95,95,199,199,95,95,199,95,199,95,199,199,95,199,199,199,199,199,199,95,199,199,95,199,95,199,199,199,95,199,199,95,199,95,95,199,95,95,199,95,95,95,199,95,95,199,95,199,199,95,95,95,95,95,95,199,199,199,199,199,199,95,95,95,95,199,95,199,199,199,95,199,95,95,199,199,95,95,199,95,199,199,199,95,199,199,95,95,95,199,95,199,199,95,95,95,95,199,95,95,199,199,199,95,199,95,199,95,199,95,95,95,199,199],"coherence":1,"opposite_coherence":0,"dot_radius":2,"dot_side_length":1,"dot_life":-1,"move_distance":1,"aperture_width":300,"aperture_height":300,"dot_color":["black","black","white","black","black","white","black","white","black","white","black","white","white","white","black","white","white","white","black","black","black","white","black","white","black","white","black","black","black","white","white","white","white","black","black","white","black","white","white","white","black","black","black","white","white","white","white","white","white","white","white","white","white","black","white","white","black","black","white","white","black","white","black","black","black","black","black","white","white","black","black","black","black","black","black","white","white","black","white","black","black","black","white","black","black","black","black","black","white","white","black","black","white","black","white","black","white","white","black","white","white","white","white","white","white","black","white","white","black","white","black","white","white","white","black","white","white","black","white","black","black","white","black","black","white","black","black","black","white","black","black","white","black","white","white","black","black","black","black","black","black","white","white","white","white","white","white","black","black","black","black","white","black","white","white","white","black","white","black","black","white","white","black","black","white","black","white","white","white","black","white","white","black","black","black","white","black","white","white","black","black","black","black","white","black","black","white","white","white","black","white","black","white","black","white","black","black","black","white","white"],"dot_shape":"circle","background_color":"#AAA","RDK_type":3,"aperture_type":2,"reinsert_type":2,"frame_rate":13.211920529801324,"frame_rate_array":[1,9,12,13,12,14,13,14,14,13,13,13,14,13,14,12,14,14,13,13,14,12,13,15,12,14,13,14,13,13,14,13,13,14,13,14,12,14,14,13,14,12,14,14,12,14,13,14,13,13,14,13,14,13,14,13,12,14,14,13,13,13,14,13,13,14,13,13,14,13,14,13,13,14,12,15,12,13,14,14,13,13,14,13,13,14,12,13,14,14,14,13,12,14,13,13,14,13,14,13,13,14,13,13,14,13,13,13,14,14,13,14,13,13,13,14,13,14,12,14,13,14,13,14,13,13,14,13,13,14,12,14,13,14,13,13,14,13,13,13,14,14,12,15,12,14,13,13,14,13,13],"number_of_frames":151,"aperture_center_x":960,"aperture_center_y":540,"fixation_cross":true,"fixation_cross_width":15,"fixation_cross_height":15,"fixation_cross_color":"#111","fixation_cross_thickness":1,"border":true,"border_thickness":2,"border_color":"transparent","canvas_width":1920,"canvas_height":1080,"trial_type":"rdk","trial_index":96,"plugin_version":"2.0.0","time_elapsed":221276},{"rt":1350,"stimulus":"\n        <div class=\"response-container\">\n          <div class=\"response-instruction\">\n            <p>rotate the bar by using the left and right arrow keys.</p>\n            <p>when you are determined, press the Enter key.</p>\n          </div>\n          <div class=\"response-circle\">\n            <div class=\"response-fixation\"></div>\n            <div id=\"bar\" class=\"rotating-bar\"></div>\n          </div>\n        </div>\n      ","response":"Enter","trial_type":"html-keyboard-response","trial_index":97,"plugin_version":"2.1.0","time_elapsed":222627,"random_initial_angle":324,"response_angle_css":368,"response_angle_rdk":82,"angular_error_target":-13,"angular_error_distractor":-117,"target_direction":95,"target_group":"black","reward_points":7},{"rt":null,"stimulus":"\n          <p style=\"color: #00FF00;\">Your reward: 7 points</p>\n        ","response":null,"trial_type":"html-keyboard-response","trial_index":98,"plugin_version":"2.1.0","time_elapsed":224632},{"rt":null,"stimulus":"<div class=\"fixation\" style=\"font-size: 60px;\">+</div>","response":null,"trial_type":"html-keyboard-response","trial_index":99,"plugin_version":"2.1.0","time_elapsed":225634},{"phase":"learning-awareness","target_group":"white","condition_label":"W_H_vs_B_L_rep18","target_direction":6,"distractor_direction":271,"session_rotation":340,"rt":-1,"response":"","correct":false,"choices":"ALL_KEYS","correct_choice":["a"],"trial_duration":2000,"flip_timestamps":[],"response_ends_trial":false,"number_of_apertures":200,"number_of_dots":[1,1,1,1,1,1,1,1,1,1,1,1,1,1,1,1,1,1,1,1,1,1,1,1,1,1,1,1,1,1,1,1,1,1,1,1,1,1,1,1,1,1,1,1,1,1,1,1,1,1,1,1,1,1,1,1,1,1,1,1,1,1,1,1,1,1,1,1,1,1,1,1,1,1,1,1,1,1,1,1,1,1,1,1,1,1,1,1,1,1,1,1,1,1,1,1,1,1,1,1,1,1,1,1,1,1,1,1,1,1,1,1,1,1,1,1,1,1,1,1,1,1,1,1,1,1,1,1,1,1,1,1,1,1,1,1,1,1,1,1,1,1,1,1,1,1,1,1,1,1,1,1,1,1,1,1,1,1,1,1,1,1,1,1,1,1,1,1,1,1,1,1,1,1,1,1,1,1,1,1,1,1,1,1,1,1,1,1,1,1,1,1,1,1,1,1,1,1,1,1],"number_of_sets":1,"coherent_direction":[271,271,271,271,271,6,6,271,271,271,271,6,6,6,6,6,6,6,271,6,6,271,6,6,271,6,6,6,6,6,6,271,271,271,271,6,271,6,271,271,271,271,6,6,6,271,6,271,271,6,271,271,271,271,271,271,6,6,6,271,271,6,6,271,6,271,271,6,271,6,271,271,271,271,271,271,271,6,6,6,6,6,6,6,271,6,6,271,6,6,271,271,271,271,6,6,6,271,271,6,271,271,271,6,6,271,271,271,271,271,6,271,271,6,6,6,6,271,6,271,6,6,6,271,271,271,6,271,271,271,6,6,6,271,6,271,271,6,6,6,6,6,6,6,6,271,6,271,271,6,271,6,271,6,6,6,271,6,6,6,6,6,271,271,271,6,271,271,271,271,271,6,6,6,271,6,6,271,6,6,6,6,271,6,271,271,271,6,271,271,271,271,271,6,6,271,6,271,271,6],"coherence":1,"opposite_coherence":0,"dot_radius":2,"dot_side_length":1,"dot_life":-1,"move_distance":1,"aperture_width":300,"aperture_height":300,"dot_color":["black","black","black","black","black","white","white","black","black","black","black","white","white","white","white","white","white","white","black","white","white","black","white","white","black","white","white","white","white","white","white","black","black","black","black","white","black","white","black","black","black","black","white","white","white","black","white","black","black","white","black","black","black","black","black","black","white","white","white","black","black","white","white","black","white","black","black","white","black","white","black","black","black","black","black","black","black","white","white","white","white","white","white","white","black","white","white","black","white","white","black","black","black","black","white","white","white","black","black","white","black","black","black","white","white","black","black","black","black","black","white","black","black","white","white","white","white","black","white","black","white","white","white","black","black","black","white","black","black","black","white","white","white","black","white","black","black","white","white","white","white","white","white","white","white","black","white","black","black","white","black","white","black","white","white","white","black","white","white","white","white","white","black","black","black","white","black","black","black","black","black","white","white","white","black","white","white","black","white","white","white","white","black","white","black","black","black","white","black","black","black","black","black","white","white","black","white","black","black","white"],"dot_shape":"circle","background_color":"#AAA","RDK_type":3,"aperture_type":2,"reinsert_type":2,"frame_rate":13.185430463576159,"frame_rate_array":[1,5,11,13,14,13,14,12,13,15,12,14,14,13,12,14,14,13,13,14,13,13,14,13,14,13,12,14,13,14,13,14,13,14,12,14,14,12,14,13,13,14,14,13,13,14,13,13,13,14,13,14,12,14,13,14,14,13,12,14,13,13,14,13,14,13,13,13,14,13,13,14,13,14,13,14,13,13,14,13,13,13,14,13,13,13,14,13,14,13,14,13,13,13,14,14,12,14,13,13,14,14,13,13,13,14,13,14,13,13,13,14,13,13,14,14,12,14,13,13,14,13,13,14,13,13,14,14,12,14,13,13,14,13,14,13,13,13,14,14,12,14,13,14,13,13,13,13,14,13,14],"number_of_frames":151,"aperture_center_x":960,"aperture_center_y":540,"fixation_cross":true,"fixation_cross_width":15,"fixation_cross_height":15,"fixation_cross_color":"#111","fixation_cross_thickness":1,"border":true,"border_thickness":2,"border_color":"transparent","canvas_width":1920,"canvas_height":1080,"trial_type":"rdk","trial_index":100,"plugin_version":"2.0.0","time_elapsed":227638},{"rt":1780,"stimulus":"\n        <div class=\"response-container\">\n          <div class=\"response-instruction\">\n            <p>rotate the bar by using the left and right arrow keys.</p>\n            <p>when you are determined, press the Enter key.</p>\n          </div>\n          <div class=\"response-circle\">\n            <div class=\"response-fixation\"></div>\n            <div id=\"bar\" class=\"rotating-bar\"></div>\n          </div>\n        </div>\n      ","response":"Enter","trial_type":"html-keyboard-response","trial_index":101,"plugin_version":"2.1.0","time_elapsed":229419,"random_initial_angle":250,"response_angle_css":183,"response_angle_rdk":267,"angular_error_target":-99,"angular_error_distractor":-4,"target_direction":6,"target_group":"white","reward_points":0},{"rt":null,"stimulus":"\n          <p style=\"color: #FF3333;\">Your reward: 0 points</p>\n        ","response":null,"trial_type":"html-keyboard-response","trial_index":102,"plugin_version":"2.1.0","time_elapsed":231422},{"rt":null,"stimulus":"<div class=\"fixation\" style=\"font-size: 60px;\">+</div>","response":null,"trial_type":"html-keyboard-response","trial_index":103,"plugin_version":"2.1.0","time_elapsed":232423},{"phase":"learning-awareness","target_group":"white","condition_label":"W_H_vs_B_L_rep14","target_direction":2,"distractor_direction":254,"session_rotation":340,"rt":-1,"response":"","correct":false,"choices":"ALL_KEYS","correct_choice":["a"],"trial_duration":2000,"flip_timestamps":[],"response_ends_trial":false,"number_of_apertures":200,"number_of_dots":[1,1,1,1,1,1,1,1,1,1,1,1,1,1,1,1,1,1,1,1,1,1,1,1,1,1,1,1,1,1,1,1,1,1,1,1,1,1,1,1,1,1,1,1,1,1,1,1,1,1,1,1,1,1,1,1,1,1,1,1,1,1,1,1,1,1,1,1,1,1,1,1,1,1,1,1,1,1,1,1,1,1,1,1,1,1,1,1,1,1,1,1,1,1,1,1,1,1,1,1,1,1,1,1,1,1,1,1,1,1,1,1,1,1,1,1,1,1,1,1,1,1,1,1,1,1,1,1,1,1,1,1,1,1,1,1,1,1,1,1,1,1,1,1,1,1,1,1,1,1,1,1,1,1,1,1,1,1,1,1,1,1,1,1,1,1,1,1,1,1,1,1,1,1,1,1,1,1,1,1,1,1,1,1,1,1,1,1,1,1,1,1,1,1,1,1,1,1,1,1],"number_of_sets":1,"coherent_direction":[2,254,2,254,2,2,254,254,254,2,2,254,254,254,2,2,254,2,254,2,254,2,254,254,2,2,254,254,2,2,2,254,2,254,2,2,2,2,2,254,2,254,254,2,2,254,2,254,254,254,2,2,254,2,254,254,2,2,2,2,2,254,2,254,2,2,254,254,254,2,2,2,2,254,254,254,2,254,2,2,2,2,254,2,254,2,254,2,254,254,254,2,254,254,254,2,2,254,254,2,254,2,254,254,254,2,2,254,254,254,254,2,254,2,254,254,2,2,2,2,254,2,2,254,254,254,254,254,254,2,254,2,254,2,2,254,254,254,254,2,254,2,2,254,2,2,2,2,254,254,2,2,2,254,2,254,2,2,2,254,254,2,2,254,254,254,2,254,254,2,254,2,2,2,254,254,2,254,254,2,254,2,254,254,2,2,2,254,2,2,254,254,254,2,2,254,254,254,2,254],"coherence":1,"opposite_coherence":0,"dot_radius":2,"dot_side_length":1,"dot_life":-1,"move_distance":1,"aperture_width":300,"aperture_height":300,"dot_color":["white","black","white","black","white","white","black","black","black","white","white","black","black","black","white","white","black","white","black","white","black","white","black","black","white","white","black","black","white","white","white","black","white","black","white","white","white","white","white","black","white","black","black","white","white","black","white","black","black","black","white","white","black","white","black","black","white","white","white","white","white","black","white","black","white","white","black","black","black","white","white","white","white","black","black","black","white","black","white","white","white","white","black","white","black","white","black","white","black","black","black","white","black","black","black","white","white","black","black","white","black","white","black","black","black","white","white","black","black","black","black","white","black","white","black","black","white","white","white","white","black","white","white","black","black","black","black","black","black","white","black","white","black","white","white","black","black","black","black","white","black","white","white","black","white","white","white","white","black","black","white","white","white","black","white","black","white","white","white","black","black","white","white","black","black","black","white","black","black","white","black","white","white","white","black","black","white","black","black","white","black","white","black","black","white","white","white","black","white","white","black","black","black","white","white","black","black","black","white","black"],"dot_shape":"circle","background_color":"#AAA","RDK_type":3,"aperture_type":2,"reinsert_type":2,"frame_rate":13.264900662251655,"frame_rate_array":[1,16,13,12,14,12,13,14,14,13,13,14,12,14,13,14,13,13,13,14,14,12,14,14,13,13,13,14,13,14,13,14,12,14,14,13,13,13,13,13,14,13,14,13,13,14,13,14,12,14,14,12,14,14,13,14,13,13,13,14,13,14,13,13,13,14,13,13,14,13,13,14,13,14,13,13,13,14,13,14,12,14,13,14,13,13,14,13,14,12,14,14,13,12,15,13,13,14,13,13,13,14,13,14,13,13,13,14,13,14,12,15,12,14,13,14,13,13,1