[{"rt":6595,"stimulus":"Welcome to the experiment. Press any key to begin.","response":"s","trial_type":"html-keyboard-response","trial_index":0,"plugin_version":"2.1.0","time_elapsed":6604},{"rt":52839,"stimulus":"\n        <div class=\"instructions-container\">\n          <h2>Instructions</h2>\n\n          <p>\n          In this experiment, you will see <strong>two Random Dot Kinematograms (RDKs)</strong> displayed simultaneously.\n          </p>\n\n          <p>\n          An RDK is a visual stimulus consisting of many small dots that move coherently in a single direction. \n          In this experiment, the dots will be either <strong>white</strong> or <strong>black</strong> \n          (see the short demo below for an example of an RDK stimulus).\n          </p>\n\n          <p>\n          On each trial, the two RDKs will move in different directions. \n          Your task is to decide <strong>which RDK appears to contain more dots</strong>.\n          </p>\n\n          <p>\n          The RDK that you judge to have more dots is called the <strong>target RDK</strong>. \n          For example, if the white RDK appears to have more dots than the black RDK, \n          you should report the motion direction of the white RDK.\n          </p>\n\n          <p>\n          After viewing the RDKs, you will rotate a bar to indicate the perceived direction of the target RDK \n          using the <strong>left</strong> and <strong>right arrow keys</strong>. \n          Press <strong>Enter</strong> when you are satisfied with your response.\n          </p>\n\n          <p>\n          You will receive points based on the <strong>accuracy of your response</strong>, \n          and your final <strong>bonus reward</strong> may depend on your overall performance. \n          Please try to respond as accurately as possible.\n          </p>\n\n          <p>\n          You will first complete <strong>16 practice trials</strong>. \n          Press the <strong>Enter</strong> key to start the practice phase.\n          </p>\n\n          <canvas id=\"instruction-demo-rdk\" width=\"200\" height=\"200\"style=\"display:block;margin:12px auto; border-radius: 50%;\"></canvas>\n        </div>\n      ","response":"Enter","trial_type":"html-keyboard-response","trial_index":1,"plugin_version":"2.1.0","time_elapsed":59443},{"rt":null,"stimulus":"<div class=\"fixation\" style=\"font-size: 60px;\">+</div>","response":null,"trial_type":"html-keyboard-response","trial_index":2,"plugin_version":"2.1.0","time_elapsed":60445},{"target_group":"black","target_index":1,"condition_label":"practice","rt":-1,"response":"","correct":false,"choices":"ALL_KEYS","correct_choice":["a"],"trial_duration":2000,"flip_timestamps":[],"response_ends_trial":false,"number_of_apertures":2,"number_of_dots":[63,100],"number_of_sets":1,"coherent_direction":[72,211],"coherence":1,"opposite_coherence":0,"dot_radius":2,"dot_side_length":1,"dot_life":-1,"move_distance":1,"aperture_width":300,"aperture_height":300,"dot_color":["white","black"],"dot_shape":"circle","background_color":"#AAA","RDK_type":3,"aperture_type":2,"reinsert_type":2,"frame_rate":13.264900662251655,"frame_rate_array":[0,20,10,12,13,15,13,13,13,14,14,12,14,13,13,13,15,12,14,13,14,12,14,14,12,14,14,13,13,14,13,13,13,13,14,14,13,13,13,13,14,14,13,13,13,13,14,14,13,13,13,13,14,14,13,13,13,13,14,14,13,13,14,13,13,13,14,13,14,13,13,14,12,14,14,13,13,13,14,13,13,14,13,13,14,13,13,14,13,13,14,14,13,13,13,13,14,14,13,13,13,14,13,13,14,13,13,14,13,13,14,13,13,14,14,12,14,13,13,14,14,12,14,13,13,14,14,12,14,13,14,13,13,13,14,14,13,13,13,13,14,13,14,13,13,13,14,13,14,13,13],"number_of_frames":151,"aperture_center_x":960,"aperture_center_y":540,"fixation_cross":true,"fixation_cross_width":15,"fixation_cross_height":15,"fixation_cross_color":"#111","fixation_cross_thickness":1,"border":true,"border_thickness":2,"border_color":"transparent","canvas_width":1920,"canvas_height":1080,"trial_type":"rdk","trial_index":3,"plugin_version":"2.0.0","time_elapsed":62462,"target_direction":211,"distractor_direction":72},{"rt":9884,"stimulus":"\n        <div class=\"response-container\">\n          <div class=\"response-instruction\">\n            <p>rotate the bar by using the left and right arrow keys.</p>\n            <p>when you are determined, press the Enter key.</p>\n          </div>\n          <div class=\"response-circle\">\n            <div class=\"response-fixation\"></div>\n            <div id=\"bar\" class=\"rotating-bar\"></div>\n          </div>\n        </div>\n      ","response":"Enter","trial_type":"html-keyboard-response","trial_index":4,"plugin_version":"2.1.0","time_elapsed":72348,"random_initial_angle":286,"response_angle_css":412,"response_angle_rdk":38,"angular_error_target":-173,"angular_error_distractor":-34,"target_direction":211,"target_group":"black","reward_points":0},{"rt":null,"stimulus":"\n          <p style=\"color: #FF3333;\">Your reward: 0 points</p>\n        ","response":null,"trial_type":"html-keyboard-response","trial_index":5,"plugin_version":"2.1.0","time_elapsed":74352},{"rt":null,"stimulus":"<div class=\"fixation\" style=\"font-size: 60px;\">+</div>","response":null,"trial_type":"html-keyboard-response","trial_index":6,"plugin_version":"2.1.0","time_elapsed":75363},{"target_group":"white","target_index":0,"condition_label":"practice","rt":-1,"response":"","correct":false,"choices":"ALL_KEYS","correct_choice":["a"],"trial_duration":2000,"flip_timestamps":[],"response_ends_trial":false,"number_of_apertures":2,"number_of_dots":[100,95],"number_of_sets":1,"coherent_direction":[200,109],"coherence":1,"opposite_coherence":0,"dot_radius":2,"dot_side_length":1,"dot_life":-1,"move_distance":1,"aperture_width":300,"aperture_height":300,"dot_color":["white","black"],"dot_shape":"circle","background_color":"#AAA","RDK_type":3,"aperture_type":2,"reinsert_type":2,"frame_rate":13.23841059602649,"frame_rate_array":[1,14,11,13,13,13,14,14,13,13,13,13,14,13,14,13,13,13,15,13,13,13,13,13,13,15,13,13,13,13,14,14,13,13,13,14,13,14,13,13,13,14,13,13,13,14,14,13,13,14,12,14,14,13,13,13,14,13,14,13,13,13,13,15,13,13,13,13,14,14,13,13,13,14,13,14,13,13,13,13,14,13,13,14,14,13,13,13,13,14,14,13,13,13,13,14,14,13,13,13,13,15,13,13,13,13,14,14,13,13,13,13,14,13,14,13,13,13,14,13,13,13,15,13,13,13,13,14,13,14,13,13,13,14,14,13,13,13,13,13,14,14,13,13,13,13,14,14,13,13,13],"number_of_frames":151,"aperture_center_x":960,"aperture_center_y":540,"fixation_cross":true,"fixation_cross_width":15,"fixation_cross_height":15,"fixation_cross_color":"#111","fixation_cross_thickness":1,"border":true,"border_thickness":2,"border_color":"transparent","canvas_width":1920,"canvas_height":1080,"trial_type":"rdk","trial_index":7,"plugin_version":"2.0.0","time_elapsed":77377,"target_direction":200,"distractor_direction":109},{"rt":2730,"stimulus":"\n        <div class=\"response-container\">\n          <div class=\"response-instruction\">\n            <p>rotate the bar by using the left and right arrow keys.</p>\n            <p>when you are determined, press the Enter key.</p>\n          </div>\n          <div class=\"response-circle\">\n            <div class=\"response-fixation\"></div>\n            <div id=\"bar\" class=\"rotating-bar\"></div>\n          </div>\n        </div>\n      ","response":"Enter","trial_type":"html-keyboard-response","trial_index":8,"plugin_version":"2.1.0","time_elapsed":80108,"random_initial_angle":173,"response_angle_css":234,"response_angle_rdk":216,"angular_error_target":16,"angular_error_distractor":107,"target_direction":200,"target_group":"white","reward_points":6},{"rt":null,"stimulus":"\n          <p style=\"color: #00FF00;\">Your reward: 6 points</p>\n        ","response":null,"trial_type":"html-keyboard-response","trial_index":9,"plugin_version":"2.1.0","time_elapsed":82121},{"rt":null,"stimulus":"<div class=\"fixation\" style=\"font-size: 60px;\">+</div>","response":null,"trial_type":"html-keyboard-response","trial_index":10,"plugin_version":"2.1.0","time_elapsed":83136},{"target_group":"black","target_index":1,"condition_label":"practice","rt":-1,"response":"","correct":false,"choices":"ALL_KEYS","correct_choice":["a"],"trial_duration":2000,"flip_timestamps":[],"response_ends_trial":false,"number_of_apertures":2,"number_of_dots":[59,100],"number_of_sets":1,"coherent_direction":[123,31],"coherence":1,"opposite_coherence":0,"dot_radius":2,"dot_side_length":1,"dot_life":-1,"move_distance":1,"aperture_width":300,"aperture_height":300,"dot_color":["white","black"],"dot_shape":"circle","background_color":"#AAA","RDK_type":3,"aperture_type":2,"reinsert_type":2,"frame_rate":13.18421052631579,"frame_rate_array":[0,4,13,11,15,12,14,13,13,14,13,13,13,14,14,13,13,14,13,14,13,13,13,13,13,14,14,13,13,14,13,13,14,13,14,13,13,13,14,13,13,13,14,13,14,13,13,13,14,13,13,14,14,13,13,13,13,14,14,13,13,13,14,13,14,13,13,13,13,14,14,13,13,14,13,13,14,13,13,13,14,13,13,14,13,13,14,13,13,13,15,13,13,13,13,14,14,13,13,13,14,13,14,13,13,13,13,14,14,13,13,13,14,13,14,13,13,13,13,14,14,13,13,13,14,13,13,14,13,14,13,13,13,13,15,13,13,13,14,13,13,13,14,13,13,14,13,14,13,13,13,15],"number_of_frames":152,"aperture_center_x":960,"aperture_center_y":540,"fixation_cross":true,"fixation_cross_width":15,"fixation_cross_height":15,"fixation_cross_color":"#111","fixation_cross_thickness":1,"border":true,"border_thickness":2,"border_color":"transparent","canvas_width":1920,"canvas_height":1080,"trial_type":"rdk","trial_index":11,"plugin_version":"2.0.0","time_elapsed":85143,"target_direction":31,"distractor_direction":123},{"rt":1470,"stimulus":"\n        <div class=\"response-container\">\n          <div class=\"response-instruction\">\n            <p>rotate the bar by using the left and right arrow keys.</p>\n            <p>when you are determined, press the Enter key.</p>\n          </div>\n          <div class=\"response-circle\">\n            <div class=\"response-fixation\"></div>\n            <div id=\"bar\" class=\"rotating-bar\"></div>\n          </div>\n        </div>\n      ","response":"Enter","trial_type":"html-keyboard-response","trial_index":12,"plugin_version":"2.1.0","time_elapsed":86612,"random_initial_angle":293,"response_angle_css":314,"response_angle_rdk":136,"angular_error_target":105,"angular_error_distractor":13,"target_direction":31,"target_group":"black","reward_points":0},{"rt":null,"stimulus":"\n          <p style=\"color: #FF3333;\">Your reward: 0 points</p>\n        ","response":null,"trial_type":"html-keyboard-response","trial_index":13,"plugin_version":"2.1.0","time_elapsed":88621},{"rt":null,"stimulus":"<div class=\"fixation\" style=\"font-size: 60px;\">+</div>","response":null,"trial_type":"html-keyboard-response","trial_index":14,"plugin_version":"2.1.0","time_elapsed":89633},{"target_group":"black","target_index":1,"condition_label":"practice","rt":1233,"response":"ArrowLeft","correct":false,"choices":"ALL_KEYS","correct_choice":["a"],"trial_duration":2000,"flip_timestamps":[],"response_ends_trial":false,"number_of_apertures":2,"number_of_dots":[65,100],"number_of_sets":1,"coherent_direction":[184,49],"coherence":1,"opposite_coherence":0,"dot_radius":2,"dot_side_length":1,"dot_life":-1,"move_distance":1,"aperture_width":300,"aperture_height":300,"dot_color":["white","black"],"dot_shape":"circle","background_color":"#AAA","RDK_type":3,"aperture_type":2,"reinsert_type":2,"frame_rate":13.172185430463577,"frame_rate_array":[0,4,11,12,14,14,13,13,13,13,13,15,13,13,13,14,13,13,14,13,13,14,13,14,13,13,13,13,14,13,14,13,13,14,13,13,14,14,13,13,13,13,14,14,13,13,13,13,14,14,13,13,13,13,14,14,13,13,13,13,15,13,13,13,13,13,15,13,13,13,13,13,14,13,14,13,14,13,13,13,13,14,13,14,13,13,14,13,14,13,13,13,13,14,14,13,13,13,13,14,14,13,13,13,14,14,12,14,13,14,14,12,14,13,13,13,14,13,14,13,13,14,13,13,13,13,15,13,13,13,13,14,14,13,13,13,14,13,14,13,13,13,13,14,13,14,13,13,14,14,13],"number_of_frames":151,"aperture_center_x":960,"aperture_center_y":540,"fixation_cross":true,"fixation_cross_width":15,"fixation_cross_height":15,"fixation_cross_color":"#111","fixation_cross_thickness":1,"border":true,"border_thickness":2,"border_color":"transparent","canvas_width":1920,"canvas_height":1080,"trial_type":"rdk","trial_index":15,"plugin_version":"2.0.0","time_elapsed":91634,"target_direction":49,"distractor_direction":184},{"rt":3042,"stimulus":"\n        <div class=\"response-container\">\n          <div class=\"response-instruction\">\n            <p>rotate the bar by using the left and right arrow keys.</p>\n            <p>when you are determined, press the Enter key.</p>\n          </div>\n          <div class=\"response-circle\">\n            <div class=\"response-fixation\"></div>\n            <div id=\"bar\" class=\"rotating-bar\"></div>\n          </div>\n        </div>\n      ","response":"Enter","trial_type":"html-keyboard-response","trial_index":16,"plugin_version":"2.1.0","time_elapsed":94675,"random_initial_angle":171,"response_angle_css":234,"response_angle_rdk":216,"angular_error_target":167,"angular_error_distractor":32,"target_direction":49,"target_group":"black","reward_points":0},{"rt":null,"stimulus":"\n          <p style=\"color: #FF3333;\">Your reward: 0 points</p>\n        ","response":null,"trial_type":"html-keyboard-response","trial_index":17,"plugin_version":"2.1.0","time_elapsed":96680},{"rt":null,"stimulus":"<div class=\"fixation\" style=\"font-size: 60px;\">+</div>","response":null,"trial_type":"html-keyboard-response","trial_index":18,"plugin_version":"2.1.0","time_elapsed":97691},{"target_group":"white","target_index":0,"condition_label":"practice","rt":-1,"response":"","correct":false,"choices":"ALL_KEYS","correct_choice":["a"],"trial_duration":2000,"flip_timestamps":[],"response_ends_trial":false,"number_of_apertures":2,"number_of_dots":[100,90],"number_of_sets":1,"coherent_direction":[160,295],"coherence":1,"opposite_coherence":0,"dot_radius":2,"dot_side_length":1,"dot_life":-1,"move_distance":1,"aperture_width":300,"aperture_height":300,"dot_color":["white","black"],"dot_shape":"circle","background_color":"#AAA","RDK_type":3,"aperture_type":2,"reinsert_type":2,"frame_rate":13.246666666666666,"frame_rate_array":[0,16,10,14,13,13,14,12,14,14,13,13,14,13,13,14,13,13,14,13,13,13,14,13,14,13,13,13,14,14,12,14,13,14,13,13,13,14,13,13,14,13,14,13,13,13,15,13,13,13,14,13,13,14,13,13,14,13,13,13,14,13,14,13,13,13,14,13,13,13,14,14,13,13,13,14,14,13,13,13,14,13,13,13,14,14,12,14,14,13,13,14,12,14,14,13,13,13,14,13,13,14,13,13,14,13,13,14,13,14,13,13,14,13,14,13,13,14,12,14,14,12,14,13,14,13,14,13,13,13,13,13,15,13,13,13,13,14,13,14,13,13,13,13,14,14,12,14,14,13],"number_of_frames":150,"aperture_center_x":960,"aperture_center_y":540,"fixation_cross":true,"fixation_cross_width":15,"fixation_cross_height":15,"fixation_cross_color":"#111","fixation_cross_thickness":1,"border":true,"border_thickness":2,"border_color":"transparent","canvas_width":1920,"canvas_height":1080,"trial_type":"rdk","trial_index":19,"plugin_version":"2.0.0","time_elapsed":99692,"target_direction":160,"distractor_direction":295},{"rt":4494,"stimulus":"\n        <div class=\"response-container\">\n          <div class=\"response-instruction\">\n            <p>rotate the bar by using the left and right arrow keys.</p>\n            <p>when you are determined, press the Enter key.</p>\n          </div>\n          <div class=\"response-circle\">\n            <div class=\"response-fixation\"></div>\n            <div id=\"bar\" class=\"rotating-bar\"></div>\n          </div>\n        </div>\n      ","response":"Enter","trial_type":"html-keyboard-response","trial_index":20,"plugin_version":"2.1.0","time_elapsed":104187,"random_initial_angle":308,"response_angle_css":489,"response_angle_rdk":321,"angular_error_target":161,"angular_error_distractor":26,"target_direction":160,"target_group":"white","reward_points":0},{"rt":null,"stimulus":"\n          <p style=\"color: #FF3333;\">Your reward: 0 points</p>\n        ","response":null,"trial_type":"html-keyboard-response","trial_index":21,"plugin_version":"2.1.0","time_elapsed":106188},{"rt":null,"stimulus":"<div class=\"fixation\" style=\"font-size: 60px;\">+</div>","response":null,"trial_type":"html-keyboard-response","trial_index":22,"plugin_version":"2.1.0","time_elapsed":107197},{"target_group":"white","target_index":0,"condition_label":"practice","rt":-1,"response":"","correct":false,"choices":"ALL_KEYS","correct_choice":["a"],"trial_duration":2000,"flip_timestamps":[],"response_ends_trial":false,"number_of_apertures":2,"number_of_dots":[100,91],"number_of_sets":1,"coherent_direction":[110,20],"coherence":1,"opposite_coherence":0,"dot_radius":2,"dot_side_length":1,"dot_life":-1,"move_distance":1,"aperture_width":300,"aperture_height":300,"dot_color":["white","black"],"dot_shape":"circle","background_color":"#AAA","RDK_type":3,"aperture_type":2,"reinsert_type":2,"frame_rate":13.19078947368421,"frame_rate_array":[1,6,11,14,13,13,13,14,13,14,13,13,13,14,13,13,14,13,13,14,13,13,14,13,14,13,13,13,14,13,14,13,13,13,14,13,14,13,13,14,13,13,14,13,13,13,14,14,13,13,13,13,14,14,13,13,13,14,13,14,13,13,13,14,13,13,13,14,13,14,13,13,14,13,14,13,13,14,13,13,13,14,13,13,13,14,14,13,13,14,12,14,14,13,13,13,14,14,13,13,13,13,14,13,13,13,14,14,13,13,14,13,13,16,11,14,13,13,13,13,14,14,13,13,14,13,13,14,12,14,14,13,13,14,13,13,13,14,13,13,14,13,13,14,13,14,13,13,13,14,14,12],"number_of_frames":152,"aperture_center_x":960,"aperture_center_y":540,"fixation_cross":true,"fixation_cross_width":15,"fixation_cross_height":15,"fixation_cross_color":"#111","fixation_cross_thickness":1,"border":true,"border_thickness":2,"border_color":"transparent","canvas_width":1920,"canvas_height":1080,"trial_type":"rdk","trial_index":23,"plugin_version":"2.0.0","time_elapsed":109208,"target_direction":110,"distractor_direction":20},{"rt":2242,"stimulus":"\n        <div class=\"response-container\">\n          <div class=\"response-instruction\">\n            <p>rotate the bar by using the left and right arrow keys.</p>\n            <p>when you are determined, press the Enter key.</p>\n          </div>\n          <div class=\"response-circle\">\n            <div class=\"response-fixation\"></div>\n            <div id=\"bar\" class=\"rotating-bar\"></div>\n          </div>\n        </div>\n      ","response":"Enter","trial_type":"html-keyboard-response","trial_index":24,"plugin_version":"2.1.0","time_elapsed":111451,"random_initial_angle":154,"response_angle_css":113,"response_angle_rdk":337,"angular_error_target":-133,"angular_error_distractor":-43,"target_direction":110,"target_group":"white","reward_points":0},{"rt":null,"stimulus":"\n          <p style=\"color: #FF3333;\">Your reward: 0 points</p>\n        ","response":null,"trial_type":"html-keyboard-response","trial_index":25,"plugin_version":"2.1.0","time_elapsed":113463},{"rt":null,"stimulus":"<div class=\"fixation\" style=\"font-size: 60px;\">+</div>","response":null,"trial_type":"html-keyboard-response","trial_index":26,"plugin_version":"2.1.0","time_elapsed":114474},{"target_group":"white","target_index":0,"condition_label":"practice","rt":-1,"response":"","correct":false,"choices":"ALL_KEYS","correct_choice":["a"],"trial_duration":2000,"flip_timestamps":[],"response_ends_trial":false,"number_of_apertures":2,"number_of_dots":[100,82],"number_of_sets":1,"coherent_direction":[202,310],"coherence":1,"opposite_coherence":0,"dot_radius":2,"dot_side_length":1,"dot_life":-1,"move_distance":1,"aperture_width":300,"aperture_height":300,"dot_color":["white","black"],"dot_shape":"circle","background_color":"#AAA","RDK_type":3,"aperture_type":2,"reinsert_type":2,"frame_rate":13.2317880794702,"frame_rate_array":[1,11,12,13,14,13,13,14,13,13,13,14,14,13,13,13,13,14,14,13,13,13,13,14,13,14,13,13,14,13,14,13,13,13,14,13,14,13,13,14,13,13,14,13,13,13,14,13,14,13,13,14,13,13,14,12,14,14,12,14,13,14,13,13,13,14,14,13,13,13,14,13,14,13,13,13,14,14,13,13,13,14,13,14,13,13,13,13,14,14,13,13,13,13,14,14,13,13,14,13,13,13,14,13,13,14,13,13,14,13,14,13,13,13,14,14,13,13,13,14,13,13,13,14,14,12,14,13,14,13,14,12,14,14,13,13,13,14,13,13,14,13,13,13,14,13,14,12,14,14,13],"number_of_frames":151,"aperture_center_x":960,"aperture_center_y":540,"fixation_cross":true,"fixation_cross_width":15,"fixation_cross_height":15,"fixation_cross_color":"#111","fixation_cross_thickness":1,"border":true,"border_thickness":2,"border_color":"transparent","canvas_width":1920,"canvas_height":1080,"trial_type":"rdk","trial_index":27,"plugin_version":"2.0.0","time_elapsed":116476,"target_direction":202,"distractor_direction":310},{"rt":3063,"stimulus":"\n        <div class=\"response-container\">\n          <div class=\"response-instruction\">\n            <p>rotate the bar by using the left and right arrow keys.</p>\n            <p>when you are determined, press the Enter key.</p>\n          </div>\n          <div class=\"response-circle\">\n            <div class=\"response-fixation\"></div>\n            <div id=\"bar\" class=\"rotating-bar\"></div>\n          </div>\n        </div>\n      ","response":"Enter","trial_type":"html-keyboard-response","trial_index":28,"plugin_version":"2.1.0","time_elapsed":119539,"random_initial_angle":316,"response_angle_css":230,"response_angle_rdk":220,"angular_error_target":18,"angular_error_distractor":-90,"target_direction":202,"target_group":"white","reward_points":6},{"rt":null,"stimulus":"\n          <p style=\"color: #00FF00;\">Your reward: 6 points</p>\n        ","response":null,"trial_type":"html-keyboard-response","trial_index":29,"plugin_version":"2.1.0","time_elapsed":121540},{"rt":null,"stimulus":"<div class=\"fixation\" style=\"font-size: 60px;\">+</div>","response":null,"trial_type":"html-keyboard-response","trial_index":30,"plugin_version":"2.1.0","time_elapsed":122542},{"target_group":"black","target_index":1,"condition_label":"practice","rt":-1,"response":"","correct":false,"choices":"ALL_KEYS","correct_choice":["a"],"trial_duration":2000,"flip_timestamps":[],"response_ends_trial":false,"number_of_apertures":2,"number_of_dots":[88,100],"number_of_sets":1,"coherent_direction":[138,258],"coherence":1,"opposite_coherence":0,"dot_radius":2,"dot_side_length":1,"dot_life":-1,"move_distance":1,"aperture_width":300,"aperture_height":300,"dot_color":["white","black"],"dot_shape":"circle","background_color":"#AAA","RDK_type":3,"aperture_type":2,"reinsert_type":2,"frame_rate":13.23841059602649,"frame_rate_array":[0,14,11,13,13,14,14,13,13,13,13,14,13,13,14,14,13,13,13,13,14,13,13,14,14,13,13,13,13,14,14,12,13,15,13,13,14,13,13,14,13,13,13,14,13,13,14,13,13,14,13,13,14,12,14,14,13,13,13,14,13,14,13,13,14,13,13,14,12,14,14,12,14,14,13,13,14,13,13,14,13,14,13,13,14,12,14,14,13,13,13,14,14,13,13,13,13,13,15,13,13,13,13,14,13,14,13,13,13,13,15,13,13,13,13,14,13,14,13,13,14,13,14,12,13,14,14,13,13,13,13,14,14,13,13,13,14,14,13,13,13,13,14,14,13,13,13,13,14,14,13],"number_of_frames":151,"aperture_center_x":960,"aperture_center_y":540,"fixation_cross":true,"fixation_cross_width":15,"fixation_cross_height":15,"fixation_cross_color":"#111","fixation_cross_thickness":1,"border":true,"border_thickness":2,"border_color":"transparent","canvas_width":1920,"canvas_height":1080,"trial_type":"rdk","trial_index":31,"plugin_version":"2.0.0","time_elapsed":124554,"target_direction":258,"distractor_direction":138},{"rt":3616,"stimulus":"\n        <div class=\"response-container\">\n          <div class=\"response-instruction\">\n            <p>rotate the bar by using the left and right arrow keys.</p>\n            <p>when you are determined, press the Enter key.</p>\n          </div>\n          <div class=\"response-circle\">\n            <div class=\"response-fixation\"></div>\n            <div id=\"bar\" class=\"rotating-bar\"></div>\n          </div>\n        </div>\n      ","response":"Enter","trial_type":"html-keyboard-response","trial_index":32,"plugin_version":"2.1.0","time_elapsed":128171,"random_initial_angle":70,"response_angle_css":182,"response_angle_rdk":268,"angular_error_target":10,"angular_error_distractor":130,"target_direction":258,"target_group":"black","reward_points":8},{"rt":null,"stimulus":"\n          <p style=\"color: #00FF00;\">Your reward: 8 points</p>\n        ","response":null,"trial_type":"html-keyboard-response","trial_index":33,"plugin_version":"2.1.0","time_elapsed":130177},{"rt":null,"stimulus":"<div class=\"fixation\" style=\"font-size: 60px;\">+</div>","response":null,"trial_type":"html-keyboard-response","trial_index":34,"plugin_version":"2.1.0","time_elapsed":131216},{"target_group":"black","target_index":1,"condition_label":"practice","rt":-1,"response":"","correct":false,"choices":"ALL_KEYS","correct_choice":["a"],"trial_duration":2000,"flip_timestamps":[],"response_ends_trial":false,"number_of_apertures":2,"number_of_dots":[87,100],"number_of_sets":1,"coherent_direction":[194,57],"coherence":1,"opposite_coherence":0,"dot_radius":2,"dot_side_length":1,"dot_life":-1,"move_distance":1,"aperture_width":300,"aperture_height":300,"dot_color":["white","black"],"dot_shape":"circle","background_color":"#AAA","RDK_type":3,"aperture_type":2,"reinsert_type":2,"frame_rate":13.210526315789474,"frame_rate_array":[0,10,10,14,13,14,14,13,13,13,13,14,13,13,13,14,14,13,13,14,13,13,14,13,13,13,13,15,13,13,13,13,14,13,13,14,13,13,14,13,13,14,13,13,14,14,13,13,13,13,14,13,13,14,14,12,14,13,14,13,13,14,13,13,13,15,13,13,13,13,14,13,13,13,14,14,13,13,13,14,13,13,14,13,14,13,13,13,14,13,13,13,14,14,13,13,13,13,15,13,13,13,14,13,13,14,13,13,14,13,13,13,13,15,13,13,13,13,13,14,14,13,14,13,12,14,14,13,13,13,14,14,13,13,13,13,15,12,14,13,13,13,15,13,13,13,13,13,14,13,14,13],"number_of_frames":152,"aperture_center_x":960,"aperture_center_y":540,"fixation_cross":true,"fixation_cross_width":15,"fixation_cross_height":15,"fixation_cross_color":"#111","fixation_cross_thickness":1,"border":true,"border_thickness":2,"border_color":"transparent","canvas_width":1920,"canvas_height":1080,"trial_type":"rdk","trial_index":35,"plugin_version":"2.0.0","time_elapsed":133228,"target_direction":57,"distractor_direction":194},{"rt":1239,"stimulus":"\n        <div class=\"response-container\">\n          <div class=\"response-instruction\">\n            <p>rotate the bar by using the left and right arrow keys.</p>\n            <p>when you are determined, press the Enter key.</p>\n          </div>\n          <div class=\"response-circle\">\n            <div class=\"response-fixation\"></div>\n            <div id=\"bar\" class=\"rotating-bar\"></div>\n          </div>\n        </div>\n      ","response":"Enter","trial_type":"html-keyboard-response","trial_index":36,"plugin_version":"2.1.0","time_elapsed":134467,"random_initial_angle":38,"response_angle_css":49,"response_angle_rdk":41,"angular_error_target":-16,"angular_error_distractor":-153,"target_direction":57,"target_group":"black","reward_points":6},{"rt":null,"stimulus":"\n          <p style=\"color: #00FF00;\">Your reward: 6 points</p>\n        ","response":null,"trial_type":"html-keyboard-response","trial_index":37,"plugin_version":"2.1.0","time_elapsed":136472},{"rt":null,"stimulus":"<div class=\"fixation\" style=\"font-size: 60px;\">+</div>","response":null,"trial_type":"html-keyboard-response","trial_index":38,"plugin_version":"2.1.0","time_elapsed":137481},{"target_group":"black","target_index":1,"condition_label":"practice","rt":-1,"response":"","correct":false,"choices":"ALL_KEYS","correct_choice":["a"],"trial_duration":2000,"flip_timestamps":[],"response_ends_trial":false,"number_of_apertures":2,"number_of_dots":[95,100],"number_of_sets":1,"coherent_direction":[329,229],"coherence":1,"opposite_coherence":0,"dot_radius":2,"dot_side_length":1,"dot_life":-1,"move_distance":1,"aperture_width":300,"aperture_height":300,"dot_color":["white","black"],"dot_shape":"circle","background_color":"#AAA","RDK_type":3,"aperture_type":2,"reinsert_type":2,"frame_rate":13.23841059602649,"frame_rate_array":[1,12,12,13,13,13,14,13,14,13,13,14,13,14,13,13,13,13,14,14,13,13,13,14,13,13,14,13,13,14,13,13,13,15,13,13,13,13,14,14,13,13,13,13,14,13,14,13,14,12,14,14,13,13,13,13,14,14,13,13,13,14,13,13,13,14,13,14,13,13,13,14,14,12,14,13,13,14,14,13,13,13,13,14,14,13,13,14,13,14,13,13,13,13,13,14,14,13,13,13,14,13,13,14,13,14,13,13,13,13,15,12,14,13,13,14,14,13,13,13,13,13,15,13,13,13,13,15,13,13,13,13,14,13,13,14,13,13,14,13,14,13,13,14,13,14,13,13,13,13,14],"number_of_frames":151,"aperture_center_x":960,"aperture_center_y":540,"fixation_cross":true,"fixation_cross_width":15,"fixation_cross_height":15,"fixation_cross_color":"#111","fixation_cross_thickness":1,"border":true,"border_thickness":2,"border_color":"transparent","canvas_width":1920,"canvas_height":1080,"trial_type":"rdk","trial_index":39,"plugin_version":"2.0.0","time_elapsed":139484,"target_direction":229,"distractor_direction":329},{"rt":2790,"stimulus":"\n        <div class=\"response-container\">\n          <div class=\"response-instruction\">\n            <p>rotate the bar by using the left and right arrow keys.</p>\n            <p>when you are determined, press the Enter key.</p>\n          </div>\n          <div class=\"response-circle\">\n            <div class=\"response-fixation\"></div>\n            <div id=\"bar\" class=\"rotating-bar\"></div>\n          </div>\n        </div>\n      ","response":"Enter","trial_type":"html-keyboard-response","trial_index":40,"plugin_version":"2.1.0","time_elapsed":142276,"random_initial_angle":33,"response_angle_css":131,"response_angle_rdk":319,"angular_error_target":90,"angular_error_distractor":-10,"target_direction":229,"target_group":"black","reward_points":0},{"rt":null,"stimulus":"\n          <p style=\"color: #FF3333;\">Your reward: 0 points</p>\n        ","response":null,"trial_type":"html-keyboard-response","trial_index":41,"plugin_version":"2.1.0","time_elapsed":144290},{"rt":null,"stimulus":"<div class=\"fixation\" style=\"font-size: 60px;\">+</div>","response":null,"trial_type":"html-keyboard-response","trial_index":42,"plugin_version":"2.1.0","time_elapsed":145298},{"target_group":"black","target_index":1,"condition_label":"practice","rt":-1,"response":"","correct":false,"choices":"ALL_KEYS","correct_choice":["a"],"trial_duration":2000,"flip_timestamps":[],"response_ends_trial":false,"number_of_apertures":2,"number_of_dots":[59,100],"number_of_sets":1,"coherent_direction":[297,131],"coherence":1,"opposite_coherence":0,"dot_radius":2,"dot_side_length":1,"dot_life":-1,"move_distance":1,"aperture_width":300,"aperture_height":300,"dot_color":["white","black"],"dot_shape":"circle","background_color":"#AAA","RDK_type":3,"aperture_type":2,"reinsert_type":2,"frame_rate":13.236842105263158,"frame_rate_array":[0,13,11,14,13,13,13,14,13,14,13,13,13,13,15,13,12,14,13,13,14,14,13,13,13,14,13,13,14,13,14,13,13,13,13,14,14,13,13,13,14,13,14,13,13,14,13,14,13,13,13,14,13,14,13,13,13,13,14,13,14,13,13,14,13,13,13,14,14,13,13,13,13,14,14,13,13,13,13,14,14,13,13,13,14,13,14,13,13,14,12,14,14,13,13,13,14,13,14,13,13,13,14,14,12,14,14,13,13,13,13,13,14,14,13,13,14,13,13,14,13,13,14,13,13,14,13,13,14,12,15,13,13,13,14,13,13,14,13,13,14,13,14,12,14,14,13,13,13,13,14,14],"number_of_frames":152,"aperture_center_x":960,"aperture_center_y":540,"fixation_cross":true,"fixation_cross_width":15,"fixation_cross_height":15,"fixation_cross_color":"#111","fixation_cross_thickness":1,"border":true,"border_thickness":2,"border_color":"transparent","canvas_width":1920,"canvas_height":1080,"trial_type":"rdk","trial_index":43,"plugin_version":"2.0.0","time_elapsed":147313,"target_direction":131,"distractor_direction":297},{"rt":2265,"stimulus":"\n        <div class=\"response-container\">\n          <div class=\"response-instruction\">\n            <p>rotate the bar by using the left and right arrow keys.</p>\n            <p>when you are determined, press the Enter key.</p>\n          </div>\n          <div class=\"response-circle\">\n            <div class=\"response-fixation\"></div>\n            <div id=\"bar\" class=\"rotating-bar\"></div>\n          </div>\n        </div>\n      ","response":"Enter","trial_type":"html-keyboard-response","trial_index":44,"plugin_version":"2.1.0","time_elapsed":149580,"random_initial_angle":218,"response_angle_css":320,"response_angle_rdk":130,"angular_error_target":-1,"angular_error_distractor":-167,"target_direction":131,"target_group":"black","reward_points":9},{"rt":null,"stimulus":"\n          <p style=\"color: #00FF00;\">Your reward: 9 points</p>\n        ","response":null,"trial_type":"html-keyboard-response","trial_index":45,"plugin_version":"2.1.0","time_elapsed":151581},{"rt":null,"stimulus":"<div class=\"fixation\" style=\"font-size: 60px;\">+</div>","response":null,"trial_type":"html-keyboard-response","trial_index":46,"plugin_version":"2.1.0","time_elapsed":152594},{"target_group":"white","target_index":0,"condition_label":"practice","rt":-1,"response":"","correct":false,"choices":"ALL_KEYS","correct_choice":["a"],"trial_duration":2000,"flip_timestamps":[],"response_ends_trial":false,"number_of_apertures":2,"number_of_dots":[100,52],"number_of_sets":1,"coherent_direction":[298,178],"coherence":1,"opposite_coherence":0,"dot_radius":2,"dot_side_length":1,"dot_life":-1,"move_distance":1,"aperture_width":300,"aperture_height":300,"dot_color":["white","black"],"dot_shape":"circle","background_color":"#AAA","RDK_type":3,"aperture_type":2,"reinsert_type":2,"frame_rate":13.23841059602649,"frame_rate_array":[1,15,9,13,14,13,14,13,13,13,13,15,13,13,13,14,12,15,13,13,13,13,14,13,14,13,13,13,14,13,13,14,13,14,13,13,13,14,13,14,13,13,14,13,13,14,13,13,13,14,14,13,13,13,14,13,14,13,13,14,13,13,13,14,13,13,14,13,13,14,13,14,13,13,13,13,14,14,13,13,13,14,13,14,13,13,14,13,13,14,13,13,14,13,14,13,13,13,14,13,14,13,13,13,14,13,13,14,13,14,13,13,13,13,14,14,13,13,13,14,13,14,13,13,13,13,14,14,13,13,13,13,15,13,13,13,13,13,14,14,13,13,13,13,14,14,13,14,13,13,13],"number_of_frames":151,"aperture_center_x":960,"aperture_center_y":540,"fixation_cross":true,"fixation_cross_width":15,"fixation_cross_height":15,"fixation_cross_color":"#111","fixation_cross_thickness":1,"border":true,"border_thickness":2,"border_color":"transparent","canvas_width":1920,"canvas_height":1080,"trial_type":"rdk","trial_index":47,"plugin_version":"2.0.0","time_elapsed":154597,"target_direction":298,"distractor_direction":178},{"rt":2262,"stimulus":"\n        <div class=\"response-container\">\n          <div class=\"response-instruction\">\n            <p>rotate the bar by using the left and right arrow keys.</p>\n            <p>when you are determined, press the Enter key.</p>\n          </div>\n          <div class=\"response-circle\">\n            <div class=\"response-fixation\"></div>\n            <div id=\"bar\" class=\"rotating-bar\"></div>\n          </div>\n        </div>\n      ","response":"Enter","trial_type":"html-keyboard-response","trial_index":48,"plugin_version":"2.1.0","time_elapsed":156859,"random_initial_angle":208,"response_angle_css":140,"response_angle_rdk":310,"angular_error_target":12,"angular_error_distractor":132,"target_direction":298,"target_group":"white","reward_points":7},{"rt":null,"stimulus":"\n          <p style=\"color: #00FF00;\">Your reward: 7 points</p>\n        ","response":null,"trial_type":"html-keyboard-response","trial_index":49,"plugin_version":"2.1.0","time_elapsed":158871},{"rt":null,"stimulus":"<div class=\"fixation\" style=\"font-size: 60px;\">+</div>","response":null,"trial_type":"html-keyboard-response","trial_index":50,"plugin_version":"2.1.0","time_elapsed":159877},{"target_group":"white","target_index":0,"condition_label":"practice","rt":-1,"response":"","correct":false,"choices":"ALL_KEYS","correct_choice":["a"],"trial_duration":2000,"flip_timestamps":[],"response_ends_trial":false,"number_of_apertures":2,"number_of_dots":[100,74],"number_of_sets":1,"coherent_direction":[248,76],"coherence":1,"opposite_coherence":0,"dot_radius":2,"dot_side_length":1,"dot_life":-1,"move_distance":1,"aperture_width":300,"aperture_height":300,"dot_color":["white","black"],"dot_shape":"circle","background_color":"#AAA","RDK_type":3,"aperture_type":2,"reinsert_type":2,"frame_rate":13.2317880794702,"frame_rate_array":[0,14,10,13,14,13,13,13,14,13,14,13,13,13,14,13,14,13,14,12,14,14,13,13,13,14,13,14,13,13,13,14,14,12,14,13,14,13,13,13,14,13,14,13,13,13,14,13,14,13,13,14,13,14,13,13,13,13,13,15,13,13,13,14,13,13,14,12,14,13,14,14,12,14,14,13,13,13,13,14,14,13,13,13,13,14,14,13,13,13,13,15,13,13,13,13,13,15,13,13,13,13,13,14,14,12,14,13,14,13,14,12,15,13,13,13,14,13,14,13,13,13,14,13,13,13,13,14,14,13,13,14,13,13,13,14,14,13,13,13,13,14,14,12,14,14,13,13,13,13,14],"number_of_frames":151,"aperture_center_x":960,"aperture_center_y":540,"fixation_cross":true,"fixation_cross_width":15,"fixation_cross_height":15,"fixation_cross_color":"#111","fixation_cross_thickness":1,"border":true,"border_thickness":2,"border_color":"transparent","canvas_width":1920,"canvas_height":1080,"trial_type":"rdk","trial_index":51,"plugin_version":"2.0.0","time_elapsed":161881,"target_direction":248,"distractor_direction":76},{"rt":3521,"stimulus":"\n        <div class=\"response-container\">\n          <div class=\"response-instruction\">\n            <p>rotate the bar by using the left and right arrow keys.</p>\n            <p>when you are determined, press the Enter key.</p>\n          </div>\n          <div class=\"response-circle\">\n            <div class=\"response-fixation\"></div>\n            <div id=\"bar\" class=\"rotating-bar\"></div>\n          </div>\n        </div>\n      ","response":"Enter","trial_type":"html-keyboard-response","trial_index":52,"plugin_version":"2.1.0","time_elapsed":165403,"random_initial_angle":175,"response_angle_css":20,"response_angle_rdk":70,"angular_error_target":-178,"angular_error_distractor":-6,"target_direction":248,"target_group":"white","reward_points":0},{"rt":null,"stimulus":"\n          <p style=\"color: #FF3333;\">Your reward: 0 points</p>\n        ","response":null,"trial_type":"html-keyboard-response","trial_index":53,"plugin_version":"2.1.0","time_elapsed":167404},{"rt":null,"stimulus":"<div class=\"fixation\" style=\"font-size: 60px;\">+</div>","response":null,"trial_type":"html-keyboard-response","trial_index":54,"plugin_version":"2.1.0","time_elapsed":168413},{"target_group":"white","target_index":0,"condition_label":"practice","rt":-1,"response":"","correct":false,"choices":"ALL_KEYS","correct_choice":["a"],"trial_duration":2000,"flip_timestamps":[],"response_ends_trial":false,"number_of_apertures":2,"number_of_dots":[100,99],"number_of_sets":1,"coherent_direction":[298,90],"coherence":1,"opposite_coherence":0,"dot_radius":2,"dot_side_length":1,"dot_life":-1,"move_distance":1,"aperture_width":300,"aperture_height":300,"dot_color":["white","black"],"dot_shape":"circle","background_color":"#AAA","RDK_type":3,"aperture_type":2,"reinsert_type":2,"frame_rate":13.251655629139073,"frame_rate_array":[1,16,9,14,13,14,13,13,14,13,13,14,13,13,14,13,13,14,13,14,13,13,13,13,14,13,13,14,13,13,14,13,13,14,14,13,13,13,13,14,14,13,13,13,13,14,14,13,13,14,13,13,14,13,13,13,14,14,13,13,13,13,14,13,13,14,13,13,14,14,12,14,13,14,13,13,13,14,14,13,13,13,13,14,14,13,13,14,13,13,14,13,13,13,14,13,14,13,13,13,14,13,13,14,13,14,13,13,13,14,13,13,13,14,13,14,14,13,13,13,14,13,13,14,13,13,14,12,14,14,13,13,14,13,14,13,13,13,14,13,13,14,12,15,13,13,14,13,13,14,13],"number_of_frames":151,"aperture_center_x":960,"aperture_center_y":540,"fixation_cross":true,"fixation_cross_width":15,"fixation_cross_height":15,"fixation_cross_color":"#111","fixation_cross_thickness":1,"border":true,"border_thickness":2,"border_color":"transparent","canvas_width":1920,"canvas_height":1080,"trial_type":"rdk","trial_index":55,"plugin_version":"2.0.0","time_elapsed":170421,"target_direction":298,"distractor_direction":90},{"rt":1102,"stimulus":"\n        <div class=\"response-container\">\n          <div class=\"response-instruction\">\n            <p>rotate the bar by using the left and right arrow keys.</p>\n            <p>when you are determined, press the Enter key.</p>\n          </div>\n          <div class=\"response-circle\">\n            <div class=\"response-fixation\"></div>\n            <div id=\"bar\" class=\"rotating-bar\"></div>\n          </div>\n        </div>\n      ","response":"Enter","trial_type":"html-keyboard-response","trial_index":56,"plugin_version":"2.1.0","time_elapsed":171523,"random_initial_angle":155,"response_angle_css":164,"response_angle_rdk":286,"angular_error_target":-12,"angular_error_distractor":-164,"target_direction":298,"target_group":"white","reward_points":7},{"rt":null,"stimulus":"\n          <p style=\"color: #00FF00;\">Your reward: 7 points</p>\n        ","response":null,"trial_type":"html-keyboard-response","trial_index":57,"plugin_version":"2.1.0","time_elapsed":173530},{"rt":null,"stimulus":"<div class=\"fixation\" style=\"font-size: 60px;\">+</div>","response":null,"trial_type":"html-keyboard-response","trial_index":58,"plugin_version":"2.1.0","time_elapsed":174544},{"target_group":"black","target_index":1,"condition_label":"practice","rt":1938,"response":"ArrowLeft","correct":false,"choices":"ALL_KEYS","correct_choice":["a"],"trial_duration":2000,"flip_timestamps":[],"response_ends_trial":false,"number_of_apertures":2,"number_of_dots":[79,100],"number_of_sets":1,"coherent_direction":[328,75],"coherence":1,"opposite_coherence":0,"dot_radius":2,"dot_side_length":1,"dot_life":-1,"move_distance":1,"aperture_width":300,"aperture_height":300,"dot_color":["white","black"],"dot_shape":"circle","background_color":"#AAA","RDK_type":3,"aperture_type":2,"reinsert_type":2,"frame_rate":13.18421052631579,"frame_rate_array":[1,5,11,13,14,13,13,13,13,14,14,13,13,14,12,14,14,13,13,14,13,13,14,13,13,13,13,14,14,13,13,14,13,13,14,13,13,14,13,13,14,13,13,13,15,12,14,13,13,13,14,14,13,13,13,15,12,14,13,13,13,14,14,13,13,13,14,13,14,13,13,13,14,13,13,13,15,12,13,14,13,13,15,13,12,14,13,14,13,14,13,13,13,14,13,14,13,13,14,12,14,14,13,13,14,13,13,13,14,13,14,14,12,13,14,13,13,14,13,13,14,13,13,14,14,13,13,13,13,14,13,14,13,13,13,14,14,13,13,14,12,13,15,13,13,13,13,14,14,13,13,13],"number_of_frames":152,"aperture_center_x":960,"aperture_center_y":540,"fixation_cross":true,"fixation_cross_width":15,"fixation_cross_height":15,"fixation_cross_color":"#111","fixation_cross_thickness":1,"border":true,"border_thickness":2,"border_color":"transparent","canvas_width":1920,"canvas_height":1080,"trial_type":"rdk","trial_index":59,"plugin_version":"2.0.0","time_elapsed":176557,"target_direction":75,"distractor_direction":328},{"rt":3005,"stimulus":"\n        <div class=\"response-container\">\n          <div class=\"response-instruction\">\n            <p>rotate the bar by using the left and right arrow keys.</p>\n            <p>when you are determined, press the Enter key.</p>\n          </div>\n          <div class=\"response-circle\">\n            <div class=\"response-fixation\"></div>\n            <div id=\"bar\" class=\"rotating-bar\"></div>\n          </div>\n        </div>\n      ","response":"Enter","trial_type":"html-keyboard-response","trial_index":60,"plugin_version":"2.1.0","time_elapsed":179563,"random_initial_angle":11,"response_angle_css":-209,"response_angle_rdk":299,"angular_error_target":-136,"angular_error_distractor":-29,"target_direction":75,"target_group":"black","reward_points":0},{"rt":null,"stimulus":"\n          <p style=\"color: #FF3333;\">Your reward: 0 points</p>\n        ","response":null,"trial_type":"html-keyboard-response","trial_index":61,"plugin_version":"2.1.0","time_elapsed":181569},{"rt":null,"stimulus":"<div class=\"fixation\" style=\"font-size: 60px;\">+</div>","response":null,"trial_type":"html-keyboard-response","trial_index":62,"plugin_version":"2.1.0","time_elapsed":182570},{"target_group":"white","target_index":0,"condition_label":"practice","rt":-1,"response":"","correct":false,"choices":"ALL_KEYS","correct_choice":["a"],"trial_duration":2000,"flip_timestamps":[],"response_ends_trial":false,"number_of_apertures":2,"number_of_dots":[100,82],"number_of_sets":1,"coherent_direction":[343,206],"coherence":1,"opposite_coherence":0,"dot_radius":2,"dot_side_length":1,"dot_life":-1,"move_distance":1,"aperture_width":300,"aperture_height":300,"dot_color":["white","black"],"dot_shape":"circle","background_color":"#AAA","RDK_type":3,"aperture_type":2,"reinsert_type":2,"frame_rate":13.210526315789474,"frame_rate_array":[0,10,11,13,14,13,13,14,13,13,14,13,13,13,14,13,13,13,13,15,13,13,13,14,13,13,14,13,13,14,13,13,13,15,13,13,13,13,14,13,14,13,13,13,14,13,14,13,13,13,14,14,13,13,13,13,14,14,13,13,13,13,14,13,14,13,13,14,13,14,13,13,14,13,13,14,13,12,14,14,13,14,13,13,13,14,14,13,13,13,13,14,13,13,13,14,13,14,13,13,13,14,14,13,13,14,12,14,14,13,13,14,13,13,14,12,14,14,13,13,13,13,14,14,13,13,14,13,13,14,13,13,13,13,14,14,13,13,14,12,14,14,13,13,14,13,14,12,14,13,14,13],"number_of_frames":152,"aperture_center_x":960,"aperture_center_y":540,"fixation_cross":true,"fixation_cross_width":15,"fixation_cross_height":15,"fixation_cross_color":"#111","fixation_cross_thickness":1,"border":true,"border_thickness":2,"border_color":"transparent","canvas_width":1920,"canvas_height":1080,"trial_type":"rdk","trial_index":63,"plugin_version":"2.0.0","time_elapsed":184585,"target_direction":343,"distractor_direction":206},{"rt":1474,"stimulus":"\n        <div class=\"response-container\">\n          <div class=\"response-instruction\">\n            <p>rotate the bar by using the left and right arrow keys.</p>\n            <p>when you are determined, press the Enter key.</p>\n          </div>\n          <div class=\"response-circle\">\n            <div class=\"response-fixation\"></div>\n            <div id=\"bar\" class=\"rotating-bar\"></div>\n          </div>\n        </div>\n      ","response":"Enter","trial_type":"html-keyboard-response","trial_index":64,"plugin_version":"2.1.0","time_elapsed":186060,"random_initial_angle":43,"response_angle_css":76,"response_angle_rdk":14,"angular_error_target":31,"angular_error_distractor":168,"target_direction":343,"target_group":"white","reward_points":3},{"rt":null,"stimulus":"\n          <p style=\"color: #00FF00;\">Your reward: 3 points</p>\n        ","response":null,"trial_type":"html-keyboard-response","trial_index":65,"plugin_version":"2.1.0","time_elapsed":188064},{"rt":1619,"stimulus":"\n        <div class=\"instructions-container\">\n          <h2>End of Practice</h2>\n          <p>You have completed the practice trials.</p>\n          <p>Press <strong>Enter</strong> key to begin the main experiment.</p>\n        </div>\n      ","response":"Enter","trial_type":"html-keyboard-response","trial_index":66,"plugin_version":"2.1.0","time_elapsed":189683},{"rt":null,"stimulus":"<div class=\"fixation\" style=\"font-size: 60px;\">+</div>","response":null,"trial_type":"html-keyboard-response","trial_index":67,"plugin_version":"2.1.0","time_elapsed":190689},{"target_group":"black","condition_label":"B_H_vs_W_L_rep17","target_direction":42,"distractor_direction":132,"session_rotation":268,"rt":-1,"response":"","correct":false,"choices":"ALL_KEYS","correct_choice":["a"],"trial_duration":2000,"flip_timestamps":[],"response_ends_trial":false,"number_of_apertures":200,"number_of_dots":[1,1,1,1,1,1,1,1,1,1,1,1,1,1,1,1,1,1,1,1,1,1,1,1,1,1,1,1,1,1,1,1,1,1,1,1,1,1,1,1,1,1,1,1,1,1,1,1,1,1,1,1,1,1,1,1,1,1,1,1,1,1,1,1,1,1,1,1,1,1,1,1,1,1,1,1,1,1,1,1,1,1,1,1,1,1,1,1,1,1,1,1,1,1,1,1,1,1,1,1,1,1,1,1,1,1,1,1,1,1,1,1,1,1,1,1,1,1,1,1,1,1,1,1,1,1,1,1,1,1,1,1,1,1,1,1,1,1,1,1,1,1,1,1,1,1,1,1,1,1,1,1,1,1,1,1,1,1,1,1,1,1,1,1,1,1,1,1,1,1,1,1,1,1,1,1,1,1,1,1,1,1,1,1,1,1,1,1,1,1,1,1,1,1,1,1,1,1,1,1],"number_of_sets":1,"coherent_direction":[42,42,42,42,42,42,42,42,132,132,42,42,132,42,132,42,42,42,42,42,132,42,42,132,42,132,132,132,132,42,42,132,132,132,42,132,42,42,132,132,132,132,42,132,42,132,132,42,42,132,42,132,132,132,132,42,132,132,42,132,132,42,132,42,42,132,42,132,132,42,132,42,132,132,132,42,42,132,132,132,42,42,42,42,132,42,132,42,42,132,42,42,132,42,132,42,42,132,42,42,42,42,42,132,132,42,132,132,42,42,132,132,132,42,132,132,132,132,42,42,42,42,132,42,42,132,132,132,132,132,42,132,42,132,42,132,42,42,42,42,42,132,132,42,42,132,132,42,132,132,42,42,42,132,132,132,42,132,132,42,132,132,42,132,132,132,42,42,132,132,132,42,42,132,42,42,42,42,42,132,42,42,132,132,132,42,42,132,132,132,42,132,132,132,132,132,132,42,42,42],"coherence":1,"opposite_coherence":0,"dot_radius":2,"dot_side_length":1,"dot_life":-1,"move_distance":1,"aperture_width":300,"aperture_height":300,"dot_color":["black","black","black","black","black","black","black","black","white","white","black","black","white","black","white","black","black","black","black","black","white","black","black","white","black","white","white","white","white","black","black","white","white","white","black","white","black","black","white","white","white","white","black","white","black","white","white","black","black","white","black","white","white","white","white","black","white","white","black","white","white","black","white","black","black","white","black","white","white","black","white","black","white","white","white","black","black","white","white","white","black","black","black","black","white","black","white","black","black","white","black","black","white","black","white","black","black","white","black","black","black","black","black","white","white","black","white","white","black","black","white","white","white","black","white","white","white","white","black","black","black","black","white","black","black","white","white","white","white","white","black","white","black","white","black","white","black","black","black","black","black","white","white","black","black","white","white","black","white","white","black","black","black","white","white","white","black","white","white","black","white","white","black","white","white","white","black","black","white","white","white","black","black","white","black","black","black","black","black","white","black","black","white","white","white","black","black","white","white","white","black","white","white","white","white","white","white","black","black","black"],"dot_shape":"circle","background_color":"#AAA","RDK_type":3,"aperture_type":2,"reinsert_type":2,"frame_rate":13.2317880794702,"frame_rate_array":[1,12,11,14,13,14,13,14,13,13,13,13,13,15,12,14,13,13,13,14,14,13,13,13,14,13,14,14,12,14,13,13,14,13,13,13,14,13,14,13,13,13,14,14,12,13,14,14,13,13,13,13,14,14,13,13,14,12,14,14,13,14,12,13,14,14,13,13,13,14,14,13,13,13,14,13,13,13,14,13,13,15,13,12,13,14,14,13,13,13,13,15,13,13,13,13,14,13,14,13,14,13,13,14,13,13,13,14,13,14,13,13,13,13,14,14,13,13,14,13,13,13,13,14,14,13,14,13,12,14,14,13,13,14,13,13,14,13,13,14,13,14,13,13,14,13,13,14,13,13,13],"number_of_frames":151,"aperture_center_x":960,"aperture_center_y":540,"fixation_cross":true,"fixation_cross_width":15,"fixation_cross_height":15,"fixation_cross_color":"#111","fixation_cross_thickness":1,"border":true,"border_thickness":2,"border_color":"transparent","canvas_width":1920,"canvas_height":1080,"trial_type":"rdk","trial_index":68,"plugin_version":"2.0.0","time_elapsed":192699},{"rt":2855,"stimulus":"\n        <div class=\"response-container\">\n          <div class=\"response-instruction\">\n            <p>rotate the bar by using the left and right arrow keys.</p>\n            <p>when you are determined, press the Enter key.</p>\n          </div>\n          <div class=\"response-circle\">\n            <div class=\"response-fixation\"></div>\n            <div id=\"bar\" class=\"rotating-bar\"></div>\n          </div>\n        </div>\n      ","response":"Enter","trial_type":"html-keyboard-response","trial_index":69,"plugin_version":"2.1.0","time_elapsed":195556,"random_initial_angle":113,"response_angle_css":-30,"response_angle_rdk":120,"angular_error_target":78,"angular_error_distractor":-12,"target_direction":42,"target_group":"black","reward_points":0},{"rt":null,"stimulus":"\n          <p style=\"color: #FF3333;\">Your reward: 0 points</p>\n        ","response":null,"trial_type":"html-keyboard-response","trial_index":70,"plugin_version":"2.1.0","time_elapsed":197710},{"rt":null,"stimulus":"<div class=\"fixation\" style=\"font-size: 60px;\">+</div>","response":null,"trial_type":"html-keyboard-response","trial_index":71,"plugin_version":"2.1.0","time_elapsed":198721},{"target_group":"white","condition_label":"W_H_vs_B_L_rep16","target_direction":311,"distractor_direction":218,"session_rotation":268,"rt":-1,"response":"","correct":false,"choices":"ALL_KEYS","correct_choice":["a"],"trial_duration":2000,"flip_timestamps":[],"response_ends_trial":false,"number_of_apertures":200,"number_of_dots":[1,1,1,1,1,1,1,1,1,1,1,1,1,1,1,1,1,1,1,1,1,1,1,1,1,1,1,1,1,1,1,1,1,1,1,1,1,1,1,1,1,1,1,1,1,1,1,1,1,1,1,1,1,1,1,1,1,1,1,1,1,1,1,1,1,1,1,1,1,1,1,1,1,1,1,1,1,1,1,1,1,1,1,1,1,1,1,1,1,1,1,1,1,1,1,1,1,1,1,1,1,1,1,1,1,1,1,1,1,1,1,1,1,1,1,1,1,1,1,1,1,1,1,1,1,1,1,1,1,1,1,1,1,1,1,1,1,1,1,1,1,1,1,1,1,1,1,1,1,1,1,1,1,1,1,1,1,1,1,1,1,1,1,1,1,1,1,1,1,1,1,1,1,1,1,1,1,1,1,1,1,1,1,1,1,1,1,1,1,1,1,1,1,1,1,1,1,1,1,1],"number_of_sets":1,"coherent_direction":[218,311,311,311,311,311,311,218,218,311,218,311,311,218,218,311,218,218,311,218,311,311,218,218,218,311,311,218,311,311,311,218,218,218,311,311,218,311,311,218,311,311,218,218,311,311,311,311,218,311,218,218,218,311,311,311,311,311,218,218,218,218,311,218,311,311,218,218,311,218,311,218,218,311,311,218,311,218,218,311,218,311,218,218,218,218,218,311,311,311,311,311,218,311,218,311,311,311,311,218,311,218,218,311,218,218,311,311,218,311,218,218,218,218,218,311,218,218,218,218,311,218,311,218,218,218,311,311,311,218,311,311,218,218,311,311,311,311,218,218,311,311,311,218,218,311,218,311,218,311,218,218,311,311,218,218,311,311,218,311,311,218,311,218,311,218,311,218,311,218,218,311,218,311,218,218,311,311,218,218,218,218,311,311,311,218,218,218,311,218,311,218,311,311,311,218,218,218,218,311],"coherence":1,"opposite_coherence":0,"dot_radius":2,"dot_side_length":1,"dot_life":-1,"move_distance":1,"aperture_width":300,"aperture_height":300,"dot_color":["black","white","white","white","white","white","white","black","black","white","black","white","white","black","black","white","black","black","white","black","white","white","black","black","black","white","white","black","white","white","white","black","black","black","white","white","black","white","white","black","white","white","black","black","white","white","white","white","black","white","black","black","black","white","white","white","white","white","black","black","black","black","white","black","white","white","black","black","white","black","white","black","black","white","white","black","white","black","black","white","black","white","black","black","black","black","black","white","white","white","white","white","black","white","black","white","white","white","white","black","white","black","black","white","black","black","white","white","black","white","black","black","black","black","black","white","black","black","black","black","white","black","white","black","black","black","white","white","white","black","white","white","black","black","white","white","white","white","black","black","white","white","white","black","black","white","black","white","black","white","black","black","white","white","black","black","white","white","black","white","white","black","white","black","white","black","white","black","white","black","black","white","black","white","black","black","white","white","black","black","black","black","white","white","white","black","black","black","white","black","white","black","white","white","white","black","black","black","black","white"],"dot_shape":"circle","background_color":"#AAA","RDK_type":3,"aperture_type":2,"reinsert_type":2,"frame_rate":13.210526315789474,"frame_rate_array":[2,8,11,12,13,14,13,14,13,13,14,13,13,14,13,13,14,13,13,14,13,13,14,13,14,13,13,13,13,15,13,13,13,14,13,13,13,14,13,14,13,13,13,14,13,14,13,13,13,14,13,14,13,13,14,12,14,14,13,13,13,14,14,13,13,13,13,14,14,12,14,14,13,13,13,14,13,14,13,13,13,13,14,13,14,13,13,13,14,14,13,13,13,13,14,14,13,13,14,13,14,13,13,13,14,13,13,14,13,13,13,14,13,14,13,13,13,14,13,13,14,14,13,13,14,13,13,13,13,14,13,14,13,13,13,14,13,13,14,14,13,13,14,13,13,13,14,13,13,14,13,14],"number_of_frames":152,"aperture_center_x":960,"aperture_center_y":540,"fixation_cross":true,"fixation_cross_width":15,"fixation_cross_height":15,"fixation_cross_color":"#111","fixation_cross_thickness":1,"border":true,"border_thickness":2,"border_color":"transparent","canvas_width":1920,"canvas_height":1080,"trial_type":"rdk","trial_index":72,"plugin_version":"2.0.0","time_elapsed":200733},{"rt":3246,"stimulus":"\n        <div class=\"response-container\">\n          <div class=\"response-instruction\">\n            <p>rotate the bar by using the left and right arrow keys.</p>\n            <p>when you are determined, press the Enter key.</p>\n          </div>\n          <div class=\"response-circle\">\n            <div class=\"response-fixation\"></div>\n            <div id=\"bar\" class=\"rotating-bar\"></div>\n          </div>\n        </div>\n      ","response":"Enter","trial_type":"html-keyboard-response","trial_index":73,"plugin_version":"2.1.0","time_elapsed":203979,"random_initial_angle":280,"response_angle_css":478,"response_angle_rdk":332,"angular_error_target":21,"angular_error_distractor":114,"target_direction":311,"target_group":"white","reward_points":5},{"rt":null,"stimulus":"\n          <p style=\"color: #00FF00;\">Your reward: 5 points</p>\n        ","response":null,"trial_type":"html-keyboard-response","trial_index":74,"plugin_version":"2.1.0","time_elapsed":205986},{"rt":null,"stimulus":"<div class=\"fixation\" style=\"font-size: 60px;\">+</div>","response":null,"trial_type":"html-keyboard-response","trial_index":75,"plugin_version":"2.1.0","time_elapsed":206995},{"target_group":"white","condition_label":"W_H_vs_B_L_rep24","target_direction":289,"distractor_direction":189,"session_rotation":268,"rt":-1,"response":"","correct":false,"choices":"ALL_KEYS","correct_choice":["a"],"trial_duration":2000,"flip_timestamps":[],"response_ends_trial":false,"number_of_apertures":200,"number_of_dots":[1,1,1,1,1,1,1,1,1,1,1,1,1,1,1,1,1,1,1,1,1,1,1,1,1,1,1,1,1,1,1,1,1,1,1,1,1,1,1,1,1,1,1,1,1,1,1,1,1,1,1,1,1,1,1,1,1,1,1,1,1,1,1,1,1,1,1,1,1,1,1,1,1,1,1,1,1,1,1,1,1,1,1,1,1,1,1,1,1,1,1,1,1,1,1,1,1,1,1,1,1,1,1,1,1,1,1,1,1,1,1,1,1,1,1,1,1,1,1,1,1,1,1,1,1,1,1,1,1,1,1,1,1,1,1,1,1,1,1,1,1,1,1,1,1,1,1,1,1,1,1,1,1,1,1,1,1,1,1,1,1,1,1,1,1,1,1,1,1,1,1,1,1,1,1,1,1,1,1,1,1,1,1,1,1,1,1,1,1,1,1,1,1,1,1,1,1,1,1,1],"number_of_sets":1,"coherent_direction":[289,189,189,189,289,189,289,289,189,189,189,189,189,189,189,189,189,289,289,189,189,289,289,189,189,289,189,289,289,189,189,189,189,289,189,289,189,289,189,289,189,289,289,189,189,189,189,189,289,289,189,189,289,289,289,289,289,289,289,289,189,189,289,289,289,289,189,289,189,289,189,289,289,289,189,189,189,289,289,289,289,189,189,289,189,189,289,289,189,289,189,289,289,189,189,289,289,289,289,189,289,189,189,289,289,289,189,289,189,289,189,189,189,189,289,289,289,189,289,289,189,289,189,189,289,189,189,289,189,189,189,289,189,189,289,289,289,289,189,289,289,189,189,289,189,289,189,189,289,289,289,289,289,189,189,289,189,189,289,289,289,289,189,189,289,189,189,189,189,289,289,289,189,189,189,189,189,189,289,289,289,189,289,189,289,189,289,189,289,289,289,189,189,189,289,289,189,289,289,189],"coherence":1,"opposite_coherence":0,"dot_radius":2,"dot_side_length":1,"dot_life":-1,"move_distance":1,"aperture_width":300,"aperture_height":300,"dot_color":["white","black","black","black","white","black","white","white","black","black","black","black","black","black","black","black","black","white","white","black","black","white","white","black","black","white","black","white","white","black","black","black","black","white","black","white","black","white","black","white","black","white","white","black","black","black","black","black","white","white","black","black","white","white","white","white","white","white","white","white","black","black","white","white","white","white","black","white","black","white","black","white","white","white","black","black","black","white","white","white","white","black","black","white","black","black","white","white","black","white","black","white","white","black","black","white","white","white","white","black","white","black","black","white","white","white","black","white","black","white","black","black","black","black","white","white","white","black","white","white","black","white","black","black","white","black","black","white","black","black","black","white","black","black","white","white","white","white","black","white","white","black","black","white","black","white","black","black","white","white","white","white","white","black","black","white","black","black","white","white","white","white","black","black","white","black","black","black","black","white","white","white","black","black","black","black","black","black","white","white","white","black","white","black","white","black","white","black","white","white","white","black","black","black","white","white","black","white","white","black"],"dot_shape":"circle","background_color":"#AAA","RDK_type":3,"aperture_type":2,"reinsert_type":2,"frame_rate":13.19078947368421,"frame_rate_array":[1,5,12,12,13,14,13,13,14,13,14,13,14,13,13,13,13,14,14,12,14,14,12,14,13,13,14,13,14,13,14,13,13,13,13,13,14,14,13,14,13,13,13,13,13,14,14,13,13,13,14,14,13,13,13,14,13,14,13,13,14,12,14,13,14,13,13,14,14,13,13,13,13,14,14,13,13,13,14,13,13,14,12,14,14,13,13,14,13,14,13,13,13,14,13,14,13,13,14,13,12,14,14,13,14,12,14,14,13,13,13,13,13,15,12,14,13,13,14,13,13,14,13,13,14,13,14,13,14,13,13,14,12,14,14,13,13,14,13,13,14,13,13,14,13,13,14,13,13,14,13,14],"number_of_frames":152,"aperture_center_x":960,"aperture_center_y":540,"fixation_cross":true,"fixation_cross_width":15,"fixation_cross_height":15,"fixation_cross_color":"#111","fixation_cross_thickness":1,"border":true,"border_thickness":2,"border_color":"transparent","canvas_width":1920,"canvas_height":1080,"trial_type":"rdk","trial_index":76,"plugin_version":"2.0.0","time_elapsed":209011},{"rt":1103,"stimulus":"\n        <div class=\"response-container\">\n          <div class=\"response-instruction\">\n            <p>rotate the bar by using the left and right arrow keys.</p>\n            <p>when you are determined, press the Enter key.</p>\n          </div>\n          <div class=\"response-circle\">\n            <div class=\"response-fixation\"></div>\n            <div id=\"bar\" class=\"rotating-bar\"></div>\n          </div>\n        </div>\n      ","response":"Enter","trial_type":"html-keyboard-response","trial_index":77,"plugin_version":"2.1.0","time_elapsed":210116,"random_initial_angle":120,"response_angle_css":148,"response_angle_rdk":302,"angular_error_target":13,"angular_error_distractor":113,"target_direction":289,"target_group":"white","reward_points":7},{"rt":null,"stimulus":"\n          <p style=\"color: #00FF00;\">Your reward: 7 points</p>\n        ","response":null,"trial_type":"html-keyboard-response","trial_index":78,"plugin_version":"2.1.0","time_elapsed":212124},{"rt":null,"stimulus":"<div class=\"fixation\" style=\"font-size: 60px;\">+</div>","response":null,"trial_type":"html-keyboard-response","trial_index":79,"plugin_version":"2.1.0","time_elapsed":213131},{"target_group":"black","condition_label":"B_H_vs_W_L_rep6","target_direction":24,"distractor_direction":115,"session_rotation":268,"rt":-1,"response":"","correct":false,"choices":"ALL_KEYS","correct_choice":["a"],"trial_duration":2000,"flip_timestamps":[],"response_ends_trial":false,"number_of_apertures":200,"number_of_dots":[1,1,1,1,1,1,1,1,1,1,1,1,1,1,1,1,1,1,1,1,1,1,1,1,1,1,1,1,1,1,1,1,1,1,1,1,1,1,1,1,1,1,1,1,1,1,1,1,1,1,1,1,1,1,1,1,1,1,1,1,1,1,1,1,1,1,1,1,1,1,1,1,1,1,1,1,1,1,1,1,1,1,1,1,1,1,1,1,1,1,1,1,1,1,1,1,1,1,1,1,1,1,1,1,1,1,1,1,1,1,1,1,1,1,1,1,1,1,1,1,1,1,1,1,1,1,1,1,1,1,1,1,1,1,1,1,1,1,1,1,1,1,1,1,1,1,1,1,1,1,1,1,1,1,1,1,1,1,1,1,1,1,1,1,1,1,1,1,1,1,1,1,1,1,1,1,1,1,1,1,1,1,1,1,1,1,1,1,1,1,1,1,1,1,1,1,1,1,1,1],"number_of_sets":1,"coherent_direction":[115,24,24,24,115,115,115,24,24,115,24,115,115,24,115,115,24,115,24,115,115,24,24,24,24,115,24,115,115,24,115,24,115,115,115,24,115,115,115,24,115,24,115,24,115,24,115,24,115,24,24,24,115,24,24,24,115,115,115,115,24,115,115,24,115,24,24,24,115,115,115,24,115,24,115,24,115,115,115,115,24,24,115,24,24,24,24,115,24,24,115,24,24,24,24,24,115,115,115,115,24,24,24,115,24,115,115,115,115,115,115,24,24,115,115,24,24,24,24,24,24,115,24,115,115,115,115,24,115,115,24,115,115,115,115,115,24,24,115,115,115,24,115,24,115,115,24,24,24,24,24,115,115,24,115,115,24,24,24,115,24,24,24,115,115,24,115,24,24,115,24,24,24,115,24,115,115,115,24,24,24,115,24,24,115,115,115,115,115,115,115,115,24,24,24,24,24,24,24,24],"coherence":1,"opposite_coherence":0,"dot_radius":2,"dot_side_length":1,"dot_life":-1,"move_distance":1,"aperture_width":300,"aperture_height":300,"dot_color":["white","black","black","black","white","white","white","black","black","white","black","white","white","black","white","white","black","white","black","white","white","black","black","black","black","white","black","white","white","black","white","black","white","white","white","black","white","white","white","black","white","black","white","black","white","black","white","black","white","black","black","black","white","black","black","black","white","white","white","white","black","white","white","black","white","black","black","black","white","white","white","black","white","black","white","black","white","white","white","white","black","black","white","black","black","black","black","white","black","black","white","black","black","black","black","black","white","white","white","white","black","black","black","white","black","white","white","white","white","white","white","black","black","white","white","black","black","black","black","black","black","white","black","white","white","white","white","black","white","white","black","white","white","white","white","white","black","black","white","white","white","black","white","black","white","white","black","black","black","black","black","white","white","black","white","white","black","black","black","white","black","black","black","white","white","black","white","black","black","white","black","black","black","white","black","white","white","white","black","black","black","white","black","black","white","white","white","white","white","white","white","white","black","black","black","black","black","black","black","black"],"dot_shape":"circle","background_color":"#AAA","RDK_type":3,"aperture_type":2,"reinsert_type":2,"frame_rate":13.19078947368421,"frame_rate_array":[2,5,12,12,14,13,13,13,13,14,13,14,13,14,13,13,14,12,14,13,14,13,13,14,13,14,13,13,13,13,14,13,14,13,13,14,13,14,13,13,13,14,13,13,14,13,13,14,13,13,13,14,14,13,14,12,13,14,13,14,13,13,14,13,13,14,13,14,13,14,13,13,13,14,13,13,14,13,13,14,13,13,13,14,13,14,13,13,14,13,14,13,13,13,14,13,14,13,13,13,14,13,13,14,13,14,14,12,13,14,13,14,14,12,14,13,13,13,13,14,14,12,14,14,13,14,13,13,13,13,14,13,13,14,13,13,13,14,14,12,14,14,13,13,14,12,14,14,13,13,13,14],"number_of_frames":152,"aperture_center_x":960,"aperture_center_y":540,"fixation_cross":true,"fixation_cross_width":15,"fixation_cross_height":15,"fixation_cross_color":"#111","fixation_cross_thickness":1,"border":true,"border_thickness":2,"border_color":"transparent","canvas_width":1920,"canvas_height":1080,"trial_type":"rdk","trial_index":80,"plugin_version":"2.0.0","time_elapsed":215144},{"rt":2299,"stimulus":"\n        <div class=\"response-container\">\n          <div class=\"response-instruction\">\n            <p>rotate the bar by using the left and right arrow keys.</p>\n            <p>when you are determined, press the Enter key.</p>\n          </div>\n          <div class=\"response-circle\">\n            <div class=\"response-fixation\"></div>\n            <div id=\"bar\" class=\"rotating-bar\"></div>\n          </div>\n        </div>\n      ","response":"Enter","trial_type":"html-keyboard-response","trial_index":81,"plugin_version":"2.1.0","time_elapsed":217443,"random_initial_angle":11,"response_angle_css":96,"response_angle_rdk":354,"angular_error_target":-30,"angular_error_distractor":-121,"target_direction":24,"target_group":"black","reward_points":4},{"rt":null,"stimulus":"\n          <p style=\"color: #00FF00;\">Your reward: 4 points</p>\n        ","response":null,"trial_type":"html-keyboard-response","trial_index":82,"plugin_version":"2.1.0","time_elapsed":219453},{"rt":null,"stimulus":"<div class=\"fixation\" style=\"font-size: 60px;\">+</div>","response":null,"trial_type":"html-keyboard-response","trial_index":83,"plugin_version":"2.1.0","time_elapsed":220464},{"target_group":"black","condition_label":"B_H_vs_W_L_rep7","target_direction":23,"distractor_direction":130,"session_rotation":268,"rt":-1,"response":"","correct":false,"choices":"ALL_KEYS","correct_choice":["a"],"trial_duration":2000,"flip_timestamps":[],"response_ends_trial":false,"number_of_apertures":200,"number_of_dots":[1,1,1,1,1,1,1,1,1,1,1,1,1,1,1,1,1,1,1,1,1,1,1,1,1,1,1,1,1,1,1,1,1,1,1,1,1,1,1,1,1,1,1,1,1,1,1,1,1,1,1,1,1,1,1,1,1,1,1,1,1,1,1,1,1,1,1,1,1,1,1,1,1,1,1,1,1,1,1,1,1,1,1,1,1,1,1,1,1,1,1,1,1,1,1,1,1,1,1,1,1,1,1,1,1,1,1,1,1,1,1,1,1,1,1,1,1,1,1,1,1,1,1,1,1,1,1,1,1,1,1,1,1,1,1,1,1,1,1,1,1,1,1,1,1,1,1,1,1,1,1,1,1,1,1,1,1,1,1,1,1,1,1,1,1,1,1,1,1,1,1,1,1,1,1,1,1,1,1,1,1,1,1,1,1,1,1,1,1,1,1,1,1,1,1,1,1,1,1,1],"number_of_sets":1,"coherent_direction":[130,23,130,23,130,23,130,130,130,23,130,130,130,23,23,23,130,23,23,23,130,23,130,130,23,23,23,23,130,23,130,23,130,23,130,23,130,130,130,130,23,130,23,130,23,130,130,130,130,130,23,23,130,130,23,23,130,23,23,130,23,130,23,130,130,23,23,130,130,130,23,130,23,130,130,130,23,23,130,23,23,130,23,130,23,23,23,23,23,130,130,130,23,23,130,130,23,130,130,23,130,130,23,23,130,130,23,130,23,23,23,130,23,23,130,130,23,130,130,23,130,23,23,23,130,130,130,23,23,130,23,23,130,23,130,23,130,130,130,130,23,130,23,23,23,23,130,23,23,23,130,23,130,130,130,130,23,130,23,130,23,130,23,130,23,130,130,130,23,23,23,23,23,23,23,23,130,130,130,130,130,23,23,130,130,130,23,23,23,130,130,23,130,130,23,23,23,130,23,23],"coherence":1,"opposite_coherence":0,"dot_radius":2,"dot_side_length":1,"dot_life":-1,"move_distance":1,"aperture_width":300,"aperture_height":300,"dot_color":["white","black","white","black","white","black","white","white","white","black","white","white","white","black","black","black","white","black","black","black","white","black","white","white","black","black","black","black","white","black","white","black","white","black","white","black","white","white","white","white","black","white","black","white","black","white","white","white","white","white","black","black","white","white","black","black","white","black","black","white","black","white","black","white","white","black","black","white","white","white","black","white","black","white","white","white","black","black","white","black","black","white","black","white","black","black","black","black","black","white","white","white","black","black","white","white","black","white","white","black","white","white","black","black","white","white","black","white","black","black","black","white","black","black","white","white","black","white","white","black","white","black","black","black","white","white","white","black","black","white","black","black","white","black","white","black","white","white","white","white","black","white","black","black","black","black","white","black","black","black","white","black","white","white","white","white","black","white","black","white","black","white","black","white","black","white","white","white","black","black","black","black","black","black","black","black","white","white","white","white","white","black","black","white","white","white","black","black","black","white","white","black","white","white","black","black","black","white","black","black"],"dot_shape":"circle","background_color":"#AAA","RDK_type":3,"aperture_type":2,"reinsert_type":2,"frame_rate":13.210526315789474,"frame_rate_array":[1,8,12,13,13,14,13,13,14,13,13,13,14,13,14,13,13,13,14,14,13,13,13,14,13,13,13,14,14,13,14,13,13,13,14,13,13,14,13,13,14,13,13,14,12,14,14,13,13,14,12,15,13,13,14,12,13,14,14,13,13,13,14,13,13,14,13,14,14,13,13,13,13,13,14,13,14,13,13,13,14,13,13,14,14,12,14,14,13,13,14,13,13,13,14,13,14,13,13,14,14,12,14,13,13,13,14,13,14,13,13,14,14,13,12,14,13,13,15,13,12,14,13,13,15,12,13,14,13,14,13,13,14,14,13,13,13,13,14,14,12,14,13,14,13,13,14,12,14,13,14,13],"number_of_frames":152,"aperture_center_x":960,"aperture_center_y":540,"fixation_cross":true,"fixation_cross_width":15,"fixation_cross_height":15,"fixation_cross_color":"#111","fixation_cross_thickness":1,"border":true,"border_thickness":2,"border_color":"transparent","canvas_width":1920,"canvas_height":1080,"trial_type":"rdk","trial_index":84,"plugin_version":"2.0.0","time_elapsed":222480},{"rt":1842,"stimulus":"\n        <div class=\"response-container\">\n          <div class=\"response-instruction\">\n            <p>rotate the bar by using the left and right arrow keys.</p>\n            <p>when you are determined, press the Enter key.</p>\n          </div>\n          <div class=\"response-circle\">\n            <div class=\"response-fixation\"></div>\n            <div id=\"bar\" class=\"rotating-bar\"></div>\n          </div>\n        </div>\n      ","response":"Enter","trial_type":"html-keyboard-response","trial_index":85,"plugin_version":"2.1.0","time_elapsed":224323,"random_initial_angle":114,"response_angle_css":80,"response_angle_rdk":10,"angular_error_target":-13,"angular_error_distractor":-120,"target_direction":23,"target_group":"black","reward_points":7},{"rt":null,"stimulus":"\n          <p style=\"color: #00FF00;\">Your reward: 7 points</p>\n        ","response":null,"trial_type":"html-keyboard-response","trial_index":86,"plugin_version":"2.1.0","time_elapsed":226334},{"rt":null,"stimulus":"<div class=\"fixation\" style=\"font-size: 60px;\">+</div>","response":null,"trial_type":"html-keyboard-response","trial_index":87,"plugin_version":"2.1.0","time_elapsed":227342},{"target_group":"black","condition_label":"B_H_vs_W_L_rep18","target_direction":19,"distractor_direction":129,"session_rotation":268,"rt":-1,"response":"","correct":false,"choices":"ALL_KEYS","correct_choice":["a"],"trial_duration":2000,"flip_timestamps":[],"response_ends_trial":false,"number_of_apertures":200,"number_of_dots":[1,1,1,1,1,1,1,1,1,1,1,1,1,1,1,1,1,1,1,1,1,1,1,1,1,1,1,1,1,1,1,1,1,1,1,1,1,1,1,1,1,1,1,1,1,1,1,1,1,1,1,1,1,1,1,1,1,1,1,1,1,1,1,1,1,1,1,1,1,1,1,1,1,1,1,1,1,1,1,1,1,1,1,1,1,1,1,1,1,1,1,1,1,1,1,1,1,1,1,1,1,1,1,1,1,1,1,1,1,1,1,1,1,1,1,1,1,1,1,1,1,1,1,1,1,1,1,1,1,1,1,1,1,1,1,1,1,1,1,1,1,1,1,1,1,1,1,1,1,1,1,1,1,1,1,1,1,1,1,1,1,1,1,1,1,1,1,1,1,1,1,1,1,1,1,1,1,1,1,1,1,1,1,1,1,1,1,1,1,1,1,1,1,1,1,1,1,1,1,1],"number_of_sets":1,"coherent_direction":[129,129,19,19,19,129,129,19,129,129,129,19,129,19,19,19,19,19,129,19,129,129,19,129,19,129,129,129,19,129,19,19,19,19,19,19,19,129,129,129,19,129,19,129,129,19,19,129,129,19,129,129,129,129,129,129,129,19,129,129,129,19,19,19,19,19,19,129,129,129,19,19,129,19,19,129,129,19,19,129,19,129,19,19,129,19,129,19,129,129,129,129,129,19,129,129,19,19,129,129,129,19,19,129,19,19,129,19,129,129,19,129,19,19,19,129,129,19,129,19,19,129,19,19,19,19,129,19,129,19,19,19,129,129,129,129,19,129,19,19,129,129,19,19,19,129,129,129,129,19,19,129,19,19,19,19,129,129,129,19,19,19,19,129,19,129,129,129,129,129,19,19,129,19,129,19,129,19,129,19,129,129,129,129,19,19,129,19,19,129,19,129,19,19,129,19,19,19,129,129],"coherence":1,"opposite_coherence":0,"dot_radius":2,"dot_side_length":1,"dot_life":-1,"move_distance":1,"aperture_width":300,"aperture_height":300,"dot_color":["white","white","black","black","black","white","white","black","white","white","white","black","white","black","black","black","black","black","white","black","white","white","black","white","black","white","white","white","black","white","black","black","black","black","black","black","black","white","white","white","black","white","black","white","white","black","black","white","white","black","white","white","white","white","white","white","white","black","white","white","white","black","black","black","black","black","black","white","white","white","black","black","white","black","black","white","white","black","black","white","black","white","black","black","white","black","white","black","white","white","white","white","white","black","white","white","black","black","white","white","white","black","black","white","black","black","white","black","white","white","black","white","black","black","black","white","white","black","white","black","black","white","black","black","black","black","white","black","white","black","black","black","white","white","white","white","black","white","black","black","white","white","black","black","black","white","white","white","white","black","black","white","black","black","black","black","white","white","white","black","black","black","black","white","black","white","white","white","white","white","black","black","white","black","white","black","white","black","white","black","white","white","white","white","black","black","white","black","black","white","black","white","black","black","white","black","black","black","white","white"],"dot_shape":"circle","background_color":"#AAA","RDK_type":3,"aperture_type":2,"reinsert_type":2,"frame_rate":13.23841059602649,"frame_rate_array":[2,13,10,13,13,14,13,14,14,13,13,13,13,14,14,13,13,13,14,13,14,13,13,13,14,13,14,13,13,13,13,14,14,13,13,13,14,13,13,13,14,13,14,13,14,13,14,12,14,13,13,14,13,14,13,13,13,14,13,13,14,13,13,14,13,14,13,13,14,13,14,13,13,13,14,13,14,12,14,14,13,13,14,12,14,13,14,13,13,14,14,12,14,13,13,14,14,12,14,13,13,14,13,13,13,14,13,14,14,13,13,13,13,14,13,14,12,15,13,13,13,13,14,13,14,13,13,14,13,14,13,12,14,14,13,14,12,14,14,13,13,13,13,13,14,14,13,13,13,14,13],"number_of_frames":151,"aperture_center_x":960,"aperture_center_y":540,"fixation_cross":true,"fixation_cross_width":15,"fixation_cross_height":15,"fixation_cross_color":"#111","fixation_cross_thickness":1,"border":true,"border_thickness":2,"border_color":"transparent","canvas_width":1920,"canvas_height":1080,"trial_type":"rdk","trial_index":88,"plugin_version":"2.0.0","time_elapsed":229351},{"rt":1571,"stimulus":"\n        <div class=\"response-container\">\n          <div class=\"response-instruction\">\n            <p>rotate the bar by using the left and right arrow keys.</p>\n            <p>when you are determined, press the Enter key.</p>\n          </div>\n          <div class=\"response-circle\">\n            <div class=\"response-fixation\"></div>\n            <div id=\"bar\" class=\"rotating-bar\"></div>\n          </div>\n        </div>\n      ","response":"Enter","trial_type":"html-keyboard-response","trial_index":89,"plugin_version":"2.1.0","time_elapsed":230923,"random_initial_angle":295,"response_angle_css":316,"response_angle_rdk":134,"angular_error_target":115,"angular_error_distractor":5,"target_direction":19,"target_group":"black","reward_points":0},{"rt":null,"stimulus":"\n          <p style=\"color: #FF3333;\">Your reward: 0 points</p>\n        ","response":null,"trial_type":"html-keyboard-response","trial_index":90,"plugin_version":"2.1.0","time_elapsed":232933},{"rt":null,"stimulus":"<div class=\"fixation\" style=\"font-size: 60px;\">+</div>","response":null,"trial_type":"html-keyboard-response","trial_index":91,"plugin_version":"2.1.0","time_elapsed":233943},{"target_group":"black","condition_label":"B_H_vs_W_L_rep3","target_direction":21,"distractor_direction":126,"session_rotation":268,"rt":-1,"response":"","correct":false,"choices":"ALL_KEYS","correct_choice":["a"],"trial_duration":2000,"flip_timestamps":[],"response_ends_trial":false,"number_of_apertures":200,"number_of_dots":[1,1,1,1,1,1,1,1,1,1,1,1,1,1,1,1,1,1,1,1,1,1,1,1,1,1,1,1,1,1,1,1,1,1,1,1,1,1,1,1,1,1,1,1,1,1,1,1,1,1,1,1,1,1,1,1,1,1,1,1,1,1,1,1,1,1,1,1,1,1,1,1,1,1,1,1,1,1,1,1,1,1,1,1,1,1,1,1,1,1,1,1,1,1,1,1,1,1,1,1,1,1,1,1,1,1,1,1,1,1,1,1,1,1,1,1,1,1,1,1,1,1,1,1,1,1,1,1,1,1,1,1,1,1,1,1,1,1,1,1,1,1,1,1,1,1,1,1,1,1,1,1,1,1,1,1,1,1,1,1,1,1,1,1,1,1,1,1,1,1,1,1,1,1,1,1,1,1,1,1,1,1,1,1,1,1,1,1,1,1,1,1,1,1,1,1,1,1,1,1],"number_of_sets":1,"coherent_direction":[126,126,126,21,21,21,21,126,126,21,21,126,126,21,21,21,126,21,126,126,21,21,126,126,126,126,126,21,21,126,126,126,126,21,21,21,21,126,21,126,21,21,126,21,126,21,126,126,21,21,21,21,126,126,21,126,21,126,126,126,21,21,21,126,21,126,21,21,21,21,21,21,21,126,126,126,21,126,126,21,126,126,126,21,126,21,126,21,126,126,21,126,126,126,126,126,126,126,21,21,126,21,21,126,21,126,126,21,21,21,21,21,126,21,21,126,21,21,21,21,126,21,21,21,126,21,21,21,126,126,21,126,21,126,21,21,126,126,21,21,126,21,126,126,126,21,126,126,21,21,21,126,126,126,126,21,126,21,126,21,21,126,21,21,126,126,126,126,126,21,21,21,21,126,21,126,21,126,126,126,126,126,126,126,21,21,21,126,21,21,21,21,126,21,126,126,126,126,21,126],"coherence":1,"opposite_coherence":0,"dot_radius":2,"dot_side_length":1,"dot_life":-1,"move_distance":1,"aperture_width":300,"aperture_height":300,"dot_color":["white","white","white","black","black","black","black","white","white","black","black","white","white","black","black","black","white","black","white","white","black","black","white","white","white","white","white","black","black","white","white","white","white","black","black","black","black","white","black","white","black","black","white","black","white","black","white","white","black","black","black","black","white","white","black","white","black","white","white","white","black","black","black","white","black","white","black","black","black","black","black","black","black","white","white","white","black","white","white","black","white","white","white","black","white","black","white","black","white","white","black","white","white","white","white","white","white","white","black","black","white","black","black","white","black","white","white","black","black","black","black","black","white","black","black","white","black","black","black","black","white","black","black","black","white","black","black","black","white","white","black","white","black","white","black","black","white","white","black","black","white","black","white","white","white","black","white","white","black","black","black","white","white","white","white","black","white","black","white","black","black","white","black","black","white","white","white","white","white","black","black","black","black","white","black","white","black","white","white","white","white","white","white","white","black","black","black","white","black","black","black","black","white","black","white","white","white","white","black","white"],"dot_shape":"circle","background_color":"#AAA","RDK_type":3,"aperture_type":2,"reinsert_type":2,"frame_rate":13.25,"frame_rate_array":[1,14,10,14,13,14,14,13,13,13,13,14,14,12,14,13,13,14,13,13,14,13,14,13,13,13,14,14,13,13,13,13,14,13,13,14,13,13,14,13,14,13,13,13,14,14,13,13,13,13,14,13,14,13,13,14,14,12,14,13,14,13,13,14,13,13,13,14,13,13,13,14,13,14,13,14,13,13,13,13,14,13,14,13,13,14,13,14,13,13,13,13,14,14,13,13,13,14,13,14,13,13,13,14,13,13,14,13,14,13,14,12,14,14,13,13,13,14,13,14,13,14,13,13,13,13,14,13,14,13,13,14,13,13,13,13,14,14,13,13,13,15,13,12,14,13,13,14,13,13,14,14],"number_of_frames":152,"aperture_center_x":960,"aperture_center_y":540,"fixation_cross":true,"fixation_cross_width":15,"fixation_cross_height":15,"fixation_cross_color":"#111","fixation_cross_thickness":1,"border":true,"border_thickness":2,"border_color":"transparent","canvas_width":1920,"canvas_height":1080,"trial_type":"rdk","trial_index":92,"plugin_version":"2.0.0","time_elapsed":235959},{"rt":2828,"stimulus":"\n        <div class=\"response-container\">\n          <div class=\"response-instruction\">\n            <p>rotate the bar by using the left and right arrow keys.</p>\n            <p>when you are determined, press the Enter key.</p>\n          </div>\n          <div class=\"response-circle\">\n            <div class=\"response-fixation\"></div>\n            <div id=\"bar\" class=\"rotating-bar\"></div>\n          </div>\n        </div>\n      ","response":"Enter","trial_type":"html-keyboard-response","trial_index":93,"plugin_version":"2.1.0","time_elapsed":238787,"random_initial_angle":192,"response_angle_css":-37,"response_angle_rdk":127,"angular_error_target":106,"angular_error_distractor":1,"target_direction":21,"target_group":"black","reward_points":0},{"rt":null,"stimulus":"\n          <p style=\"color: #FF3333;\">Your reward: 0 points</p>\n        ","response":null,"trial_type":"html-keyboard-response","trial_index":94,"plugin_version":"2.1.0","time_elapsed":240789},{"rt":null,"stimulus":"<div class=\"fixation\" style=\"font-size: 60px;\">+</div>","response":null,"trial_type":"html-keyboard-response","trial_index":95,"plugin_version":"2.1.0","time_elapsed":241800},{"target_group":"white","condition_label":"W_H_vs_B_L_rep2","target_direction":300,"distractor_direction":179,"session_rotation":268,"rt":-1,"response":"","correct":false,"choices":"ALL_KEYS","correct_choice":["a"],"trial_duration":2000,"flip_timestamps":[],"response_ends_trial":false,"number_of_apertures":200,"number_of_dots":[1,1,1,1,1,1,1,1,1,1,1,1,1,1,1,1,1,1,1,1,1,1,1,1,1,1,1,1,1,1,1,1,1,1,1,1,1,1,1,1,1,1,1,1,1,1,1,1,1,1,1,1,1,1,1,1,1,1,1,1,1,1,1,1,1,1,1,1,1,1,1,1,1,1,1,1,1,1,1,1,1,1,1,1,1,1,1,1,1,1,1,1,1,1,1,1,1,1,1,1,1,1,1,1,1,1,1,1,1,1,1,1,1,1,1,1,1,1,1,1,1,1,1,1,1,1,1,1,1,1,1,1,1,1,1,1,1,1,1,1,1,1,1,1,1,1,1,1,1,1,1,1,1,1,1,1,1,1,1,1,1,1,1,1,1,1,1,1,1,1,1,1,1,1,1,1,1,1,1,1,1,1,1,1,1,1,1,1,1,1,1,1,1,1,1,1,1,1,1,1],"number_of_sets":1,"coherent_direction":[179,300,179,300,179,179,300,179,300,179,300,179,179,300,300,300,300,179,179,179,300,179,179,179,179,179,300,179,300,300,300,179,179,300,179,179,179,179,179,179,179,300,179,300,300,179,179,300,179,179,179,179,179,179,179,300,300,300,300,179,300,300,300,179,179,300,179,300,179,300,300,300,300,300,179,179,179,179,179,300,300,300,300,300,300,179,179,179,300,179,300,179,300,300,179,179,179,300,179,179,179,300,300,179,300,300,300,300,179,300,300,300,300,300,300,300,300,300,300,179,300,179,179,300,179,179,179,300,300,300,300,300,179,300,179,300,179,179,179,179,300,300,300,179,179,300,179,179,300,300,300,179,300,179,179,300,300,179,300,300,300,179,179,179,179,300,300,179,179,179,179,179,300,179,179,300,179,300,179,300,300,179,300,300,179,300,300,179,300,179,300,179,300,179,179,300,179,300,300,300],"coherence":1,"opposite_coherence":0,"dot_radius":2,"dot_side_length":1,"dot_life":-1,"move_distance":1,"aperture_width":300,"aperture_height":300,"dot_color":["black","white","black","white","black","black","white","black","white","black","white","black","black","white","white","white","white","black","black","black","white","black","black","black","black","black","white","black","white","white","white","black","black","white","black","black","black","black","black","black","black","white","black","white","white","black","black","white","black","black","black","black","black","black","black","white","white","white","white","black","white","white","white","black","black","white","black","white","black","white","white","white","white","white","black","black","black","black","black","white","white","white","white","white","white","black","black","black","white","black","white","black","white","white","black","black","black","white","black","black","black","white","white","black","white","white","white","white","black","white","white","white","white","white","white","white","white","white","white","black","white","black","black","white","black","black","black","white","white","white","white","white","black","white","black","white","black","black","black","black","white","white","white","black","black","white","black","black","white","white","white","black","white","black","black","white","white","black","white","white","white","black","black","black","black","white","white","black","black","black","black","black","white","black","black","white","black","white","black","white","white","black","white","white","black","white","white","black","white","black","white","black","white","black","black","white","black","white","white","white"],"dot_shape":"circle","background_color":"#AAA","RDK_type":3,"aperture_type":2,"reinsert_type":2,"frame_rate":13.245033112582782,"frame_rate_array":[1,15,9,14,14,13,14,12,14,13,14,14,12,13,14,14,13,13,13,13,14,14,13,13,13,14,13,13,14,13,13,14,13,13,14,13,14,13,13,13,14,13,14,13,13,13,14,13,13,14,14,13,13,14,13,13,14,13,13,14,13,13,14,13,14,12,14,13,14,13,14,13,13,13,13,14,14,12,14,13,14,13,13,14,13,13,14,13,14,13,13,13,14,13,13,13,13,15,13,13,14,12,15,13,12,14,13,14,13,13,14,13,14,13,13,13,14,13,14,13,13,13,14,13,14,13,13,14,13,14,13,13,13,14,12,15,13,13,13,13,13,14,13,14,13,14,13,13,14,13,13],"number_of_frames":151,"aperture_center_x":960,"aperture_center_y":540,"fixation_cross":true,"fixation_cross_width":15,"fixation_cross_height":15,"fixation_cross_color":"#111","fixation_cross_thickness":1,"border":true,"border_thickness":2,"border_color":"transparent","canvas_width":1920,"canvas_height":1080,"trial_type":"rdk","trial_index":96,"plugin_version":"2.0.0","time_elapsed":243804},{"rt":3256,"stimulus":"\n        <div class=\"response-container\">\n          <div class=\"response-instruction\">\n            <p>rotate the bar by using the left and right arrow keys.</p>\n            <p>when you are determined, press the Enter key.</p>\n          </div>\n          <div class=\"response-circle\">\n            <div class=\"response-fixation\"></div>\n            <div id=\"bar\" class=\"rotating-bar\"></div>\n          </div>\n        </div>\n      ","response":"Enter","trial_type":"html-keyboard-response","trial_index":97,"plugin_version":"2.1.0","time_elapsed":247059,"random_initial_angle":289,"response_angle_css":514,"response_angle_rdk":296,"angular_error_target":-4,"angular_error_distractor":117,"target_direction":300,"target_group":"white","reward_points":9},{"rt":null,"stimulus":"\n          <p style=\"color: #00FF00;\">Your reward: 9 points</p>\n        ","response":null,"trial_type":"html-keyboard-response","trial_index":98,"plugin_version":"2.1.0","time_elapsed":249068},{"rt":null,"stimulus":"<div class=\"fixation\" style=\"font-size: 60px;\">+</div>","response":null,"trial_type":"html-keyboard-response","trial_index":99,"plugin_version":"2.1.0","time_elapsed":250076},{"target_group":"black","condition_label":"B_H_vs_W_L_rep9","target_direction":0,"distractor_direction":130,"session_rotation":268,"rt":-1,"response":"","correct":false,"choices":"ALL_KEYS","correct_choice":["a"],"trial_duration":2000,"flip_timestamps":[],"response_ends_trial":false,"number_of_apertures":200,"number_of_dots":[1,1,1,1,1,1,1,1,1,1,1,1,1,1,1,1,1,1,1,1,1,1,1,1,1,1,1,1,1,1,1,1,1,1,1,1,1,1,1,1,1,1,1,1,1,1,1,1,1,1,1,1,1,1,1,1,1,1,1,1,1,1,1,1,1,1,1,1,1,1,1,1,1,1,1,1,1,1,1,1,1,1,1,1,1,1,1,1,1,1,1,1,1,1,1,1,1,1,1,1,1,1,1,1,1,1,1,1,1,1,1,1,1,1,1,1,1,1,1,1,1,1,1,1,1,1,1,1,1,1,1,1,1,1,1,1,1,1,1,1,1,1,1,1,1,1,1,1,1,1,1,1,1,1,1,1,1,1,1,1,1,1,1,1,1,1,1,1,1,1,1,1,1,1,1,1,1,1,1,1,1,1,1,1,1,1,1,1,1,1,1,1,1,1,1,1,1,1,1,1],"number_of_sets":1,"coherent_direction":[130,0,130,0,0,130,0,130,0,130,130,130,0,0,130,130,0,130,0,130,130,130,0,0,130,130,0,0,130,130,0,130,130,0,130,0,0,130,0,130,130,130,130,130,0,0,130,130,0,0,130,0,130,0,0,130,130,130,0,130,130,0,130,0,0,0,0,0,0,0,0,130,130,0,0,0,0,0,130,0,130,0,130,0,130,0,130,0,0,0,130,0,0,0,130,130,130,130,0,130,0,0,0,0,130,0,0,130,130,130,0,130,0,130,130,130,130,0,0,0,130,0,0,0,0,0,130,0,130,0,0,130,0,130,130,130,0,130,0,0,130,130,0,130,0,0,0,0,130,130,0,0,0,0,0,130,130,0,130,130,0,130,0,0,130,0,0,0,130,130,130,130,130,0,130,130,0,0,130,130,130,130,0,130,130,130,0,0,130,130,0,130,130,130,130,130,0,130,130,0],"coherence":1,"opposite_coherence":0,"dot_radius":2,"dot_side_length":1,"dot_life":-1,"move_distance":1,"aperture_width":300,"aperture_height":300,"dot_color":["white","black","white","black","black","white","black","white","black","white","white","white","black","black","white","white","black","white","black","white","white","white","black","black","white","white","black","black","white","white","black","white","white","black","white","black","black","white","black","white","white","white","white","white","black","black","white","white","black","black","white","black","white","black","black","white","white","white","black","white","white","black","white","black","black","black","black","black","black","black","black","white","white","black","black","black","black","black","white","black","white","black","white","black","white","black","white","black","black","black","white","black","black","black","white","white","white","white","black","white","black","black","black","black","white","black","black","white","white","white","black","white","black","white","white","white","white","black","black","black","white","black","black","black","black","black","white","black","white","black","black","white","black","white","white","white","black","white","black","black","white","white","black","white","black","black","black","black","white","white","black","black","black","black","black","white","white","black","white","white","black","white","black","black","white","black","black","black","white","white","white","white","white","black","white","white","black","black","white","white","white","white","black","white","white","white","black","black","white","white","black","white","white","white","white","white","black","white","white","black"],"dot_shape":"circle","background_color":"#AAA","RDK_type":3,"aperture_type":2,"reinsert_type":2,"frame_rate":13.198675496688741,"frame_rate_array":[0,8,10,15,13,13,13,14,13,14,13,13,13,14,13,14,13,13,13,13,15,13,13,13,13,13,14,14,13,13,13,13,15,12,14,13,14,14,12,14,13,13,14,13,13,14,13,13,14,13,13,14,12,14,14,13,14,13,13,14,13,13,13,13,13,15,13,13,13,13,14,14,13,13,14,13,13,14,13,13,14,13,13,14,12,14,14,13,13,13,14,13,14,13,13,14,12,14,13,13,14,13,14,13,14,13,13,14,12,14,13,14,13,14,13,14,12,13,15,13,13,13,13,14,13,14,13,13,13,13,15,13,13,13,13,14,13,14,13,13,13,14,13,14,13,14,13,13,14,13,13],"number_of_frames":151,"aperture_center_x":960,"aperture_center_y":540,"fixation_cross":true,"fixation_cross_width":15,"fixation_cross_height":15,"fixation_cross_color":"#111","fixation_cross_thickness":1,"border":true,"border_thickness":2,"border_color":"transparent","canvas_width":1920,"canvas_height":1080,"trial_type":"rdk","trial_index":100,"plugin_version":"2.0.0","time_elapsed":252085},{"rt":2797,"stimulus":"\n        <div class=\"response-container\">\n          <div class=\"response-instruction\">\n            <p>rotate the bar by using the left and right arrow keys.</p>\n            <p>when you are determined, press the Enter key.</p>\n          </div>\n          <div class=\"response-circle\">\n            <div class=\"response-fixation\"></div>\n            <div id=\"bar\" class=\"rotating-bar\"></div>\n          </div>\n        </div>\n      ","response":"Enter","trial_type":"html-keyboard-response","trial_index":101,"plugin_version":"2.1.0","time_elapsed":254883,"random_initial_angle":158,"response_angle_css":338,"response_angle_rdk":112,"angular_error_target":112,"angular_error_distractor":-18,"target_direction":0,"target_group":"black","reward_points":0},{"rt":null,"stimulus":"\n          <p style=\"color: #FF3333;\">Your reward: 0 points</p>\n        ","response":null,"trial_type":"html-keyboard-response","trial_index":102,"plugin_version":"2.1.0","time_elapsed":256899},{"rt":null,"stimulus":"<div class=\"fixation\" style=\"font-size: 60px;\">+</div>","response":null,"trial_type":"html-keyboard-response","trial_index":103,"plugin_version":"2.1.0","time_elapsed":257911},{"target_group":"black","condition_label":"B_H_vs_W_L_rep21","target_direction":9,"distractor_direction":118,"session_rotation":268,"rt":-1,"response":"","correct":false,"choices":"ALL_KEYS","correct_choice":["a"],"trial_duration":2000,"flip_timestamps":[],"response_ends_trial":false,"number_of_apertures":200,"number_of_dots":[1,1,1,1,1,1,1,1,1,1,1,1,1,1,1,1,1,1,1,1,1,1,1,1,1,1,1,1,1,1,1,1,1,1,1,1,1,1,1,1,1,1,1,1,1,1,1,1,1,1,1,1,1,1,1,1,1,1,1,1,1,1,1,1,1,1,1,1,1,1,1,1,1,1,1,1,1,1,1,1,1,1,1,1,1,1,1,1,1,1,1,1,1,1,1,1,1,1,1,1,1,1,1,1,1,1,1,1,1,1,1,1,1,1,1,1,1,1,1,1,1,1,1,1,1,1,1,1,1,1,1,1,1,1,1,1,1,1,1,1,1,1,1,1,1,1,1,1,1,1,1,1,1,1,1,1,1,1,1,1,1,1,1,1,1,1,1,1,1,1,1,1,1,1,1,1,1,1,1,1,1,1,1,1,1,1,1,1,1,1,1,1,1,1,1,1,1,1,1,1],"number_of_sets":1,"coherent_direction":[118,9,118,9,9,118,118,118,9,9,118,9,118,9,118,118,118,9,118,118,118,9,118,118,9,118,118,118,118,118,9,9,118,9,118,9,9,118,9,9,118,118,118,9,118,118,9,9,118,118,9,9,118,118,118,118,118,9,9,9,9,9,118,118,118,9,118,118,118,118,118,9,9,118,9,9,118,118,118,9,118,118,9,9,9,9,118,118,118,9,9,118,118,118,118,118,118,9,118,118,9,118,118,9,9,118,118,9,9,9,9,118,9,9,9,9,9,9,118,9,9,9,118,9,9,118,9,9,9,118,9,118,118,9,9,118,9,118,9,118,118,118,118,118,118,118,118,9,9,118,9,118,9,118,9,9,9,9,118,118,9,9,9,118,9,118,9,9,118,9,118,9,9,9,9,9,9,118,118,118,9,118,9,9,9,9,118,118,9,118,9,9,9,9,118,118,9,9,9,118],"coherence":1,"opposite_coherence":0,"dot_radius":2,"dot_side_length":1,"dot_life":-1,"move_distance":1,"aperture_width":300,"aperture_height":300,"dot_color":["white","black","white","black","black","white","white","white","black","black","white","black","white","black","white","white","white","black","white","white","white","black","white","white","black","white","white","white","white","white","black","black","white","black","white","black","black","white","black","black","white","white","white","black","white","white","black","black","white","white","black","black","white","white","white","white","white","black","black","black","black","black","white","white","white","black","white","white","white","white","white","black","black","white","black","black","white","white","white","black","white","white","black","black","black","black","white","white","white","black","black","white","white","white","white","white","white","black","white","white","black","white","white","black","black","white","white","black","black","black","black","white","black","black","black","black","black","black","white","black","black","black","white","black","black","white","black","black","black","white","black","white","white","black","black","white","black","white","black","white","white","white","white","white","white","white","white","black","black","white","black","white","black","white","black","black","black","black","white","white","black","black","black","white","black","white","black","black","white","black","white","black","black","black","black","black","black","white","white","white","black","white","black","black","black","black","white","white","black","white","black","black","black","black","white","white","black","black","black","white"],"dot_shape":"circle","background_color":"#AAA","RDK_type":3,"aperture_type":2,"reinsert_type":2,"frame_rate":13.25,"frame_rate_array":[1,16,10,14,13,13,14,13,14,13,13,13,13,14,13,14,13,13,13,13,14,14,13,13,13,14,13,14,13,13,13,14,14,13,12,15,13,13,13,13,14,14,13,13,13,13,15,12,14,14,12,13,14,14,13,13,13,13,14,14,13,13,13,13,14,14,13,13,13,13,13,15,12,14,14,13,13,14,13,13,13,14,13,13,13,14,14,13,13,14,13,13,13,14,13,14,13,13,14,13,13,13,14,13,14,13,13,13,14,13,14,13,13,14,13,14,13,13,13,13,14,13,13,13,14,15,12,13,13,13,14,14,13,13,14,13,14,13,13,13,14,12,15,13,13,13,14,13,14,13,13,13],"number_of_frames":152,"aperture