[{"rt":133743,"stimulus":"Welcome to the experiment. Press any key to begin.","response":"f","trial_type":"html-keyboard-response","trial_index":0,"plugin_version":"2.1.0","time_elapsed":133750},{"rt":81898,"stimulus":"\n        <div class=\"instructions-container\">\n          <h2>Instructions</h2>\n\n          <p>\n          In this experiment, you will see <strong>two Random Dot Kinematograms (RDKs)</strong> displayed simultaneously.\n          </p>\n\n          <p>\n          An RDK is a visual stimulus consisting of many small dots that move coherently in a single direction. \n          In this experiment, the dots will be either <strong>white</strong> or <strong>black</strong> \n          (see the short demo below for an example of an RDK stimulus).\n          </p>\n\n          <p>\n          On each trial, the two RDKs will move in different directions. \n          Your task is to decide <strong>which RDK appears to contain more dots</strong>.\n          </p>\n\n          <p>\n          The RDK that you judge to have more dots is called the <strong>target RDK</strong>. \n          For example, if the white RDK appears to have more dots than the black RDK, \n          you should report the motion direction of the white RDK.\n          </p>\n\n          <p>\n          After viewing the RDKs, you will rotate a bar to indicate the perceived direction of the target RDK \n          using the <strong>left</strong> and <strong>right arrow keys</strong>. \n          Press <strong>Enter</strong> when you are satisfied with your response.\n          When the bar is held down, the rotation speed increases.\n          </p>\n\n          <p>\n          You will receive points based on the <strong>accuracy of your response</strong>, \n          and your final <strong>bonus reward</strong> may depend on your overall performance. \n          Please try to respond as accurately as possible.\n          </p>\n\n          <p>\n          You will first complete <strong>16 practice trials</strong>. \n          Press the <strong>Enter</strong> key to start the practice phase.\n          </p>\n\n          <canvas id=\"instruction-demo-rdk\" width=\"200\" height=\"200\"style=\"display:block;margin:12px auto; border-radius: 50%;\"></canvas>\n        </div>\n      ","response":"Enter","trial_type":"html-keyboard-response","trial_index":1,"plugin_version":"2.1.0","time_elapsed":215664},{"rt":null,"stimulus":"<div class=\"fixation\" style=\"font-size: 60px;\">+</div>","response":null,"trial_type":"html-keyboard-response","trial_index":2,"plugin_version":"2.1.0","time_elapsed":216667},{"target_group":"white","target_index":0,"condition_label":"practice","rt":-1,"response":"","correct":false,"choices":"ALL_KEYS","correct_choice":["a"],"trial_duration":2000,"flip_timestamps":[],"response_ends_trial":false,"number_of_apertures":2,"number_of_dots":[100,70],"number_of_sets":1,"coherent_direction":[73,172],"coherence":1,"opposite_coherence":0,"dot_radius":2,"dot_side_length":1,"dot_life":-1,"move_distance":1,"aperture_width":300,"aperture_height":300,"dot_color":["white","black"],"dot_shape":"circle","background_color":"#AAA","RDK_type":3,"aperture_type":2,"reinsert_type":2,"frame_rate":16.611570247933884,"frame_rate_array":[14,11,15,11,8,14,17,16,19,17,16,17,17,16,17,21,12,15,17,17,31,2,16,17,17,17,17,17,17,17,17,17,18,17,17,17,17,17,17,16,17,17,17,17,17,17,21,12,16,17,17,17,17,17,17,16,15,17,17,17,17,17,17,19,14,17,17,17,17,17,17,18,17,17,17,17,17,17,16,17,16,17,16,17,17,16,17,17,17,15,17,17,17,18,17,17,17,17,17,17,17,17,17,17,17,17,17,17,17,17,16,22,11,17,17,17,17,17,17,17,17],"number_of_frames":121,"aperture_center_x":683,"aperture_center_y":384,"fixation_cross":true,"fixation_cross_width":15,"fixation_cross_height":15,"fixation_cross_color":"#111","fixation_cross_thickness":1,"border":true,"border_thickness":2,"border_color":"transparent","canvas_width":1366,"canvas_height":768,"trial_type":"rdk","trial_index":3,"plugin_version":"2.0.0","time_elapsed":218679,"phase":"practice","target_direction":73,"distractor_direction":172},{"rt":9751,"stimulus":"\n        <div class=\"response-container\">\n          <div class=\"response-instruction\">\n            <p>rotate the bar by using the left and right arrow keys.</p>\n            <p>when you are determined, press the Enter key.</p>\n          </div>\n          <div class=\"response-circle\">\n            <div class=\"response-fixation\"></div>\n            <div id=\"bar\" class=\"rotating-bar\"></div>\n          </div>\n        </div>\n      ","response":"Enter","trial_type":"html-keyboard-response","trial_index":4,"plugin_version":"2.1.0","time_elapsed":228432,"random_initial_angle":195,"response_angle_css":82,"response_angle_rdk":8,"angular_error_target":-65,"angular_error_distractor":-164,"target_direction":73,"target_group":"white","reward_points":0},{"rt":null,"stimulus":"\n          <p style=\"color: #FF3333;\">Your reward: 0 points</p>\n        ","response":null,"trial_type":"html-keyboard-response","trial_index":5,"plugin_version":"2.1.0","time_elapsed":230440},{"rt":null,"stimulus":"<div class=\"fixation\" style=\"font-size: 60px;\">+</div>","response":null,"trial_type":"html-keyboard-response","trial_index":6,"plugin_version":"2.1.0","time_elapsed":231445},{"target_group":"black","target_index":1,"condition_label":"practice","rt":-1,"response":"","correct":false,"choices":"ALL_KEYS","correct_choice":["a"],"trial_duration":2000,"flip_timestamps":[],"response_ends_trial":false,"number_of_apertures":2,"number_of_dots":[53,100],"number_of_sets":1,"coherent_direction":[83,250],"coherence":1,"opposite_coherence":0,"dot_radius":2,"dot_side_length":1,"dot_life":-1,"move_distance":1,"aperture_width":300,"aperture_height":300,"dot_color":["white","black"],"dot_shape":"circle","background_color":"#AAA","RDK_type":3,"aperture_type":2,"reinsert_type":2,"frame_rate":16.710743801652892,"frame_rate_array":[14,5,14,18,17,17,16,17,18,16,17,17,17,17,16,17,17,17,17,17,17,16,17,17,17,17,16,17,17,17,19,15,17,17,17,17,17,17,16,17,17,16,17,17,17,17,17,17,17,17,17,17,17,16,17,17,17,16,17,17,16,17,17,17,17,18,16,17,19,14,17,16,17,17,17,17,17,17,17,17,17,16,17,17,17,17,17,17,17,17,17,17,16,17,16,17,16,17,17,17,17,17,16,17,17,18,16,17,17,17,16,17,17,17,17,16,17,17,17,17,17],"number_of_frames":121,"aperture_center_x":683,"aperture_center_y":384,"fixation_cross":true,"fixation_cross_width":15,"fixation_cross_height":15,"fixation_cross_color":"#111","fixation_cross_thickness":1,"border":true,"border_thickness":2,"border_color":"transparent","canvas_width":1366,"canvas_height":768,"trial_type":"rdk","trial_index":7,"plugin_version":"2.0.0","time_elapsed":233454,"phase":"practice","target_direction":250,"distractor_direction":83},{"rt":3631,"stimulus":"\n        <div class=\"response-container\">\n          <div class=\"response-instruction\">\n            <p>rotate the bar by using the left and right arrow keys.</p>\n            <p>when you are determined, press the Enter key.</p>\n          </div>\n          <div class=\"response-circle\">\n            <div class=\"response-fixation\"></div>\n            <div id=\"bar\" class=\"rotating-bar\"></div>\n          </div>\n        </div>\n      ","response":"Enter","trial_type":"html-keyboard-response","trial_index":8,"plugin_version":"2.1.0","time_elapsed":237087,"random_initial_angle":333,"response_angle_css":237,"response_angle_rdk":213,"angular_error_target":-37,"angular_error_distractor":130,"target_direction":250,"target_group":"black","reward_points":2},{"rt":null,"stimulus":"\n          <p style=\"color: #FF3333;\">Your reward: 2 points</p>\n        ","response":null,"trial_type":"html-keyboard-response","trial_index":9,"plugin_version":"2.1.0","time_elapsed":239096},{"rt":null,"stimulus":"<div class=\"fixation\" style=\"font-size: 60px;\">+</div>","response":null,"trial_type":"html-keyboard-response","trial_index":10,"plugin_version":"2.1.0","time_elapsed":240111},{"target_group":"white","target_index":0,"condition_label":"practice","rt":-1,"response":"","correct":false,"choices":"ALL_KEYS","correct_choice":["a"],"trial_duration":2000,"flip_timestamps":[],"response_ends_trial":false,"number_of_apertures":2,"number_of_dots":[100,84],"number_of_sets":1,"coherent_direction":[58,226],"coherence":1,"opposite_coherence":0,"dot_radius":2,"dot_side_length":1,"dot_life":-1,"move_distance":1,"aperture_width":300,"aperture_height":300,"dot_color":["white","black"],"dot_shape":"circle","background_color":"#AAA","RDK_type":3,"aperture_type":2,"reinsert_type":2,"frame_rate":16.68595041322314,"frame_rate_array":[13,13,11,15,17,17,17,18,16,16,16,17,16,17,17,19,15,17,17,16,17,17,17,17,17,17,17,17,17,16,17,17,17,19,14,17,15,17,17,17,17,17,17,17,17,17,17,16,17,16,17,16,17,17,17,17,17,17,17,17,16,17,17,17,16,17,17,16,17,17,16,17,17,17,18,17,16,17,17,17,18,17,16,17,16,17,17,17,17,17,17,16,18,19,14,16,17,16,17,17,17,18,18,13,17,17,17,17,18,17,17,17,17,17,16,17,16,17,17,17,17],"number_of_frames":121,"aperture_center_x":683,"aperture_center_y":384,"fixation_cross":true,"fixation_cross_width":15,"fixation_cross_height":15,"fixation_cross_color":"#111","fixation_cross_thickness":1,"border":true,"border_thickness":2,"border_color":"transparent","canvas_width":1366,"canvas_height":768,"trial_type":"rdk","trial_index":11,"plugin_version":"2.0.0","time_elapsed":242123,"phase":"practice","target_direction":58,"distractor_direction":226},{"rt":2706,"stimulus":"\n        <div class=\"response-container\">\n          <div class=\"response-instruction\">\n            <p>rotate the bar by using the left and right arrow keys.</p>\n            <p>when you are determined, press the Enter key.</p>\n          </div>\n          <div class=\"response-circle\">\n            <div class=\"response-fixation\"></div>\n            <div id=\"bar\" class=\"rotating-bar\"></div>\n          </div>\n        </div>\n      ","response":"Enter","trial_type":"html-keyboard-response","trial_index":12,"plugin_version":"2.1.0","time_elapsed":244832,"random_initial_angle":251,"response_angle_css":217,"response_angle_rdk":233,"angular_error_target":175,"angular_error_distractor":7,"target_direction":58,"target_group":"white","reward_points":0},{"rt":null,"stimulus":"\n          <p style=\"color: #FF3333;\">Your reward: 0 points</p>\n        ","response":null,"trial_type":"html-keyboard-response","trial_index":13,"plugin_version":"2.1.0","time_elapsed":246840},{"rt":null,"stimulus":"<div class=\"fixation\" style=\"font-size: 60px;\">+</div>","response":null,"trial_type":"html-keyboard-response","trial_index":14,"plugin_version":"2.1.0","time_elapsed":247856},{"target_group":"black","target_index":1,"condition_label":"practice","rt":-1,"response":"","correct":false,"choices":"ALL_KEYS","correct_choice":["a"],"trial_duration":2000,"flip_timestamps":[],"response_ends_trial":false,"number_of_apertures":2,"number_of_dots":[88,100],"number_of_sets":1,"coherent_direction":[8,114],"coherence":1,"opposite_coherence":0,"dot_radius":2,"dot_side_length":1,"dot_life":-1,"move_distance":1,"aperture_width":300,"aperture_height":300,"dot_color":["white","black"],"dot_shape":"circle","background_color":"#AAA","RDK_type":3,"aperture_type":2,"reinsert_type":2,"frame_rate":16.766666666666666,"frame_rate_array":[11,16,17,17,17,17,17,17,16,17,17,16,17,17,17,16,17,17,17,17,17,17,16,17,17,17,17,17,17,16,17,16,17,17,17,17,17,17,17,17,17,17,16,17,17,17,17,17,17,17,17,17,17,17,17,17,16,17,17,17,16,17,16,17,17,17,17,17,16,17,17,17,17,16,17,17,16,17,17,17,16,16,17,17,17,17,17,17,17,17,17,17,17,16,19,14,16,17,17,17,17,17,17,17,16,17,17,16,17,17,17,17,17,17,17,16,17,17,17,17],"number_of_frames":120,"aperture_center_x":683,"aperture_center_y":384,"fixation_cross":true,"fixation_cross_width":15,"fixation_cross_height":15,"fixation_cross_color":"#111","fixation_cross_thickness":1,"border":true,"border_thickness":2,"border_color":"transparent","canvas_width":1366,"canvas_height":768,"trial_type":"rdk","trial_index":15,"plugin_version":"2.0.0","time_elapsed":249868,"phase":"practice","target_direction":114,"distractor_direction":8},{"rt":5107,"stimulus":"\n        <div class=\"response-container\">\n          <div class=\"response-instruction\">\n            <p>rotate the bar by using the left and right arrow keys.</p>\n            <p>when you are determined, press the Enter key.</p>\n          </div>\n          <div class=\"response-circle\">\n            <div class=\"response-fixation\"></div>\n            <div id=\"bar\" class=\"rotating-bar\"></div>\n          </div>\n        </div>\n      ","response":"Enter","trial_type":"html-keyboard-response","trial_index":16,"plugin_version":"2.1.0","time_elapsed":254978,"random_initial_angle":71,"response_angle_css":-34,"response_angle_rdk":124,"angular_error_target":10,"angular_error_distractor":116,"target_direction":114,"target_group":"black","reward_points":8},{"rt":null,"stimulus":"\n          <p style=\"color: #00FF00;\">Your reward: 8 points</p>\n        ","response":null,"trial_type":"html-keyboard-response","trial_index":17,"plugin_version":"2.1.0","time_elapsed":256983},{"rt":null,"stimulus":"<div class=\"fixation\" style=\"font-size: 60px;\">+</div>","response":null,"trial_type":"html-keyboard-response","trial_index":18,"plugin_version":"2.1.0","time_elapsed":257987},{"target_group":"white","target_index":0,"condition_label":"practice","rt":-1,"response":"","correct":false,"choices":"ALL_KEYS","correct_choice":["a"],"trial_duration":2000,"flip_timestamps":[],"response_ends_trial":false,"number_of_apertures":2,"number_of_dots":[100,59],"number_of_sets":1,"coherent_direction":[321,60],"coherence":1,"opposite_coherence":0,"dot_radius":2,"dot_side_length":1,"dot_life":-1,"move_distance":1,"aperture_width":300,"aperture_height":300,"dot_color":["white","black"],"dot_shape":"circle","background_color":"#AAA","RDK_type":3,"aperture_type":2,"reinsert_type":2,"frame_rate":16.791666666666668,"frame_rate_array":[10,17,17,17,17,17,17,17,17,17,16,17,17,17,16,18,17,17,17,17,17,17,17,17,17,17,17,17,17,16,17,16,17,17,17,17,17,17,17,17,17,17,16,17,17,16,17,17,17,18,17,17,17,17,17,17,17,17,16,17,17,16,17,17,17,17,17,16,17,17,17,17,17,17,17,16,17,17,16,17,17,17,17,17,17,17,16,17,17,17,16,17,16,17,17,16,16,17,17,17,17,17,17,17,17,17,17,16,16,17,17,17,16,17,17,17,16,17,17,17],"number_of_frames":120,"aperture_center_x":683,"aperture_center_y":384,"fixation_cross":true,"fixation_cross_width":15,"fixation_cross_height":15,"fixation_cross_color":"#111","fixation_cross_thickness":1,"border":true,"border_thickness":2,"border_color":"transparent","canvas_width":1366,"canvas_height":768,"trial_type":"rdk","trial_index":19,"plugin_version":"2.0.0","time_elapsed":259996,"phase":"practice","target_direction":321,"distractor_direction":60},{"rt":1122,"stimulus":"\n        <div class=\"response-container\">\n          <div class=\"response-instruction\">\n            <p>rotate the bar by using the left and right arrow keys.</p>\n            <p>when you are determined, press the Enter key.</p>\n          </div>\n          <div class=\"response-circle\">\n            <div class=\"response-fixation\"></div>\n            <div id=\"bar\" class=\"rotating-bar\"></div>\n          </div>\n        </div>\n      ","response":"Enter","trial_type":"html-keyboard-response","trial_index":20,"plugin_version":"2.1.0","time_elapsed":261120,"random_initial_angle":62,"response_angle_css":62,"response_angle_rdk":28,"angular_error_target":67,"angular_error_distractor":-32,"target_direction":321,"target_group":"white","reward_points":0},{"rt":null,"stimulus":"\n          <p style=\"color: #FF3333;\">Your reward: 0 points</p>\n        ","response":null,"trial_type":"html-keyboard-response","trial_index":21,"plugin_version":"2.1.0","time_elapsed":263131},{"rt":null,"stimulus":"<div class=\"fixation\" style=\"font-size: 60px;\">+</div>","response":null,"trial_type":"html-keyboard-response","trial_index":22,"plugin_version":"2.1.0","time_elapsed":264141},{"target_group":"black","target_index":1,"condition_label":"practice","rt":-1,"response":"","correct":false,"choices":"ALL_KEYS","correct_choice":["a"],"trial_duration":2000,"flip_timestamps":[],"response_ends_trial":false,"number_of_apertures":2,"number_of_dots":[54,100],"number_of_sets":1,"coherent_direction":[183,326],"coherence":1,"opposite_coherence":0,"dot_radius":2,"dot_side_length":1,"dot_life":-1,"move_distance":1,"aperture_width":300,"aperture_height":300,"dot_color":["white","black"],"dot_shape":"circle","background_color":"#AAA","RDK_type":3,"aperture_type":2,"reinsert_type":2,"frame_rate":16.775,"frame_rate_array":[14,10,16,15,17,17,17,17,17,17,17,18,16,16,17,17,16,17,17,17,17,17,17,17,17,17,17,16,16,17,17,17,17,17,17,16,17,17,17,17,17,17,17,17,17,17,17,17,16,17,17,17,17,17,17,17,17,17,17,17,17,17,17,17,17,17,17,17,17,17,17,17,17,17,17,17,17,17,17,17,16,17,17,17,17,16,17,16,17,16,17,17,17,17,17,17,17,16,17,17,17,16,16,17,17,17,17,17,17,17,17,16,17,17,17,17,17,17,17,17],"number_of_frames":120,"aperture_center_x":683,"aperture_center_y":384,"fixation_cross":true,"fixation_cross_width":15,"fixation_cross_height":15,"fixation_cross_color":"#111","fixation_cross_thickness":1,"border":true,"border_thickness":2,"border_color":"transparent","canvas_width":1366,"canvas_height":768,"trial_type":"rdk","trial_index":23,"plugin_version":"2.0.0","time_elapsed":266152,"phase":"practice","target_direction":326,"distractor_direction":183},{"rt":3478,"stimulus":"\n        <div class=\"response-container\">\n          <div class=\"response-instruction\">\n            <p>rotate the bar by using the left and right arrow keys.</p>\n            <p>when you are determined, press the Enter key.</p>\n          </div>\n          <div class=\"response-circle\">\n            <div class=\"response-fixation\"></div>\n            <div id=\"bar\" class=\"rotating-bar\"></div>\n          </div>\n        </div>\n      ","response":"Enter","trial_type":"html-keyboard-response","trial_index":24,"plugin_version":"2.1.0","time_elapsed":269632,"random_initial_angle":66,"response_angle_css":146,"response_angle_rdk":304,"angular_error_target":-22,"angular_error_distractor":121,"target_direction":326,"target_group":"black","reward_points":5},{"rt":null,"stimulus":"\n          <p style=\"color: #00FF00;\">Your reward: 5 points</p>\n        ","response":null,"trial_type":"html-keyboard-response","trial_index":25,"plugin_version":"2.1.0","time_elapsed":271646},{"rt":null,"stimulus":"<div class=\"fixation\" style=\"font-size: 60px;\">+</div>","response":null,"trial_type":"html-keyboard-response","trial_index":26,"plugin_version":"2.1.0","time_elapsed":272652},{"target_group":"white","target_index":0,"condition_label":"practice","rt":859,"response":"ArrowRight","correct":false,"choices":"ALL_KEYS","correct_choice":["a"],"trial_duration":2000,"flip_timestamps":[],"response_ends_trial":false,"number_of_apertures":2,"number_of_dots":[100,66],"number_of_sets":1,"coherent_direction":[234,12],"coherence":1,"opposite_coherence":0,"dot_radius":2,"dot_side_length":1,"dot_life":-1,"move_distance":1,"aperture_width":300,"aperture_height":300,"dot_color":["white","black"],"dot_shape":"circle","background_color":"#AAA","RDK_type":3,"aperture_type":2,"reinsert_type":2,"frame_rate":16.8,"frame_rate_array":[12,16,17,17,17,16,17,17,17,17,17,17,16,16,17,17,17,16,17,17,16,17,17,17,17,17,17,17,17,17,17,17,17,17,17,17,17,17,17,17,16,17,17,17,17,17,17,17,17,16,17,16,17,17,16,17,17,17,17,17,17,17,17,17,17,17,16,17,17,17,17,17,17,17,17,17,17,17,16,17,16,17,16,17,17,17,16,17,17,17,17,17,17,17,16,17,17,17,17,17,17,17,17,17,17,17,17,16,17,17,16,17,17,17,17,18,16,17,16,17],"number_of_frames":120,"aperture_center_x":683,"aperture_center_y":384,"fixation_cross":true,"fixation_cross_width":15,"fixation_cross_height":15,"fixation_cross_color":"#111","fixation_cross_thickness":1,"border":true,"border_thickness":2,"border_color":"transparent","canvas_width":1366,"canvas_height":768,"trial_type":"rdk","trial_index":27,"plugin_version":"2.0.0","time_elapsed":274665,"phase":"practice","target_direction":234,"distractor_direction":12},{"rt":4507,"stimulus":"\n        <div class=\"response-container\">\n          <div class=\"response-instruction\">\n            <p>rotate the bar by using the left and right arrow keys.</p>\n            <p>when you are determined, press the Enter key.</p>\n          </div>\n          <div class=\"response-circle\">\n            <div class=\"response-fixation\"></div>\n            <div id=\"bar\" class=\"rotating-bar\"></div>\n          </div>\n        </div>\n      ","response":"Enter","trial_type":"html-keyboard-response","trial_index":28,"plugin_version":"2.1.0","time_elapsed":279173,"random_initial_angle":95,"response_angle_css":-128,"response_angle_rdk":218,"angular_error_target":-16,"angular_error_distractor":-154,"target_direction":234,"target_group":"white","reward_points":6},{"rt":null,"stimulus":"\n          <p style=\"color: #00FF00;\">Your reward: 6 points</p>\n        ","response":null,"trial_type":"html-keyboard-response","trial_index":29,"plugin_version":"2.1.0","time_elapsed":281180},{"rt":null,"stimulus":"<div class=\"fixation\" style=\"font-size: 60px;\">+</div>","response":null,"trial_type":"html-keyboard-response","trial_index":30,"plugin_version":"2.1.0","time_elapsed":282183},{"target_group":"black","target_index":1,"condition_label":"practice","rt":-1,"response":"","correct":false,"choices":"ALL_KEYS","correct_choice":["a"],"trial_duration":2000,"flip_timestamps":[],"response_ends_trial":false,"number_of_apertures":2,"number_of_dots":[76,100],"number_of_sets":1,"coherent_direction":[222,111],"coherence":1,"opposite_coherence":0,"dot_radius":2,"dot_side_length":1,"dot_life":-1,"move_distance":1,"aperture_width":300,"aperture_height":300,"dot_color":["white","black"],"dot_shape":"circle","background_color":"#AAA","RDK_type":3,"aperture_type":2,"reinsert_type":2,"frame_rate":16.775,"frame_rate_array":[14,10,16,17,17,16,17,17,17,18,17,17,17,17,17,16,17,16,16,17,16,17,17,17,17,17,17,16,17,17,17,17,17,17,17,16,17,17,17,17,17,17,17,17,18,15,17,17,18,15,17,17,17,17,17,17,18,16,17,17,17,17,17,17,18,16,16,17,17,16,17,17,17,16,17,17,17,18,16,17,17,17,17,17,17,18,16,17,16,17,17,17,17,17,18,16,17,17,17,17,17,17,17,17,16,17,17,16,18,15,17,17,17,17,17,17,17,18,16,16],"number_of_frames":120,"aperture_center_x":683,"aperture_center_y":384,"fixation_cross":true,"fixation_cross_width":15,"fixation_cross_height":15,"fixation_cross_color":"#111","fixation_cross_thickness":1,"border":true,"border_thickness":2,"border_color":"transparent","canvas_width":1366,"canvas_height":768,"trial_type":"rdk","trial_index":31,"plugin_version":"2.0.0","time_elapsed":284215,"phase":"practice","target_direction":111,"distractor_direction":222},{"rt":3381,"stimulus":"\n        <div class=\"response-container\">\n          <div class=\"response-instruction\">\n            <p>rotate the bar by using the left and right arrow keys.</p>\n            <p>when you are determined, press the Enter key.</p>\n          </div>\n          <div class=\"response-circle\">\n            <div class=\"response-fixation\"></div>\n            <div id=\"bar\" class=\"rotating-bar\"></div>\n          </div>\n        </div>\n      ","response":"Enter","trial_type":"html-keyboard-response","trial_index":32,"plugin_version":"2.1.0","time_elapsed":287597,"random_initial_angle":16,"response_angle_css":-31,"response_angle_rdk":121,"angular_error_target":10,"angular_error_distractor":-101,"target_direction":111,"target_group":"black","reward_points":8},{"rt":null,"stimulus":"\n          <p style=\"color: #00FF00;\">Your reward: 8 points</p>\n        ","response":null,"trial_type":"html-keyboard-response","trial_index":33,"plugin_version":"2.1.0","time_elapsed":289600},{"rt":null,"stimulus":"<div class=\"fixation\" style=\"font-size: 60px;\">+</div>","response":null,"trial_type":"html-keyboard-response","trial_index":34,"plugin_version":"2.1.0","time_elapsed":290616},{"target_group":"black","target_index":1,"condition_label":"practice","rt":-1,"response":"","correct":false,"choices":"ALL_KEYS","correct_choice":["a"],"trial_duration":2000,"flip_timestamps":[],"response_ends_trial":false,"number_of_apertures":2,"number_of_dots":[99,100],"number_of_sets":1,"coherent_direction":[256,3],"coherence":1,"opposite_coherence":0,"dot_radius":2,"dot_side_length":1,"dot_life":-1,"move_distance":1,"aperture_width":300,"aperture_height":300,"dot_color":["white","black"],"dot_shape":"circle","background_color":"#AAA","RDK_type":3,"aperture_type":2,"reinsert_type":2,"frame_rate":16.716666666666665,"frame_rate_array":[20,11,19,14,17,16,17,17,17,16,17,17,16,16,18,15,17,18,16,17,17,16,18,15,16,21,12,17,17,17,17,17,18,16,17,17,17,17,17,16,17,16,17,16,17,17,17,16,17,17,18,17,17,17,17,17,17,16,17,16,17,17,17,19,15,16,17,17,17,16,17,16,17,16,17,16,17,17,16,16,18,18,15,17,17,22,11,17,19,14,17,19,15,16,17,17,17,17,17,16,18,17,16,15,19,15,17,16,16,17,16,17,17,18,17,17,16,17,17,17],"number_of_frames":120,"aperture_center_x":683,"aperture_center_y":384,"fixation_cross":true,"fixation_cross_width":15,"fixation_cross_height":15,"fixation_cross_color":"#111","fixation_cross_thickness":1,"border":true,"border_thickness":2,"border_color":"transparent","canvas_width":1366,"canvas_height":768,"trial_type":"rdk","trial_index":35,"plugin_version":"2.0.0","time_elapsed":292627,"phase":"practice","target_direction":3,"distractor_direction":256},{"rt":7124,"stimulus":"\n        <div class=\"response-container\">\n          <div class=\"response-instruction\">\n            <p>rotate the bar by using the left and right arrow keys.</p>\n            <p>when you are determined, press the Enter key.</p>\n          </div>\n          <div class=\"response-circle\">\n            <div class=\"response-fixation\"></div>\n            <div id=\"bar\" class=\"rotating-bar\"></div>\n          </div>\n        </div>\n      ","response":"Enter","trial_type":"html-keyboard-response","trial_index":36,"plugin_version":"2.1.0","time_elapsed":299752,"random_initial_angle":50,"response_angle_css":226,"response_angle_rdk":224,"angular_error_target":-139,"angular_error_distractor":-32,"target_direction":3,"target_group":"black","reward_points":0},{"rt":null,"stimulus":"\n          <p style=\"color: #FF3333;\">Your reward: 0 points</p>\n        ","response":null,"trial_type":"html-keyboard-response","trial_index":37,"plugin_version":"2.1.0","time_elapsed":301769},{"rt":null,"stimulus":"<div class=\"fixation\" style=\"font-size: 60px;\">+</div>","response":null,"trial_type":"html-keyboard-response","trial_index":38,"plugin_version":"2.1.0","time_elapsed":302781},{"target_group":"black","target_index":1,"condition_label":"practice","rt":-1,"response":"","correct":false,"choices":"ALL_KEYS","correct_choice":["a"],"trial_duration":2000,"flip_timestamps":[],"response_ends_trial":false,"number_of_apertures":2,"number_of_dots":[58,100],"number_of_sets":1,"coherent_direction":[264,109],"coherence":1,"opposite_coherence":0,"dot_radius":2,"dot_side_length":1,"dot_life":-1,"move_distance":1,"aperture_width":300,"aperture_height":300,"dot_color":["white","black"],"dot_shape":"circle","background_color":"#AAA","RDK_type":3,"aperture_type":2,"reinsert_type":2,"frame_rate":16.8,"frame_rate_array":[24,9,18,16,17,17,17,17,17,16,16,17,17,17,16,17,17,17,17,17,16,17,17,17,21,11,17,17,17,15,17,17,17,17,17,18,18,16,16,17,17,17,18,16,17,17,17,17,17,17,16,17,17,17,17,17,17,17,17,18,18,12,17,17,17,18,17,18,15,16,17,17,15,17,17,17,17,19,15,15,17,17,17,17,20,13,17,18,17,16,17,21,12,17,16,17,17,17,17,17,17,17,17,17,16,17,18,15,17,17,17,17,17,17,17,17,16,17,17,17],"number_of_frames":120,"aperture_center_x":683,"aperture_center_y":384,"fixation_cross":true,"fixation_cross_width":15,"fixation_cross_height":15,"fixation_cross_color":"#111","fixation_cross_thickness":1,"border":true,"border_thickness":2,"border_color":"transparent","canvas_width":1366,"canvas_height":768,"trial_type":"rdk","trial_index":39,"plugin_version":"2.0.0","time_elapsed":304786,"phase":"practice","target_direction":109,"distractor_direction":264},{"rt":1282,"stimulus":"\n        <div class=\"response-container\">\n          <div class=\"response-instruction\">\n            <p>rotate the bar by using the left and right arrow keys.</p>\n            <p>when you are determined, press the Enter key.</p>\n          </div>\n          <div class=\"response-circle\">\n            <div class=\"response-fixation\"></div>\n            <div id=\"bar\" class=\"rotating-bar\"></div>\n          </div>\n        </div>\n      ","response":"Enter","trial_type":"html-keyboard-response","trial_index":40,"plugin_version":"2.1.0","time_elapsed":306069,"random_initial_angle":330,"response_angle_css":330,"response_angle_rdk":120,"angular_error_target":11,"angular_error_distractor":-144,"target_direction":109,"target_group":"black","reward_points":7},{"rt":null,"stimulus":"\n          <p style=\"color: #00FF00;\">Your reward: 7 points</p>\n        ","response":null,"trial_type":"html-keyboard-response","trial_index":41,"plugin_version":"2.1.0","time_elapsed":308076},{"rt":null,"stimulus":"<div class=\"fixation\" style=\"font-size: 60px;\">+</div>","response":null,"trial_type":"html-keyboard-response","trial_index":42,"plugin_version":"2.1.0","time_elapsed":309088},{"target_group":"white","target_index":0,"condition_label":"practice","rt":-1,"response":"","correct":false,"choices":"ALL_KEYS","correct_choice":["a"],"trial_duration":2000,"flip_timestamps":[],"response_ends_trial":false,"number_of_apertures":2,"number_of_dots":[100,97],"number_of_sets":1,"coherent_direction":[41,248],"coherence":1,"opposite_coherence":0,"dot_radius":2,"dot_side_length":1,"dot_life":-1,"move_distance":1,"aperture_width":300,"aperture_height":300,"dot_color":["white","black"],"dot_shape":"circle","background_color":"#AAA","RDK_type":3,"aperture_type":2,"reinsert_type":2,"frame_rate":16.75,"frame_rate_array":[10,15,16,17,17,17,17,16,17,17,16,16,17,17,17,17,17,17,17,17,17,16,17,17,17,17,17,17,16,17,18,16,17,17,17,17,17,17,17,17,16,17,17,16,17,17,17,17,17,17,17,17,16,17,17,17,17,17,17,17,17,17,16,17,17,17,17,17,17,16,17,16,17,17,16,17,17,16,17,17,17,17,17,16,17,17,16,17,17,17,17,16,17,17,17,17,17,17,17,17,17,17,16,17,17,17,17,17,17,16,17,17,17,17,17,17,17,16,17,16],"number_of_frames":120,"aperture_center_x":683,"aperture_center_y":384,"fixation_cross":true,"fixation_cross_width":15,"fixation_cross_height":15,"fixation_cross_color":"#111","fixation_cross_thickness":1,"border":true,"border_thickness":2,"border_color":"transparent","canvas_width":1366,"canvas_height":768,"trial_type":"rdk","trial_index":43,"plugin_version":"2.0.0","time_elapsed":311094,"phase":"practice","target_direction":41,"distractor_direction":248},{"rt":1641,"stimulus":"\n        <div class=\"response-container\">\n          <div class=\"response-instruction\">\n            <p>rotate the bar by using the left and right arrow keys.</p>\n            <p>when you are determined, press the Enter key.</p>\n          </div>\n          <div class=\"response-circle\">\n            <div class=\"response-fixation\"></div>\n            <div id=\"bar\" class=\"rotating-bar\"></div>\n          </div>\n        </div>\n      ","response":"Enter","trial_type":"html-keyboard-response","trial_index":44,"plugin_version":"2.1.0","time_elapsed":312736,"random_initial_angle":346,"response_angle_css":346,"response_angle_rdk":104,"angular_error_target":63,"angular_error_distractor":-144,"target_direction":41,"target_group":"white","reward_points":0},{"rt":null,"stimulus":"\n          <p style=\"color: #FF3333;\">Your reward: 0 points</p>\n        ","response":null,"trial_type":"html-keyboard-response","trial_index":45,"plugin_version":"2.1.0","time_elapsed":314746},{"rt":null,"stimulus":"<div class=\"fixation\" style=\"font-size: 60px;\">+</div>","response":null,"trial_type":"html-keyboard-response","trial_index":46,"plugin_version":"2.1.0","time_elapsed":315753},{"target_group":"black","target_index":1,"condition_label":"practice","rt":1952,"response":"ArrowRight","correct":false,"choices":"ALL_KEYS","correct_choice":["a"],"trial_duration":2000,"flip_timestamps":[],"response_ends_trial":false,"number_of_apertures":2,"number_of_dots":[86,100],"number_of_sets":1,"coherent_direction":[172,297],"coherence":1,"opposite_coherence":0,"dot_radius":2,"dot_side_length":1,"dot_life":-1,"move_distance":1,"aperture_width":300,"aperture_height":300,"dot_color":["white","black"],"dot_shape":"circle","background_color":"#AAA","RDK_type":3,"aperture_type":2,"reinsert_type":2,"frame_rate":16.733333333333334,"frame_rate_array":[12,12,17,17,17,17,17,17,17,17,17,16,17,17,16,17,17,17,16,17,17,17,17,16,16,17,16,17,17,16,17,17,17,17,17,16,17,17,17,17,17,17,17,16,17,17,16,17,17,17,17,17,17,16,17,17,17,17,16,17,17,17,17,16,17,17,16,17,17,16,17,16,17,17,17,17,17,17,17,17,17,17,17,17,16,17,17,17,17,17,17,16,17,16,17,17,17,17,17,17,16,17,16,17,17,17,17,17,17,17,17,17,16,17,17,17,17,17,17,17],"number_of_frames":120,"aperture_center_x":683,"aperture_center_y":384,"fixation_cross":true,"fixation_cross_width":15,"fixation_cross_height":15,"fixation_cross_color":"#111","fixation_cross_thickness":1,"border":true,"border_thickness":2,"border_color":"transparent","canvas_width":1366,"canvas_height":768,"trial_type":"rdk","trial_index":47,"plugin_version":"2.0.0","time_elapsed":317760,"phase":"practice","target_direction":297,"distractor_direction":172},{"rt":3666,"stimulus":"\n        <div class=\"response-container\">\n          <div class=\"response-instruction\">\n            <p>rotate the bar by using the left and right arrow keys.</p>\n            <p>when you are determined, press the Enter key.</p>\n          </div>\n          <div class=\"response-circle\">\n            <div class=\"response-fixation\"></div>\n            <div id=\"bar\" class=\"rotating-bar\"></div>\n          </div>\n        </div>\n      ","response":"Enter","trial_type":"html-keyboard-response","trial_index":48,"plugin_version":"2.1.0","time_elapsed":321427,"random_initial_angle":195,"response_angle_css":132,"response_angle_rdk":318,"angular_error_target":21,"angular_error_distractor":146,"target_direction":297,"target_group":"black","reward_points":5},{"rt":null,"stimulus":"\n          <p style=\"color: #00FF00;\">Your reward: 5 points</p>\n        ","response":null,"trial_type":"html-keyboard-response","trial_index":49,"plugin_version":"2.1.0","time_elapsed":323437},{"rt":null,"stimulus":"<div class=\"fixation\" style=\"font-size: 60px;\">+</div>","response":null,"trial_type":"html-keyboard-response","trial_index":50,"plugin_version":"2.1.0","time_elapsed":324453},{"target_group":"white","target_index":0,"condition_label":"practice","rt":-1,"response":"","correct":false,"choices":"ALL_KEYS","correct_choice":["a"],"trial_duration":2000,"flip_timestamps":[],"response_ends_trial":false,"number_of_apertures":2,"number_of_dots":[100,56],"number_of_sets":1,"coherent_direction":[335,65],"coherence":1,"opposite_coherence":0,"dot_radius":2,"dot_side_length":1,"dot_life":-1,"move_distance":1,"aperture_width":300,"aperture_height":300,"dot_color":["white","black"],"dot_shape":"circle","background_color":"#AAA","RDK_type":3,"aperture_type":2,"reinsert_type":2,"frame_rate":16.791666666666668,"frame_rate_array":[11,15,17,16,17,16,17,17,17,17,17,17,17,17,17,17,17,17,17,17,17,17,17,17,16,17,17,16,17,17,17,17,17,17,17,17,17,16,17,17,17,17,17,17,17,17,17,17,17,16,17,17,16,17,17,17,17,16,17,17,17,16,17,16,17,17,17,17,16,17,17,17,17,17,17,17,17,17,17,16,19,14,17,17,17,17,17,17,16,17,17,17,17,17,17,17,17,16,16,17,17,17,17,17,17,17,17,17,16,17,17,17,17,17,17,17,17,17,17,17],"number_of_frames":120,"aperture_center_x":683,"aperture_center_y":384,"fixation_cross":true,"fixation_cross_width":15,"fixation_cross_height":15,"fixation_cross_color":"#111","fixation_cross_thickness":1,"border":true,"border_thickness":2,"border_color":"transparent","canvas_width":1366,"canvas_height":768,"trial_type":"rdk","trial_index":51,"plugin_version":"2.0.0","time_elapsed":326465,"phase":"practice","target_direction":335,"distractor_direction":65},{"rt":3625,"stimulus":"\n        <div class=\"response-container\">\n          <div class=\"response-instruction\">\n            <p>rotate the bar by using the left and right arrow keys.</p>\n            <p>when you are determined, press the Enter key.</p>\n          </div>\n          <div class=\"response-circle\">\n            <div class=\"response-fixation\"></div>\n            <div id=\"bar\" class=\"rotating-bar\"></div>\n          </div>\n        </div>\n      ","response":"Enter","trial_type":"html-keyboard-response","trial_index":52,"plugin_version":"2.1.0","time_elapsed":330092,"random_initial_angle":23,"response_angle_css":118,"response_angle_rdk":332,"angular_error_target":-3,"angular_error_distractor":-93,"target_direction":335,"target_group":"white","reward_points":9},{"rt":null,"stimulus":"\n          <p style=\"color: #00FF00;\">Your reward: 9 points</p>\n        ","response":null,"trial_type":"html-keyboard-response","trial_index":53,"plugin_version":"2.1.0","time_elapsed":332101},{"rt":null,"stimulus":"<div class=\"fixation\" style=\"font-size: 60px;\">+</div>","response":null,"trial_type":"html-keyboard-response","trial_index":54,"plugin_version":"2.1.0","time_elapsed":333105},{"target_group":"black","target_index":1,"condition_label":"practice","rt":-1,"response":"","correct":false,"choices":"ALL_KEYS","correct_choice":["a"],"trial_duration":2000,"flip_timestamps":[],"response_ends_trial":false,"number_of_apertures":2,"number_of_dots":[71,100],"number_of_sets":1,"coherent_direction":[63,179],"coherence":1,"opposite_coherence":0,"dot_radius":2,"dot_side_length":1,"dot_life":-1,"move_distance":1,"aperture_width":300,"aperture_height":300,"dot_color":["white","black"],"dot_shape":"circle","background_color":"#AAA","RDK_type":3,"aperture_type":2,"reinsert_type":2,"frame_rate":16.683333333333334,"frame_rate_array":[24,1,13,16,17,17,18,16,17,17,17,17,17,16,16,17,17,16,17,16,16,20,13,17,16,17,17,17,17,17,17,17,17,16,17,17,17,17,17,17,18,17,17,17,17,16,17,20,13,18,18,15,16,16,17,18,17,17,17,17,17,16,16,17,17,17,19,14,17,15,17,16,17,18,17,17,16,17,20,13,16,20,13,17,17,17,17,18,16,17,19,15,17,16,17,17,17,17,17,17,16,17,17,15,17,18,15,17,17,17,17,17,17,17,17,17,16,17,18,17],"number_of_frames":120,"aperture_center_x":683,"aperture_center_y":384,"fixation_cross":true,"fixation_cross_width":15,"fixation_cross_height":15,"fixation_cross_color":"#111","fixation_cross_thickness":1,"border":true,"border_thickness":2,"border_color":"transparent","canvas_width":1366,"canvas_height":768,"trial_type":"rdk","trial_index":55,"plugin_version":"2.0.0","time_elapsed":335111,"phase":"practice","target_direction":179,"distractor_direction":63},{"rt":4637,"stimulus":"\n        <div class=\"response-container\">\n          <div class=\"response-instruction\">\n            <p>rotate the bar by using the left and right arrow keys.</p>\n            <p>when you are determined, press the Enter key.</p>\n          </div>\n          <div class=\"response-circle\">\n            <div class=\"response-fixation\"></div>\n            <div id=\"bar\" class=\"rotating-bar\"></div>\n          </div>\n        </div>\n      ","response":"Enter","trial_type":"html-keyboard-response","trial_index":56,"plugin_version":"2.1.0","time_elapsed":339750,"random_initial_angle":41,"response_angle_css":-88,"response_angle_rdk":178,"angular_error_target":-1,"angular_error_distractor":115,"target_direction":179,"target_group":"black","reward_points":9},{"rt":null,"stimulus":"\n          <p style=\"color: #00FF00;\">Your reward: 9 points</p>\n        ","response":null,"trial_type":"html-keyboard-response","trial_index":57,"plugin_version":"2.1.0","time_elapsed":341754},{"rt":null,"stimulus":"<div class=\"fixation\" style=\"font-size: 60px;\">+</div>","response":null,"trial_type":"html-keyboard-response","trial_index":58,"plugin_version":"2.1.0","time_elapsed":342765},{"target_group":"white","target_index":0,"condition_label":"practice","rt":-1,"response":"","correct":false,"choices":"ALL_KEYS","correct_choice":["a"],"trial_duration":2000,"flip_timestamps":[],"response_ends_trial":false,"number_of_apertures":2,"number_of_dots":[100,53],"number_of_sets":1,"coherent_direction":[256,68],"coherence":1,"opposite_coherence":0,"dot_radius":2,"dot_side_length":1,"dot_life":-1,"move_distance":1,"aperture_width":300,"aperture_height":300,"dot_color":["white","black"],"dot_shape":"circle","background_color":"#AAA","RDK_type":3,"aperture_type":2,"reinsert_type":2,"frame_rate":16.791666666666668,"frame_rate_array":[12,16,17,16,17,17,17,17,17,17,17,17,17,17,17,17,17,16,17,16,17,17,17,17,17,17,17,17,17,17,17,17,16,17,17,17,16,17,17,17,17,17,17,17,16,17,16,17,17,17,16,17,17,17,17,17,17,17,17,17,17,17,16,16,17,17,17,17,17,17,17,16,17,17,17,17,17,16,17,17,17,17,16,17,16,17,17,17,18,16,17,17,17,17,17,17,17,17,17,17,16,17,17,17,16,17,17,17,16,17,17,17,16,17,17,16,17,17,17,17],"number_of_frames":120,"aperture_center_x":683,"aperture_center_y":384,"fixation_cross":true,"fixation_cross_width":15,"fixation_cross_height":15,"fixation_cross_color":"#111","fixation_cross_thickness":1,"border":true,"border_thickness":2,"border_color":"transparent","canvas_width":1366,"canvas_height":768,"trial_type":"rdk","trial_index":59,"plugin_version":"2.0.0","time_elapsed":344778,"phase":"practice","target_direction":256,"distractor_direction":68},{"rt":5614,"stimulus":"\n        <div class=\"response-container\">\n          <div class=\"response-instruction\">\n            <p>rotate the bar by using the left and right arrow keys.</p>\n            <p>when you are determined, press the Enter key.</p>\n          </div>\n          <div class=\"response-circle\">\n            <div class=\"response-fixation\"></div>\n            <div id=\"bar\" class=\"rotating-bar\"></div>\n          </div>\n        </div>\n      ","response":"Enter","trial_type":"html-keyboard-response","trial_index":60,"plugin_version":"2.1.0","time_elapsed":350393,"random_initial_angle":24,"response_angle_css":201,"response_angle_rdk":249,"angular_error_target":-7,"angular_error_distractor":-179,"target_direction":256,"target_group":"white","reward_points":8},{"rt":null,"stimulus":"\n          <p style=\"color: #00FF00;\">Your reward: 8 points</p>\n        ","response":null,"trial_type":"html-keyboard-response","trial_index":61,"plugin_version":"2.1.0","time_elapsed":352409},{"rt":null,"stimulus":"<div class=\"fixation\" style=\"font-size: 60px;\">+</div>","response":null,"trial_type":"html-keyboard-response","trial_index":62,"plugin_version":"2.1.0","time_elapsed":353425},{"target_group":"white","target_index":0,"condition_label":"practice","rt":-1,"response":"","correct":false,"choices":"ALL_KEYS","correct_choice":["a"],"trial_duration":2000,"flip_timestamps":[],"response_ends_trial":false,"number_of_apertures":2,"number_of_dots":[100,72],"number_of_sets":1,"coherent_direction":[191,333],"coherence":1,"opposite_coherence":0,"dot_radius":2,"dot_side_length":1,"dot_life":-1,"move_distance":1,"aperture_width":300,"aperture_height":300,"dot_color":["white","black"],"dot_shape":"circle","background_color":"#AAA","RDK_type":3,"aperture_type":2,"reinsert_type":2,"frame_rate":16.65,"frame_rate_array":[6,13,17,17,17,17,17,17,21,12,18,16,16,17,16,17,16,17,17,17,17,16,17,17,17,16,17,17,18,16,17,17,15,17,17,17,17,19,15,17,16,17,17,16,17,16,17,17,16,16,17,19,15,16,17,17,17,16,17,17,18,16,16,17,16,17,16,17,17,17,17,17,17,18,17,16,17,17,17,15,17,17,17,17,17,17,19,15,17,17,17,16,17,17,17,16,17,17,16,15,17,17,16,17,18,17,17,17,16,18,15,17,17,17,17,17,17,17,17,17],"number_of_frames":120,"aperture_center_x":683,"aperture_center_y":384,"fixation_cross":true,"fixation_cross_width":15,"fixation_cross_height":15,"fixation_cross_color":"#111","fixation_cross_thickness":1,"border":true,"border_thickness":2,"border_color":"transparent","canvas_width":1366,"canvas_height":768,"trial_type":"rdk","trial_index":63,"plugin_version":"2.0.0","time_elapsed":355431,"phase":"practice","target_direction":191,"distractor_direction":333},{"rt":5880,"stimulus":"\n        <div class=\"response-container\">\n          <div class=\"response-instruction\">\n            <p>rotate the bar by using the left and right arrow keys.</p>\n            <p>when you are determined, press the Enter key.</p>\n          </div>\n          <div class=\"response-circle\">\n            <div class=\"response-fixation\"></div>\n            <div id=\"bar\" class=\"rotating-bar\"></div>\n          </div>\n        </div>\n      ","response":"Enter","trial_type":"html-keyboard-response","trial_index":64,"plugin_version":"2.1.0","time_elapsed":361313,"random_initial_angle":188,"response_angle_css":269,"response_angle_rdk":181,"angular_error_target":-10,"angular_error_distractor":-152,"target_direction":191,"target_group":"white","reward_points":8},{"rt":null,"stimulus":"\n          <p style=\"color: #00FF00;\">Your reward: 8 points</p>\n        ","response":null,"trial_type":"html-keyboard-response","trial_index":65,"plugin_version":"2.1.0","time_elapsed":363316},{"rt":3625,"stimulus":"\n        <div class=\"instructions-container\">\n          <h2>End of Practice</h2>\n          <p>You have completed the practice trials.</p>\n          <p>Press <strong>Enter</strong> key to begin the main experiment.</p>\n        </div>\n      ","response":"Enter","trial_type":"html-keyboard-response","trial_index":66,"plugin_version":"2.1.0","time_elapsed":366943},{"rt":null,"stimulus":"<div class=\"fixation\" style=\"font-size: 60px;\">+</div>","response":null,"trial_type":"html-keyboard-response","trial_index":67,"plugin_version":"2.1.0","time_elapsed":367958},{"phase":"learning-awareness","target_group":"black","condition_label":"B_H_vs_W_L_rep23","target_direction":154,"distractor_direction":259,"session_rotation":43,"rt":-1,"response":"","correct":false,"choices":"ALL_KEYS","correct_choice":["a"],"trial_duration":2000,"flip_timestamps":[],"response_ends_trial":false,"number_of_apertures":200,"number_of_dots":[1,1,1,1,1,1,1,1,1,1,1,1,1,1,1,1,1,1,1,1,1,1,1,1,1,1,1,1,1,1,1,1,1,1,1,1,1,1,1,1,1,1,1,1,1,1,1,1,1,1,1,1,1,1,1,1,1,1,1,1,1,1,1,1,1,1,1,1,1,1,1,1,1,1,1,1,1,1,1,1,1,1,1,1,1,1,1,1,1,1,1,1,1,1,1,1,1,1,1,1,1,1,1,1,1,1,1,1,1,1,1,1,1,1,1,1,1,1,1,1,1,1,1,1,1,1,1,1,1,1,1,1,1,1,1,1,1,1,1,1,1,1,1,1,1,1,1,1,1,1,1,1,1,1,1,1,1,1,1,1,1,1,1,1,1,1,1,1,1,1,1,1,1,1,1,1,1,1,1,1,1,1,1,1,1,1,1,1,1,1,1,1,1,1,1,1,1,1,1,1],"number_of_sets":1,"coherent_direction":[154,259,154,154,259,154,259,154,154,259,154,154,154,154,154,154,259,154,259,259,154,154,259,154,154,259,259,259,259,154,154,154,259,154,154,154,154,154,259,259,154,154,154,259,259,259,259,259,259,259,154,154,259,154,154,154,259,259,154,259,154,259,154,154,154,259,154,259,154,259,259,259,259,259,259,259,259,154,259,154,259,154,154,259,154,259,259,154,154,154,259,259,259,154,154,154,259,259,259,154,259,154,259,154,259,259,259,259,154,154,259,259,154,259,259,259,259,259,259,154,259,154,259,259,259,154,259,154,259,259,154,259,154,259,154,259,154,154,154,154,154,154,154,154,154,259,154,259,259,259,154,154,259,259,154,259,259,154,259,259,259,259,259,154,259,154,154,154,259,154,154,154,154,154,259,154,259,259,259,259,154,259,259,259,154,154,154,154,154,259,259,154,154,259,154,154,259,154,259,154],"coherence":1,"opposite_coherence":0,"dot_radius":2,"dot_side_length":1,"dot_life":-1,"move_distance":1,"aperture_width":300,"aperture_height":300,"dot_color":["black","white","black","black","white","black","white","black","black","white","black","black","black","black","black","black","white","black","white","white","black","black","white","black","black","white","white","white","white","black","black","black","white","black","black","black","black","black","white","white","black","black","black","white","white","white","white","white","white","white","black","black","white","black","black","black","white","white","black","white","black","white","black","black","black","white","black","white","black","white","white","white","white","white","white","white","white","black","white","black","white","black","black","white","black","white","white","black","black","black","white","white","white","black","black","black","white","white","white","black","white","black","white","black","white","white","white","white","black","black","white","white","black","white","white","white","white","white","white","black","white","black","white","white","white","black","white","black","white","white","black","white","black","white","black","white","black","black","black","black","black","black","black","black","black","white","black","white","white","white","black","black","white","white","black","white","white","black","white","white","white","white","white","black","white","black","black","black","white","black","black","black","black","black","white","black","white","white","white","white","black","white","white","white","black","black","black","black","black","white","white","black","black","white","black","black","white","black","white","black"],"dot_shape":"circle","background_color":"#AAA","RDK_type":3,"aperture_type":2,"reinsert_type":2,"frame_rate":16.677685950413224,"frame_rate_array":[8,9,13,16,17,17,17,16,17,17,17,19,17,17,17,14,17,17,17,17,16,17,17,17,17,17,17,16,17,17,17,17,17,17,17,17,17,16,17,16,17,17,17,17,17,17,17,17,17,17,16,17,17,17,17,17,17,17,17,17,17,17,17,17,17,18,18,17,17,13,17,18,16,16,17,17,16,17,17,17,16,17,17,17,17,17,17,17,17,17,17,17,17,19,17,17,17,17,17,17,17,25,7,14,17,17,17,17,16,17,17,17,17,17,17,17,17,17,16,18,16],"number_of_frames":121,"aperture_center_x":683,"aperture_center_y":384,"fixation_cross":true,"fixation_cross_width":15,"fixation_cross_height":15,"fixation_cross_color":"#111","fixation_cross_thickness":1,"border":true,"border_thickness":2,"border_color":"transparent","canvas_width":1366,"canvas_height":768,"trial_type":"rdk","trial_index":68,"plugin_version":"2.0.0","time_elapsed":369978},{"rt":1496,"stimulus":"\n        <div class=\"response-container\">\n          <div class=\"response-instruction\">\n            <p>rotate the bar by using the left and right arrow keys.</p>\n            <p>when you are determined, press the Enter key.</p>\n          </div>\n          <div class=\"response-circle\">\n            <div class=\"response-fixation\"></div>\n            <div id=\"bar\" class=\"rotating-bar\"></div>\n          </div>\n        </div>\n      ","response":"Enter","trial_type":"html-keyboard-response","trial_index":69,"plugin_version":"2.1.0","time_elapsed":371475,"random_initial_angle":280,"response_angle_css":280,"response_angle_rdk":170,"angular_error_target":16,"angular_error_distractor":-89,"target_direction":154,"target_group":"black","reward_points":6},{"rt":null,"stimulus":"\n          <p style=\"color: #00FF00;\">Your reward: 6 points</p>\n        ","response":null,"trial_type":"html-keyboard-response","trial_index":70,"plugin_version":"2.1.0","time_elapsed":373481},{"rt":null,"stimulus":"<div class=\"fixation\" style=\"font-size: 60px;\">+</div>","response":null,"trial_type":"html-keyboard-response","trial_index":71,"plugin_version":"2.1.0","time_elapsed":374499},{"phase":"learning-awareness","target_group":"black","condition_label":"B_H_vs_W_L_rep11","target_direction":148,"distractor_direction":244,"session_rotation":43,"rt":-1,"response":"","correct":false,"choices":"ALL_KEYS","correct_choice":["a"],"trial_duration":2000,"flip_timestamps":[],"response_ends_trial":false,"number_of_apertures":200,"number_of_dots":[1,1,1,1,1,1,1,1,1,1,1,1,1,1,1,1,1,1,1,1,1,1,1,1,1,1,1,1,1,1,1,1,1,1,1,1,1,1,1,1,1,1,1,1,1,1,1,1,1,1,1,1,1,1,1,1,1,1,1,1,1,1,1,1,1,1,1,1,1,1,1,1,1,1,1,1,1,1,1,1,1,1,1,1,1,1,1,1,1,1,1,1,1,1,1,1,1,1,1,1,1,1,1,1,1,1,1,1,1,1,1,1,1,1,1,1,1,1,1,1,1,1,1,1,1,1,1,1,1,1,1,1,1,1,1,1,1,1,1,1,1,1,1,1,1,1,1,1,1,1,1,1,1,1,1,1,1,1,1,1,1,1,1,1,1,1,1,1,1,1,1,1,1,1,1,1,1,1,1,1,1,1,1,1,1,1,1,1,1,1,1,1,1,1,1,1,1,1,1,1],"number_of_sets":1,"coherent_direction":[244,148,244,148,148,244,244,148,244,244,244,148,244,148,244,148,148,148,244,244,244,148,148,148,244,148,244,148,148,244,244,244,244,148,244,148,244,244,148,244,244,244,148,244,148,148,148,244,244,244,148,244,244,148,244,244,244,244,244,244,148,148,148,148,244,244,244,148,244,244,244,148,244,244,148,148,148,148,148,244,244,244,244,148,148,244,148,148,244,244,244,148,244,244,244,244,244,148,244,148,148,148,244,244,244,148,148,244,244,244,244,148,148,244,148,148,148,244,148,148,244,148,244,148,148,244,148,244,148,244,148,148,244,148,244,148,148,148,244,148,244,148,148,244,244,148,244,244,148,148,148,244,244,244,148,244,148,148,244,148,148,244,148,244,148,244,244,148,148,148,148,148,148,244,148,244,148,244,148,244,148,148,148,148,148,148,148,148,148,148,244,244,244,148,244,148,148,244,244,244],"coherence":1,"opposite_coherence":0,"dot_radius":2,"dot_side_length":1,"dot_life":-1,"move_distance":1,"aperture_width":300,"aperture_height":300,"dot_color":["white","black","white","black","black","white","white","black","white","white","white","black","white","black","white","black","black","black","white","white","white","black","black","black","white","black","white","black","black","white","white","white","white","black","white","black","white","white","black","white","white","white","black","white","black","black","black","white","white","white","black","white","white","black","white","white","white","white","white","white","black","black","black","black","white","white","white","black","white","white","white","black","white","white","black","black","black","black","black","white","white","white","white","black","black","white","black","black","white","white","white","black","white","white","white","white","white","black","white","black","black","black","white","white","white","black","black","white","white","white","white","black","black","white","black","black","black","white","black","black","white","black","white","black","black","white","black","white","black","white","black","black","white","black","white","black","black","black","white","black","white","black","black","white","white","black","white","white","black","black","black","white","white","white","black","white","black","black","white","black","black","white","black","white","black","white","white","black","black","black","black","black","black","white","black","white","black","white","black","white","black","black","black","black","black","black","black","black","black","black","white","white","white","black","white","black","black","white","white","white"],"dot_shape":"circle","background_color":"#AAA","RDK_type":3,"aperture_type":2,"reinsert_type":2,"frame_rate":16.691666666666666,"frame_rate_array":[18,5,13,17,17,17,17,17,17,17,17,17,23,11,17,16,17,16,17,17,17,16,17,17,17,17,17,17,16,17,17,16,17,17,17,17,17,17,17,18,16,16,17,17,17,17,17,17,16,17,17,17,17,17,17,16,16,17,17,17,16,17,17,16,17,17,16,17,17,16,17,17,22,11,17,17,16,17,18,15,18,16,17,17,17,17,17,17,17,16,17,16,17,17,17,17,16,17,16,17,17,17,16,17,17,17,17,17,17,18,15,17,17,17,17,17,19,15,17,17],"number_of_frames":120,"aperture_center_x":683,"aperture_center_y":384,"fixation_cross":true,"fixation_cross_width":15,"fixation_cross_height":15,"fixation_cross_color":"#111","fixation_cross_thickness":1,"border":true,"border_thickness":2,"border_color":"transparent","canvas_width":1366,"canvas_height":768,"trial_type":"rdk","trial_index":72,"plugin_version":"2.0.0","time_elapsed":376513},{"rt":4310,"stimulus":"\n        <div class=\"response-container\">\n          <div class=\"response-instruction\">\n            <p>rotate the bar by using the left and right arrow keys.</p>\n            <p>when you are determined, press the Enter key.</p>\n          </div>\n          <div class=\"response-circle\">\n            <div class=\"response-fixation\"></div>\n            <div id=\"bar\" class=\"rotating-bar\"></div>\n          </div>\n        </div>\n      ","response":"Enter","trial_type":"html-keyboard-response","trial_index":73,"plugin_version":"2.1.0","time_elapsed":380824,"random_initial_angle":289,"response_angle_css":302,"response_angle_rdk":148,"angular_error_target":0,"angular_error_distractor":-96,"target_direction":148,"target_group":"black","reward_points":10},{"rt":null,"stimulus":"\n          <p style=\"color: #00FF00;\">Your reward: 10 points</p>\n        ","response":null,"trial_type":"html-keyboard-response","trial_index":74,"plugin_version":"2.1.0","time_elapsed":382827},{"rt":null,"stimulus":"<div class=\"fixation\" style=\"font-size: 60px;\">+</div>","response":null,"trial_type":"html-keyboard-response","trial_index":75,"plugin_version":"2.1.0","time_elapsed":383843},{"phase":"learning-awareness","target_group":"white","condition_label":"W_H_vs_B_L_rep3","target_direction":84,"distractor_direction":340,"session_rotation":43,"rt":-1,"response":"","correct":false,"choices":"ALL_KEYS","correct_choice":["a"],"trial_duration":2000,"flip_timestamps":[],"response_ends_trial":false,"number_of_apertures":200,"number_of_dots":[1,1,1,1,1,1,1,1,1,1,1,1,1,1,1,1,1,1,1,1,1,1,1,1,1,1,1,1,1,1,1,1,1,1,1,1,1,1,1,1,1,1,1,1,1,1,1,1,1,1,1,1,1,1,1,1,1,1,1,1,1,1,1,1,1,1,1,1,1,1,1,1,1,1,1,1,1,1,1,1,1,1,1,1,1,1,1,1,1,1,1,1,1,1,1,1,1,1,1,1,1,1,1,1,1,1,1,1,1,1,1,1,1,1,1,1,1,1,1,1,1,1,1,1,1,1,1,1,1,1,1,1,1,1,1,1,1,1,1,1,1,1,1,1,1,1,1,1,1,1,1,1,1,1,1,1,1,1,1,1,1,1,1,1,1,1,1,1,1,1,1,1,1,1,1,1,1,1,1,1,1,1,1,1,1,1,1,1,1,1,1,1,1,1,1,1,1,1,1,1],"number_of_sets":1,"coherent_direction":[340,340,84,84,84,340,84,340,84,84,340,340,84,340,84,340,84,340,84,84,340,340,84,340,84,340,84,340,340,84,84,340,84,340,84,340,84,340,84,340,340,84,84,84,340,340,84,340,84,84,340,340,340,340,340,340,340,84,340,340,84,84,340,84,84,340,340,84,340,84,84,84,340,84,84,340,340,340,84,340,340,84,340,340,340,340,84,340,84,84,84,340,84,84,84,340,84,84,340,340,84,340,340,84,340,340,340,340,84,84,340,340,340,84,84,84,340,340,84,340,340,84,340,84,340,84,84,84,84,84,340,340,84,84,340,340,340,340,84,340,84,340,84,84,84,84,84,84,340,84,340,340,84,340,84,340,84,340,340,340,84,84,340,84,84,84,340,84,84,84,340,340,84,340,340,340,340,84,84,84,340,84,340,84,84,340,340,340,84,340,84,340,84,84,84,84,84,84,340,340],"coherence":1,"opposite_coherence":0,"dot_radius":2,"dot_side_length":1,"dot_life":-1,"move_distance":1,"aperture_width":300,"aperture_height":300,"dot_color":["black","black","white","white","white","black","white","black","white","white","black","black","white","black","white","black","white","black","white","white","black","black","white","black","white","black","white","black","black","white","white","black","white","black","white","black","white","black","white","black","black","white","white","white","black","black","white","black","white","white","black","black","black","black","black","black","black","white","black","black","white","white","black","white","white","black","black","white","black","white","white","white","black","white","white","black","black","black","white","black","black","white","black","black","black","black","white","black","white","white","white","black","white","white","white","black","white","white","black","black","white","black","black","white","black","black","black","black","white","white","black","black","black","white","white","white","black","black","white","black","black","white","black","white","black","white","white","white","white","white","black","black","white","white","black","black","black","black","white","black","white","black","white","white","white","white","white","white","black","white","black","black","white","black","white","black","white","black","black","black","white","white","black","white","white","white","black","white","white","white","black","black","white","black","black","black","black","white","white","white","black","white","black","white","white","black","black","black","white","black","white","black","white","white","white","white","white","white","black","black"],"dot_shape":"circle","background_color":"#AAA","RDK_type":3,"aperture_type":2,"reinsert_type":2,"frame_rate":16.891666666666666,"frame_rate_array":[16,16,17,17,16,17,16,17,17,17,16,17,17,17,17,17,17,17,17,17,17,17,17,17,17,17,16,17,17,16,17,17,17,17,17,17,17,17,17,17,17,17,17,17,17,17,19,14,17,17,17,17,16,17,17,17,17,17,16,17,17,17,17,17,17,17,17,17,17,17,17,17,17,18,15,17,17,17,17,17,17,17,17,17,17,17,17,17,17,16,17,17,17,17,17,17,17,17,17,17,17,17,17,17,17,17,17,17,17,17,17,17,17,17,17,17,16,17,17,17],"number_of_frames":120,"aperture_center_x":683,"aperture_center_y":384,"fixation_cross":true,"fixation_cross_width":15,"fixation_cross_height":15,"fixation_cross_color":"#111","fixation_cross_thickness":1,"border":true,"border_thickness":2,"border_color":"transparent","canvas_width":1366,"canvas_height":768,"trial_type":"rdk","trial_index":76,"plugin_version":"2.0.0","time_elapsed":385863},{"rt":3557,"stimulus":"\n        <div class=\"response-container\">\n          <div class=\"response-instruction\">\n            <p>rotate the bar by using the left and right arrow keys.</p>\n            <p>when you are determined, press the Enter key.</p>\n          </div>\n          <div class=\"response-circle\">\n            <div class=\"response-fixation\"></div>\n            <div id=\"bar\" class=\"rotating-bar\"></div>\n          </div>\n        </div>\n      ","response":"Enter","trial_type":"html-keyboard-response","trial_index":77,"plugin_version":"2.1.0","time_elapsed":389422,"random_initial_angle":57,"response_angle_css":-41,"response_angle_rdk":131,"angular_error_target":47,"angular_error_distractor":151,"target_direction":84,"target_group":"white","reward_points":0},{"rt":null,"stimulus":"\n          <p style=\"color: #FF3333;\">Your reward: 0 points</p>\n        ","response":null,"trial_type":"html-keyboard-response","trial_index":78,"plugin_version":"2.1.0","time_elapsed":391434},{"rt":null,"stimulus":"<div class=\"fixation\" style=\"font-size: 60px;\">+</div>","response":null,"trial_type":"html-keyboard-response","trial_index":79,"plugin_version":"2.1.0","time_elapsed":392437},{"phase":"learning-awareness","target_group":"black","condition_label":"B_H_vs_W_L_rep2","target_direction":161,"distractor_direction":261,"session_rotation":43,"rt":-1,"response":"","correct":false,"choices":"ALL_KEYS","correct_choice":["a"],"trial_duration":2000,"flip_timestamps":[],"response_ends_trial":false,"number_of_apertures":200,"number_of_dots":[1,1,1,1,1,1,1,1,1,1,1,1,1,1,1,1,1,1,1,1,1,1,1,1,1,1,1,1,1,1,1,1,1,1,1,1,1,1,1,1,1,1,1,1,1,1,1,1,1,1,1,1,1,1,1,1,1,1,1,1,1,1,1,1,1,1,1,1,1,1,1,1,1,1,1,1,1,1,1,1,1,1,1,1,1,1,1,1,1,1,1,1,1,1,1,1,1,1,1,1,1,1,1,1,1,1,1,1,1,1,1,1,1,1,1,1,1,1,1,1,1,1,1,1,1,1,1,1,1,1,1,1,1,1,1,1,1,1,1,1,1,1,1,1,1,1,1,1,1,1,1,1,1,1,1,1,1,1,1,1,1,1,1,1,1,1,1,1,1,1,1,1,1,1,1,1,1,1,1,1,1,1,1,1,1,1,1,1,1,1,1,1,1,1,1,1,1,1,1,1],"number_of_sets":1,"coherent_direction":[161,161,161,161,161,261,261,261,261,261,161,261,261,261,161,161,161,161,161,261,261,161,161,161,261,161,261,161,161,261,261,261,161,161,261,161,161,161,261,261,261,161,161,261,261,261,161,261,261,261,161,161,161,261,161,161,161,161,261,161,161,261,261,261,161,161,261,161,161,161,161,161,161,261,161,261,261,261,261,261,261,161,261,261,261,161,261,161,261,161,261,261,261,261,161,261,161,161,161,261,161,261,261,261,161,261,161,261,161,261,261,261,261,261,261,161,261,261,261,261,261,161,161,261,161,261,261,261,161,161,261,261,161,161,161,161,161,161,161,161,261,161,261,261,261,161,261,161,161,261,261,161,161,161,261,261,161,261,161,261,161,161,161,161,261,261,261,261,161,161,161,161,261,261,161,161,161,261,161,161,261,261,161,161,261,261,261,261,161,261,161,161,261,161,161,261,261,161,261,161],"coherence":1,"opposite_coherence":0,"dot_radius":2,"dot_side_length":1,"dot_life":-1,"move_distance":1,"aperture_width":300,"aperture_height":300,"dot_color":["black","black","black","black","black","white","white","white","white","white","black","white","white","white","black","black","black","black","black","white","white","black","black","black","white","black","white","black","black","white","white","white","black","black","white","black","black","black","white","white","white","black","black","white","white","white","black","white","white","white","black","black","black","white","black","black","black","black","white","black","black","white","white","white","black","black","white","black","black","black","black","black","black","white","black","white","white","white","white","white","white","black","white","white","white","black","white","black","white","black","white","white","white","white","black","white","black","black","black","white","black","white","white","white","black","white","black","white","black","white","white","white","white","white","white","black","white","white","white","white","white","black","black","white","black","white","white","white","black","black","white","white","black","black","black","black","black","black","black","black","white","black","white","white","white","black","white","black","black","white","white","black","black","black","white","white","black","white","black","white","black","black","black","black","white","white","white","white","black","black","black","black","white","white","black","black","black","white","black","black","white","white","black","black","white","white","white","white","black","white","black","black","white","black","black","white","white","black","white","black"],"dot_shape":"circle","background_color":"#AAA","RDK_type":3,"aperture_type":2,"reinsert_type":2,"frame_rate":16.768595041322314,"frame_rate_array":[11,7,15,14,17,17,17,17,17,17,17,17,17,17,17,17,17,17,17,17,17,17,16,17,17,17,17,17,17,17,17,17,17,17,17,17,17,17,17,17,17,17,17,17,17,17,17,17,17,17,17,17,17,17,17,17,17,17,17,17,17,18,16,17,17,17,17,17,17,16,17,17,17,17,17,17,17,17,17,17,17,17,17,17,17,17,17,16,17,17,17,16,17,17,17,17,17,17,17,20,13,17,17,17,17,17,17,17,17,17,17,16,17,17,17,17,18,15,17,17,17],"number_of_frames":121,"aperture_center_x":683,"aperture_center_y":384,"fixation_cross":true,"fixation_cross_width":15,"fixation_cross_height":15,"fixation_cross_color":"#111","fixation_cross_thickness":1,"border":true,"border_thickness":2,"border_color":"transparent","canvas_width":1366,"canvas_height":768,"trial_type":"rdk","trial_index":80,"plugin_version":"2.0.0","time_elapsed":394446},{"rt":4765,"stimulus":"\n        <div class=\"response-container\">\n          <div class=\"response-instruction\">\n            <p>rotate the bar by using the left and right arrow keys.</p>\n            <p>when you are determined, press the Enter key.</p>\n          </div>\n          <div class=\"response-circle\">\n            <div class=\"response-fixation\"></div>\n            <div id=\"bar\" class=\"rotating-bar\"></div>\n          </div>\n        </div>\n      ","response":"Enter","trial_type":"html-keyboard-response","trial_index":81,"plugin_version":"2.1.0","time_elapsed":399212,"random_initial_angle":143,"response_angle_css":-59,"response_angle_rdk":149,"angular_error_target":-12,"angular_error_distractor":-112,"target_direction":161,"target_group":"black","reward_points":7},{"rt":null,"stimulus":"\n          <p style=\"color: #00FF00;\">Your reward: 7 points</p>\n        ","response":null,"trial_type":"html-keyboard-response","trial_index":82,"plugin_version":"2.1.0","time_elapsed":401228},{"rt":null,"stimulus":"<div class=\"fixation\" style=\"font-size: 60px;\">+</div>","response":null,"trial_type":"html-keyboard-response","trial_index":83,"plugin_version":"2.1.0","time_elapsed":402242},{"phase":"learning-awareness","target_group":"white","condition_label":"W_H_vs_B_L_rep19","target_direction":71,"distractor_direction":325,"session_rotation":43,"rt":-1,"response":"","correct":false,"choices":"ALL_KEYS","correct_choice":["a"],"trial_duration":2000,"flip_timestamps":[],"response_ends_trial":false,"number_of_apertures":200,"number_of_dots":[1,1,1,1,1,1,1,1,1,1,1,1,1,1,1,1,1,1,1,1,1,1,1,1,1,1,1,1,1,1,1,1,1,1,1,1,1,1,1,1,1,1,1,1,1,1,1,1,1,1,1,1,1,1,1,1,1,1,1,1,1,1,1,1,1,1,1,1,1,1,1,1,1,1,1,1,1,1,1,1,1,1,1,1,1,1,1,1,1,1,1,1,1,1,1,1,1,1,1,1,1,1,1,1,1,1,1,1,1,1,1,1,1,1,1,1,1,1,1,1,1,1,1,1,1,1,1,1,1,1,1,1,1,1,1,1,1,1,1,1,1,1,1,1,1,1,1,1,1,1,1,1,1,1,1,1,1,1,1,1,1,1,1,1,1,1,1,1,1,1,1,1,1,1,1,1,1,1,1,1,1,1,1,1,1,1,1,1,1,1,1,1,1,1,1,1,1,1,1,1],"number_of_sets":1,"coherent_direction":[71,325,325,325,325,71,325,71,325,71,325,325,325,325,325,325,71,325,325,71,325,325,325,71,325,325,71,325,325,71,71,325,71,71,325,325,71,325,71,325,71,71,325,71,325,71,71,325,71,325,71,325,325,71,71,325,325,325,71,325,71,325,325,325,71,71,71,71,325,71,71,71,71,71,71,325,71,325,325,71,71,325,71,71,325,325,71,325,71,325,71,325,325,71,71,325,325,71,71,71,71,325,325,325,325,325,71,71,71,325,71,71,325,71,71,325,325,71,71,325,325,71,71,71,71,325,71,325,71,71,325,325,71,71,71,71,71,325,71,325,71,71,71,325,325,325,71,71,325,325,325,325,71,325,71,325,325,325,325,71,71,71,325,71,325,71,71,71,325,71,325,325,71,325,325,71,71,325,325,325,325,71,71,71,71,325,325,71,71,71,325,71,325,71,325,325,325,71,325,71],"coherence":1,"opposite_coherence":0,"dot_radius":2,"dot_side_length":1,"dot_life":-1,"move_distance":1,"aperture_width":300,"aperture_height":300,"dot_color":["white","black","black","black","black","white","black","white","black","white","black","black","black","black","black","black","white","black","black","white","black","black","black","white","black","black","white","black","black","white","white","black","white","white","black","black","white","black","white","black","white","white","black","white","black","white","white","black","white","black","white","black","black","white","white","black","black","black","white","black","white","black","black","black","white","white","white","white","black","white","white","white","white","white","white","black","white","black","black","white","white","black","white","white","black","black","white","black","white","black","white","black","black","white","white","black","black","white","white","white","white","black","black","black","black","black","white","white","white","black","white","white","black","white","white","black","black","white","white","black","black","white","white","white","white","black","white","black","white","white","black","black","white","white","white","white","white","black","white","black","white","white","white","black","black","black","white","white","black","black","black","black","white","black","white","black","black","black","black","white","white","white","black","white","black","white","white","white","black","white","black","black","white","black","black","white","white","black","black","black","black","white","white","white","white","black","black","white","white","white","black","white","black","white","black","black","black","white","black","white"],"dot_shape":"circle","background_color":"#AAA","RDK_type":3,"aperture_type":2,"reinsert_type":2,"frame_rate":16.775,"frame_rate_array":[16,16,16,17,17,17,17,17,17,17,16,16,19,15,17,17,16,17,17,17,16,17,17,17,16,17,17,17,17,17,17,16,17,17,17,17,17,17,16,17,16,21,13,16,17,17,17,17,17,16,16,17,17,17,19,15,17,17,17,16,17,17,19,15,17,17,16,17,17,16,17,17,17,16,17,17,17,16,17,17,17,17,17,17,16,17,17,17,17,17,16,17,17,17,17,17,17,17,17,17,16,16,18,16,16,17,17,17,16,17,17,17,17,17,16,17,17,17,17,16],"number_of_frames":120,"aperture_center_x":683,"aperture_center_y":384,"fixation_cross":true,"fixation_cross_width":15,"fixation_cross_height":15,"fixation_cross_color":"#111","fixation_cross_thickness":1,"border":true,"border_thickness":2,"border_color":"transparent","canvas_width":1366,"canvas_height":768,"trial_type":"rdk","trial_index":84,"plugin_version":"2.0.0","time_elapsed":404245},{"rt":5122,"stimulus":"\n        <div class=\"response-container\">\n          <div class=\"response-instruction\">\n            <p>rotate the bar by using the left and right arrow keys.</p>\n            <p>when you are determined, press the Enter key.</p>\n          </div>\n          <div class=\"response-circle\">\n            <div class=\"response-fixation\"></div>\n            <div id=\"bar\" class=\"rotating-bar\"></div>\n          </div>\n        </div>\n      ","response":"Enter","trial_type":"html-keyboard-response","trial_index":85,"plugin_version":"2.1.0","time_elapsed":409368,"random_initial_angle":87,"response_angle_css":-3,"response_angle_rdk":93,"angular_error_target":22,"angular_error_distractor":128,"target_direction":71,"target_group":"white","reward_points":5},{"rt":null,"stimulus":"\n          <p style=\"color: #00FF00;\">Your reward: 5 points</p>\n        ","response":null,"trial_type":"html-keyboard-response","trial_index":86,"plugin_version":"2.1.0","time_elapsed":411375},{"rt":null,"stimulus":"<div class=\"fixation\" style=\"font-size: 60px;\">+</div>","response":null,"trial_type":"html-keyboard-response","trial_index":87,"plugin_version":"2.1.0","time_elapsed":412391},{"phase":"learning-awareness","target_group":"black","condition_label":"B_H_vs_W_L_rep22","target_direction":153,"distractor_direction":257,"session_rotation":43,"rt":-1,"response":"","correct":false,"choices":"ALL_KEYS","correct_choice":["a"],"trial_duration":2000,"flip_timestamps":[],"response_ends_trial":false,"number_of_apertures":200,"number_of_dots":[1,1,1,1,1,1,1,1,1,1,1,1,1,1,1,1,1,1,1,1,1,1,1,1,1,1,1,1,1,1,1,1,1,1,1,1,1,1,1,1,1,1,1,1,1,1,1,1,1,1,1,1,1,1,1,1,1,1,1,1,1,1,1,1,1,1,1,1,1,1,1,1,1,1,1,1,1,1,1,1,1,1,1,1,1,1,1,1,1,1,1,1,1,1,1,1,1,1,1,1,1,1,1,1,1,1,1,1,1,1,1,1,1,1,1,1,1,1,1,1,1,1,1,1,1,1,1,1,1,1,1,1,1,1,1,1,1,1,1,1,1,1,1,1,1,1,1,1,1,1,1,1,1,1,1,1,1,1,1,1,1,1,1,1,1,1,1,1,1,1,1,1,1,1,1,1,1,1,1,1,1,1,1,1,1,1,1,1,1,1,1,1,1,1,1,1,1,1,1,1],"number_of_sets":1,"coherent_direction":[257,257,257,257,153,257,153,257,257,257,153,257,153,153,257,153,153,153,257,153,257,153,153,153,153,257,153,257,257,153,153,257,153,257,257,257,257,257,153,257,153,257,153,153,153,257,153,153,153,153,257,153,257,153,153,257,153,257,257,257,153,153,257,153,257,153,257,257,153,153,257,257,153,257,257,257,153,153,153,257,153,257,153,153,153,257,257,257,153,257,257,257,153,153,153,153,257,153,257,257,257,153,153,153,153,153,153,153,257,153,153,257,257,257,257,257,153,257,257,153,257,257,257,153,153,153,153,153,153,257,257,257,257,257,257,153,153,257,153,153,153,257,153,153,153,153,153,257,257,153,153,257,257,257,257,153,153,257,153,257,153,257,153,257,153,153,153,257,257,153,257,257,257,153,257,257,153,153,257,153,153,257,257,153,257,153,257,153,153,257,153,257,153,257,257,257,153,257,257,257],"coherence":1,"opposite_coherence":0,"dot_radius":2,"dot_side_length":1,"dot_life":-1,"move_distance":1,"aperture_width":300,"aperture_height":300,"dot_color":["white","white","white","white","black","white","black","white","white","white","black","white","black","black","white","black","black","black","white","black","white","black","black","black","black","white","black","white","white","black","black","white","black","white","white","white","white","white","black","white","black","white","black","black","black","white","black","black","black","black","white","black","white","black","black","white","black","white","white","white","black","black","white","black","white","black","white","white","black","black","white","white","black","white","white","white","black","black","black","white","black","white","black","black","black","white","white","white","black","white","white","white","black","black","black","black","white","black","white","white","white","black","black","black","black","black","black","black","white","black","black","white","white","white","white","white","black","white","white","black","white","white","white","black","black","black","black","black","black","white","white","white","white","white","white","black","black","white","black","black","black","white","black","black","black","black","black","white","white","black","black","white","white","white","white","black","black","white","black","white","black","white","black","white","black","black","black","white","white","black","white","white","white","black","white","white","black","black","white","black","black","white","white","black","white","black","white","black","black","white","black","white","black","white","white","white","black","white","white","white"],"dot_shape":"circle","background_color":"#AAA","RDK_type":3,"aperture_type":2,"reinsert_type":2,"frame_rate":16.68595041322314,"frame_rate_array":[4,14,14,17,17,17,18,18,15,17,17,17,17,17,17,17,18,16,17,17,17,17,17,17,17,16,17,17,17,17,17,17,16,19,15,16,17,17,17,17,17,17,16,17,17,17,17,16,17,17,17,19,15,17,17,16,17,17,17,17,17,17,17,17,17,17,16,16,17,17,17,17,17,16,17,17,17,17,17,17,16,17,17,17,17,16,16,17,17,16,17,17,17,16,16,17,17,17,17,17,17,17,17,17,17,17,17,19,14,17,17,17,17,17,16,17,17,16,17,17,16],"number_of_frames":121,"aperture_center_x":683,"aperture_center_y":384,"fixation_cross":true,"fixation_cross_width":15,"fixation_cross_height":15,"fixation_cross_color":"#111","fixation_cross_thickness":1,"border":true,"border_thickness":2,"border_color":"transparent","canvas_width":1366,"canvas_height":768,"trial_type":"rdk","trial_index":88,"plugin_version":"2.0.0","time_elapsed":414395},{"rt":3417,"stimulus":"\n        <div class=\"response-container\">\n          <div class=\"response-instruction\">\n            <p>rotate the bar by using the left and right arrow keys.</p>\n            <p>when you are determined, press the Enter key.</p>\n          </div>\n          <div class=\"response-circle\">\n            <div class=\"response-fixation\"></div>\n            <div id=\"bar\" class=\"rotating-bar\"></div>\n          </div>\n        </div>\n      ","response":"Enter","trial_type":"html-keyboard-response","trial_index":89,"plugin_version":"2.1.0","time_elapsed":417813,"random_initial_angle":52,"response_angle_css":-50,"response_angle_rdk":140,"angular_error_target":-13,"angular_error_distractor":-117,"target_direction":153,"target_group":"black","reward_points":7},{"rt":null,"stimulus":"\n          <p style=\"color: #00FF00;\">Your reward: 7 points</p>\n        ","response":null,"trial_type":"html-keyboard-response","trial_index":90,"plugin_version":"2.1.0","time_elapsed":419821},{"rt":null,"stimulus":"<div class=\"fixation\" style=\"font-size: 60px;\">+</div>","response":null,"trial_type":"html-keyboard-response","trial_index":91,"plugin_version":"2.1.0","time_elapsed":420834},{"phase":"learning-awareness","target_group":"white","condition_label":"W_H_vs_B_L_rep13","target_direction":85,"distractor_direction":334,"session_rotation":43,"rt":-1,"response":"","correct":false,"choices":"ALL_KEYS","correct_choice":["a"],"trial_duration":2000,"flip_timestamps":[],"response_ends_trial":false,"number_of_apertures":200,"number_of_dots":[1,1,1,1,1,1,1,1,1,1,1,1,1,1,1,1,1,1,1,1,1,1,1,1,1,1,1,1,1,1,1,1,1,1,1,1,1,1,1,1,1,1,1,1,1,1,1,1,1,1,1,1,1,1,1,1,1,1,1,1,1,1,1,1,1,1,1,1,1,1,1,1,1,1,1,1,1,1,1,1,1,1,1,1,1,1,1,1,1,1,1,1,1,1,1,1,1,1,1,1,1,1,1,1,1,1,1,1,1,1,1,1,1,1,1,1,1,1,1,1,1,1,1,1,1,1,1,1,1,1,1,1,1,1,1,1,1,1,1,1,1,1,1,1,1,1,1,1,1,1,1,1,1,1,1,1,1,1,1,1,1,1,1,1,1,1,1,1,1,1,1,1,1,1,1,1,1,1,1,1,1,1,1,1,1,1,1,1,1,1,1,1,1,1,1,1,1,1,1,1],"number_of_sets":1,"coherent_direction":[334,334,85,334,334,334,85,85,85,85,85,85,85,334,334,334,85,85,334,85,334,334,334,85,334,85,334,334,334,334,85,85,85,85,85,85,334,85,85,334,334,85,334,85,334,85,334,85,334,334,85,334,334,334,334,85,334,334,334,85,85,85,334,85,85,334,334,85,334,85,85,85,334,334,334,85,85,334,85,334,85,334,85,334,334,85,85,85,334,334,334,334,334,334,85,334,334,334,85,85,334,85,334,85,85,85,85,334,85,85,334,334,334,85,334,85,85,85,85,334,85,85,85,334,334,334,334,334,334,85,334,334,85,334,85,334,85,85,334,334,85,85,85,334,334,85,85,85,85,85,85,334,85,85,85,85,334,334,334,334,334,85,334,334,334,85,85,85,334,334,85,334,334,85,85,85,334,85,334,85,85,334,334,85,85,334,334,85,85,85,334,85,334,85,334,85,334,334,334,85],"coherence":1,"opposite_coherence":0,"dot_radius":2,"dot_side_length":1,"dot_life":-1,"move_distance":1,"aperture_width":300,"aperture_height":300,"dot_color":["black","black","white","black","black","black","white","white","white","white","white","white","white","black","black","black","white","white","black","white","black","black","black","white","black","white","black","black","black","black","white","white","white","white","white","white","black","white","white","black","black","white","black","white","black","white","black","white","black","black","white","black","black","black","black","white","black","black","black","white","white","white","black","white","white","black","black","white","black","white","white","white","black","black","black","white","white","black","white","black","white","black","white","black","black","white","white","white","black","black","black","black","black","black","white","black","black","black","white","white","black","white","black","white","white","white","white","black","white","white","black","black","black","white","black","white","white","white","white","black","white","white","white","black","black","black","black","black","black","white","black","black","white","black","white","black","white","white","black","black","white","white","white","black","black","white","white","white","white","white","white","black","white","white","white","white","black","black","black","black","black","white","black","black","black","white","white","white","black","black","white","black","black","white","white","white","black","white","black","white","white","black","black","white","white","black","black","white","white","white","black","white","black","white","black","white","black","black","black","white"],"dot_shape":"circle","background_color":"#AAA","RDK_type":3,"aperture_type":2,"reinsert_type":2,"frame_rate":16.7,"frame_rate_array":[10,12,17,17,17,17,16,17,17,16,18,16,18,16,17,17,17,16,17,17,17,17,17,17,17,17,16,17,17,16,17,16,17,17,16,17,17,17,16,17,17,17,17,17,17,17,17,17,17,17,17,16,17,17,17,16,16,17,16,17,17,17,17,16,17,17,17,16,17,17,21,15,14,17,16,17,17,17,16,17,17,17,17,17,17,17,17,18,16,17,17,17,17,16,17,17,17,17,17,17,17,17,16,18,15,17,17,17,17,16,17,17,17,17,16,17,16,17,16,17],"number_of_frames":120,"aperture_center_x":683,"aperture_center_y":384,"fixation_cross":true,"fixation_cross_width":15,"fixation_cross_height":15,"fixation_cross_color":"#111","fixation_cross_thickness":1,"border":true,"border_thickness":2,"border_color":"transparent","canvas_width":1366,"canvas_height":768,"trial_type":"rdk","trial_index":92,"plugin_version":"2.0.0","time_elapsed":422839},{"rt":6253,"stimulus":"\n        <div class=\"response-container\">\n          <div class=\"response-instruction\">\n            <p>rotate the bar by using the left and right arrow keys.</p>\n            <p>when you are determined, press the Enter key.</p>\n          </div>\n          <div class=\"response-circle\">\n            <div class=\"response-fixation\"></div>\n            <div id=\"bar\" class=\"rotating-bar\"></div>\n          </div>\n        </div>\n      ","response":"Enter","trial_type":"html-keyboard-response","trial_index":93,"plugin_version":"2.1.0","time_elapsed":429093,"random_initial_angle":159,"response_angle_css":124,"response_angle_rdk":326,"angular_error_target":-119,"angular_error_distractor":-8,"target_direction":85,"target_group":"white","reward_points":0},{"rt":null,"stimulus":"\n          <p style=\"color: #FF3333;\">Your reward: 0 points</p>\n        ","response":null,"trial_type":"html-keyboard-response","trial_index":94,"plugin_version":"2.1.0","time_elapsed":431097},{"rt":null,"stimulus":"<div class=\"fixation\" style=\"font-size: 60px;\">+</div>","response":null,"trial_type":"html-keyboard-response","trial_index":95,"plugin_version":"2.1.0","time_elapsed":432112},{"phase":"learning-awareness","target_group":"black","condition_label":"B_H_vs_W_L_rep10","target_direction":133,"distractor_direction":227,"session_rotation":43,"rt":-1,"response":"","correct":false,"choices":"ALL_KEYS","correct_choice":["a"],"trial_duration":2000,"flip_timestamps":[],"response_ends_trial":false,"number_of_apertures":200,"number_of_dots":[1,1,1,1,1,1,1,1,1,1,1,1,1,1,1,1,1,1,1,1,1,1,1,1,1,1,1,1,1,1,1,1,1,1,1,1,1,1,1,1,1,1,1,1,1,1,1,1,1,1,1,1,1,1,1,1,1,1,1,1,1,1,1,1,1,1,1,1,1,1,1,1,1,1,1,1,1,1,1,1,1,1,1,1,1,1,1,1,1,1,1,1,1,1,1,1,1,1,1,1,1,1,1,1,1,1,1,1,1,1,1,1,1,1,1,1,1,1,1,1,1,1,1,1,1,1,1,1,1,1,1,1,1,1,1,1,1,1,1,1,1,1,1,1,1,1,1,1,1,1,1,1,1,1,1,1,1,1,1,1,1,1,1,1,1,1,1,1,1,1,1,1,1,1,1,1,1,1,1,1,1,1,1,1,1,1,1,1,1,1,1,1,1,1,1,1,1,1,1,1],"number_of_sets":1,"coherent_direction":[227,227,133,227,133,133,133,133,227,133,133,227,227,227,227,227,227,227,133,133,133,227,227,133,227,133,227,133,133,227,133,227,133,227,133,227,133,133,133,133,227,133,227,133,227,227,227,227,133,133,133,133,133,227,133,133,227,133,133,227,133,227,133,227,133,133,227,227,227,133,227,227,227,133,133,227,227,133,227,227,227,133,133,227,133,133,227,133,227,133,227,227,227,133,227,133,227,133,227,133,227,227,133,133,133,133,227,227,133,133,227,133,133,227,227,227,227,227,227,133,133,227,227,227,133,227,227,133,133,133,133,133,227,133,133,133,227,227,133,133,227,227,227,227,227,227,227,227,227,227,133,133,133,133,133,227,133,227,133,133,133,227,133,133,133,227,133,133,227,133,227,227,227,133,133,133,227,227,227,133,227,133,133,227,227,133,133,133,133,227,133,227,227,133,133,227,227,227,133,227],"coherence":1,"opposite_coherence":0,"dot_radius":2,"dot_side_length":1,"dot_life":-1,"move_distance":1,"aperture_width":300,"aperture_height":300,"dot_color":["white","white","black","white","black","black","black","black","white","black","black","white","white","white","white","white","white","white","black","black","black","white","white","black","white","black","white","black","black","white","black","white","black","white","black","white","black","black","black","black","white","black","white","black","white","white","white","white","black","black","black","black","black","white","black","black","white","black","black","white","black","white","black","white","black","black","white","white","white","black","white","white","white","black","black","white","white","black","white","white","white","black","black","white","black","black","white","black","white","black","white","white","white","black","white","black","white","black","white","black","white","white","black","black","black","black","white","white","black","black","white","black","black","white","white","white","white","white","white","black","black","white","white","white","black","white","white","black","black","black","black","black","white","black","black","black","white","white","black","black","white","white","white","white","white","white","white","white","white","white","black","black","black","black","black","white","black","white","black","black","black","white","black","black","black","white","black","black","white","black","white","white","white","black","black","black","white","white","white","black","white","black","black","white","white","black","black","black","black","white","black","white","white","black","black","white","white","white","black","white"],"dot_shape":"circle","background_color":"#AAA","RDK_type":3,"aperture_type":2,"reinsert_type":2,"frame_rate":16.691666666666666,"frame_rate_array":[9,7,17,17,17,16,17,17,17,17,17,17,17,17,17,17,17,17,16,17,16,17,17,17,17,18,16,17,17,17,17,16,17,18,15,17,17,17,17,17,17,16,17,17,17,16,18,15,17,17,17,17,17,17,17,17,23,15,13,17,17,17,17,17,17,18,16,17,16,17,17,17,17,17,16,17,17,17,17,17,17,16,17,16,18,16,17,16,17,17,17,17,17,17,17,17,16,17,21,12,17,17,17,19,14,17,17,17,17,16,17,17,17,17,17,17,22,11,17,16],"number_of_frames":120,"aperture_center_x":683,"aperture_center_y":384,"fixation_cross":true,"fixation_cross_width":15,"fixation_cross_height":15,"fixation_cross_color":"#111","fixation_cross_thickness":1,"border":true,"border_thickness":2,"border_color":"transparent","canvas_width":1366,"canvas_height":768,"trial_type":"rdk","trial_index":96,"plugin_version":"2.0.0","time_elapsed":434123},{"rt":3659,"stimulus":"\n        <div class=\"response-container\">\n          <div class=\"response-instruction\">\n            <p>rotate the bar by using the left and right arrow keys.</p>\n            <p>when you are determined, press the Enter key.</p>\n          </div>\n          <div class=\"response-circle\">\n            <div class=\"response-fixation\"></div>\n            <div id=\"bar\" class=\"rotating-bar\"></div>\n          </div>\n        </div>\n      ","response":"Enter","trial_type":"html-keyboard-response","trial_index":97,"plugin_version":"2.1.0","time_elapsed":437783,"random_initial_angle":286,"response_angle_css":305,"response_angle_rdk":145,"angular_error_target":12,"angular_error_distractor":-82,"target_direction":133,"target_group":"black","reward_points":7},{"rt":null,"stimulus":"\n          <p style=\"color: #00FF00;\">Your reward: 7 points</p>\n        ","response":null,"trial_type":"html-keyboard-response","trial_index":98,"plugin_version":"2.1.0","time_elapsed":439796},{"rt":null,"stimulus":"<div class=\"fixation\" style=\"font-size: 60px;\">+</div>","response":null,"trial_type":"html-keyboard-response","trial_index":99,"plugin_version":"2.1.0","time_elapsed":440813},{"phase":"learning-awareness","target_group":"black","condition_label":"B_H_vs_W_L_rep5","target_direction":153,"distractor_direction":253,"session_rotation":43,"rt":-1,"response":"","correct":false,"choices":"ALL_KEYS","correct_choice":["a"],"trial_duration":2000,"flip_timestamps":[],"response_ends_trial":false,"number_of_apertures":200,"number_of_dots":[1,1,1,1,1,1,1,1,1,1,1,1,1,1,1,1,1,1,1,1,1,1,1,1,1,1,1,1,1,1,1,1,1,1,1,1,1,1,1,1,1,1,1,1,1,1,1,1,1,1,1,1,1,1,1,1,1,1,1,1,1,1,1,1,1,1,1,1,1,1,1,1,1,1,1,1,1,1,1,1,1,1,1,1,1,1,1,1,1,1,1,1,1,1,1,1,1,1,1,1,1,1,1,1,1,1,1,1,1,1,1,1,1,1,1,1,1,1,1,1,1,1,1,1,1,1,1,1,1,1,1,1,1,1,1,1,1,1,1,1,1,1,1,1,1,1,1,1,1,1,1,1,1,1,1,1,1,1,1,1,1,1,1,1,1,1,1,1,1,1,1,1,1,1,1,1,1,1,1,1,1,1,1,1,1,1,1,1,1,1,1,1,1,1,1,1,1,1,1,1],"number_of_sets":1,"coherent_direction":[253,253,253,153,153,253,153,253,253,153,253,253,153,253,253,253,153,253,253,253,253,153,253,153,253,253,153,253,253,153,253,153,253,153,153,153,253,153,253,253,253,153,253,253,253,253,153,153,153,153,153,253,253,153,253,253,153,253,253,253,153,253,153,253,253,153,253,253,253,253,253,253,253,153,253,153,253,153,153,253,153,153,153,153,153,153,153,253,253,253,253,253,253,253,153,153,253,253,253,253,253,253,253,253,153,153,253,153,153,153,153,153,153,153,153,153,153,153,253,153,153,253,253,253,253,153,153,153,253,153,153,253,253,253,253,153,153,153,153,153,253,253,153,153,253,253,153,253,153,153,153,253,153,153,153,253,153,153,153,153,253,253,153,253,153,153,253,153,253,153,153,153,253,253,153,253,253,253,253,253,153,153,153,253,153,153,153,153,253,253,153,153,153,153,153,153,153,153,253,253],"coherence":1,"opposite_coherence":0,"dot_radius":2,"dot_side_length":1,"dot_life":-1,"move_distance":1,"aperture_width":300,"aperture_height":300,"dot_color":["white","white","white","black","black","white","black","white","white","black","white","white","black","white","white","white","black","white","white","white","white","black","white","black","white","white","black","white","white","black","white","black","white","black","black","black","white","black","white","white","white","black","white","white","white","white","black","black","black","black","black","white","white","black","white","white","black","white","white","white","black","white","black","white","white","black","white","white","white","white","white","white","white","black","white","black","white","black","black","white","black","black","black","black","black","black","black","white","white","white","white","white","white","white","black","black","white","white","white","white","white","white","white","white","black","black","white","black","black","black","black","black","black","black","black","black","black","black","white","black","black","white","white","white","white","black","black","black","white","black","black","white","white","white","white","black","black","black","black","black","white","white","black","black","white","white","black","white","black","black","black","white","black","black","black","white","black","black","black","black","white","white","black","white","black","black","white","black","white","black","black","black","white","white","black","white","white","white","white","white","black","black","black","white","black","black","black","black","white","white","black","black","black","black","black","black","black","black","white","white"],"dot_shape":"circle","background_color":"#AAA","RDK_type":3,"aperture_type":2,"reinsert_type":2,"frame_rate":16.727272727272727,"frame_rate_array":[13,9,15,17,16,17,17,17,17,17,17,17,17,17,17,17,17,16,17,17,17,18,16,17,17,17,16,17,17,17,16,17,17,17,17,16,17,16,17,17,17,17,17,17,16,17,16,17,17,17,17,17,17,17,17,17,17,17,17,16,17,17,17,16,17,17,16,17,17,17,16,17,17,17,17,16,17,16,17,17,17,16,17,17,19,17,16,17,17,14,17,17,17,17,17,17,17,16,17,17,17,17,17,17,17,17,17,17,17,18,15,17,17,17,17,17,17,17,17,17,17],"number_of_frames":121,"aperture_center_x":683,"aperture_center_y":384,"fixation_cross":true,"fixation_cross_width":15,"fixation_cross_height":15,"fixation_cross_color":"#111","fixation_cross_thickness":1,"border":true,"border_thickness":2,"border_color":"transparent","canvas_width":1366,"canvas_height":768,"trial_type":"rdk","trial_index":100,"plugin_version":"2.0.0","time_elapsed":442827},{"rt":4873,"stimulus":"\n        <div class=\"response-container\">\n          <div class=\"response-instruction\">\n            <p>rotate the bar by using the left and right arrow keys.</p>\n            <p>when you are determined, press the Enter key.</p>\n          </div>\n          <div class=\"response-circle\">\n            <div class=\"response-fixation\"></div>\n            <div id=\"bar\" class=\"rotating-bar\"></div>\n          </div>\n        </div>\n      ","response":"Enter","trial_type":"html-keyboard-response","trial_index":101,"plugin_version":"2.1.0","time_elapsed":447701,"random_initial_angle":130,"response_angle_css":319,"response_angle_rdk":131,"angular_error_target":-22,"angular_error_distractor":-122,"target_direction":153,"target_group":"black","reward_points":5},{"rt":null,"stimulus":"\n          <p style=\"color: #00FF00;\">Your reward: 5 points</p>\n        ","response":null,"trial_type":"html-keyboard-response","trial_index":102,"plugin_version":"2.1.0","time_elapsed":449709},{"rt":null,"stimulus":"<div class=\"fixation\" style=\"font-size: 60px;\">+</div>","response":null,"trial_type":"html-keyboard-response","trial_index":103,"plugin_version":"2.1.0","time_elapsed":450715},{"phase":"learning-awareness","target_group":"white","condition_label":"W_H_vs_B_L_rep4","target_direction":54,"distractor_direction":321,"session_rotation":43,"rt":-1,"response":"","correct":false,"choices":"ALL_KEYS","correct_choice":["a"],"trial_duration":2000,"flip_timestamps":[],"response_ends_trial":false,"number_of_apertures":200,"number_of_dots":[1,1,1,1,1,1,1,1,1,1,1,1,1,1,1,1,1,1,1,1,1,1,1,1,1,1,1,1,1,1,1,1,1,1,1,1,1,1,1,1,1,1,1,1,1,1,1,1,1,1,1,1,1,1,1,1,1,1,1,1,1,1,1,1,1,1,1,1,1,1,1,1,1,1,1,1,1,1,1,1,1,1,1,1,1,1,1,1,1,1,1,1,1,1,1,1,1,1,1,1,1,1,1,1,1,1,1,1,1,1,1,1,1,1,1,1,1,1,1,1,1,1,1,1,1,1,1,1,1,1,1,1,1,1,1,1,1,1,1,1,1,1,1,1,1,1,1,1,1,1,1,1,1,1,1,1,1,1,1,1,1,1,1,1,1,1,1,1,1,1,1,1,1,1,1,1,1,1,1,1,1,1,1,1,1,1,1,1,1,1,1,1,1,1,1,1,1,1,1,1],"number_of_sets":1,"coherent_direction":[54,54,54,54,54,54,54,321,54,54,321,321,54,321,54,321,54,321,321,54,54,54,321,321,54,321,321,321,54,321,54,321,54,54,54,54,321,54,321,321,54,54,54,321,321,321,321,54,54,321,321,54,54,54,54,321,321,54,321,321,54,321,321,321,321,321,321,54,54,54,321,54,321,321,321,54,321,321,321,321,321,54,321,54,54,54,321,321,321,321,54,54,321,321,54,54,54,321,321,54,54,54,54,54,54,54,54,321,54,54,54,321,54,321,54,321,321,54,321,321,54,54,321,54,54,321,54,321,321,321,54,321,54,54,321,321,54,54,321,54,321,54,54,321,54,54,321,54,54,54,321,321,321,54,321,54,54,321,54,321,321,54,321,321,321,54,54,54,321,54,54,321,321,321,54,54,321,321,321,321,54,54,321,321,321,54,321,54,54,321,54,321,321,321,321,321,321,321,54,54],"coherence":1,"opposite_coherence":0,"dot_radius":2,"dot_side_length":1,"dot_life":-1,"move_distance":1,"aperture_width":300,"aperture_height":300,"dot_color":["white","white","white","white","white","white","white","black","white","white","black","black","white","black","white","black","white","black","black","white","white","white","black","black","white","black","black","black","white","black","white","black","white","white","white","white","black","white","black","black","white","white","white","black","black","black","black","white","white","black","black","white","white","white","white","black","black","white","black","black","white","black","black","black","black","black","black","white","white","white","black","white","black","black","black","white","black","black","black","black","black","white","black","white","white","white","black","black","black","black","white","white","black","black","white","white","white","black","black","white","white","white","white","white","white","white","white","black","white","white","white","black","white","black","white","black","black","white","black","black","white","white","black","white","white","black","white","black","black","black","white","black","white","white","black","black","white","white","black","white","black","white","white","black","white","white","black","white","white","white","black","black","black","white","black","white","white","black","white","black","black","white","black","black","black","white","white","white","black","white","white","black","black","black","white","white","black","black","black","black","white","white","black","black","black","white","black","white","white","black","white","black","black","black","black","black","black","black","white","white"],"dot_shape":"circle","background_color":"#AAA","RDK_type":3,"aperture_type":2,"reinsert_type":2,"frame_rate":16.691666666666666,"frame_rate_array":[13,6,14,17,17,17,17,17,17,18,15,17,16,17,17,17,17,18,17,16,17,17,17,17,18,15,18,15,15,17,17,16,17,17,17,17,17,17,17,17,17,17,17,16,17,17,16,17,17,17,16,16,17,17,17,17,17,17,17,16,17,17,17,16,17,17,17,17,16,17,17,17,17,17,17,17,17,17,17,16,17,17,17,17,17,17,17,17,17,16,17,17,16,17,17,17,17,17,17,16,17,17,17,17,17,17,17,17,17,17,17,17,17,17,17,16,17,18,16,17],"number_of_frames":120,"aperture_center_x":683,"aperture_center_y":384,"fixation_cross":true,"fixation_cross_width":15,"fixation_cross_height":15,"fixation_cross_color":"#111","fixation_cross_thickness":1,"border":true,"border_thickness":2,"border_color":"transparent","canvas_width":1366,"canvas_height":768,"trial_type":"rdk","trial_index":104,"plugin_version":"2.0.0","time_elapsed":452721},{"rt":2991,"stimulus":"\n        <div class=\"response-container\">\n          <div class=\"response-instruction\">\n            <p>rotate the bar by using the left and right arrow keys.</p>\n            <p>when you are determined, press the Enter key.</p>\n          </div>\n          <div class=\"response-circle\">\n            <div class=\"response-fixation\"></div>\n            <div id=\"bar\" class=\"rotating-bar\"></div>\n          </div>\n        </div>\n      ","response":"Enter","trial_type":"html-keyboard-response","trial_index":105,"plugin_version":"2.1.0","time_elapsed":455713,"random_initial_angle":327,"response_angle_css":401,"response_angle_rdk":49,"angular_error_target":-5,"angular_error_distractor":88,"target_direction":54,"target_group":"white","reward_points":9},{"rt":null,"stimulus":"\n          <p style=\"color: #00FF00;\">Your reward: 9 points</p>\n        ","response":null,"trial_type":"html-keyboard-response","trial_inde