[{"rt":5023,"stimulus":"Welcome to the experiment. Press any key to begin.","response":"ArrowRight","trial_type":"html-keyboard-response","trial_index":0,"plugin_version":"2.1.0","time_elapsed":5025},{"rt":21450,"stimulus":"\n        <div class=\"instructions-container\">\n          <h2>Instructions</h2>\n\n          <p>\n          In this experiment, you will see <strong>two Random Dot Kinematograms (RDKs)</strong> displayed simultaneously.\n          </p>\n\n          <p>\n          An RDK is a visual stimulus consisting of many small dots that move coherently in a single direction. \n          In this experiment, the dots will be either <strong>white</strong> or <strong>black</strong> \n          (see the short demo below for an example of an RDK stimulus).\n          </p>\n\n          <p>\n          On each trial, the two RDKs will move in different directions. \n          Your task is to decide <strong>which RDK appears to contain more dots</strong>.\n          </p>\n\n          <p>\n          The RDK that you judge to have more dots is called the <strong>target RDK</strong>. \n          For example, if the white RDK appears to have more dots than the black RDK, \n          you should report the motion direction of the white RDK.\n          </p>\n\n          <p>\n          After viewing the RDKs, you will rotate a bar to indicate the perceived direction of the target RDK \n          using the <strong>left</strong> and <strong>right arrow keys</strong>. \n          Press <strong>Enter</strong> when you are satisfied with your response.\n          When the bar is held down, the rotation speed increases.\n          </p>\n\n          <p>\n          You will receive points based on the <strong>accuracy of your response</strong>, \n          and your final <strong>bonus reward</strong> may depend on your overall performance. \n          Please try to respond as accurately as possible.\n          </p>\n\n          <p>\n          You will first complete <strong>16 practice trials</strong>. \n          Press the <strong>Enter</strong> key to start the practice phase.\n          </p>\n\n          <canvas id=\"instruction-demo-rdk\" width=\"200\" height=\"200\"style=\"display:block;margin:12px auto; border-radius: 50%;\"></canvas>\n        </div>\n      ","response":"Enter","trial_type":"html-keyboard-response","trial_index":1,"plugin_version":"2.1.0","time_elapsed":26476},{"rt":null,"stimulus":"<div class=\"fixation\" style=\"font-size: 60px;\">+</div>","response":null,"trial_type":"html-keyboard-response","trial_index":2,"plugin_version":"2.1.0","time_elapsed":27483},{"target_group":"black","target_index":1,"condition_label":"practice","rt":892,"response":"ArrowLeft","correct":false,"choices":"ALL_KEYS","correct_choice":["a"],"trial_duration":2000,"flip_timestamps":[],"response_ends_trial":false,"number_of_apertures":2,"number_of_dots":[82,100],"number_of_sets":1,"coherent_direction":[268,359],"coherence":1,"opposite_coherence":0,"dot_radius":2,"dot_side_length":1,"dot_life":-1,"move_distance":1,"aperture_width":300,"aperture_height":300,"dot_color":["white","black"],"dot_shape":"circle","background_color":"#AAA","RDK_type":3,"aperture_type":2,"reinsert_type":2,"frame_rate":16.694214876033058,"frame_rate_array":[5,18,16,17,17,17,16,17,17,17,17,16,17,17,17,16,17,17,17,17,16,17,17,17,16,17,17,17,17,16,17,17,17,17,17,17,17,16,16,17,17,16,17,16,17,17,17,16,17,17,17,17,17,16,17,17,16,17,18,15,17,16,17,17,17,17,17,16,17,17,17,17,17,17,17,17,17,16,17,16,17,16,17,17,17,17,17,17,17,17,17,16,17,17,17,17,17,16,18,16,17,18,16,17,17,17,17,16,17,17,17,17,17,16,17,16,17,16,17,17,17],"number_of_frames":121,"aperture_center_x":960,"aperture_center_y":540,"fixation_cross":true,"fixation_cross_width":15,"fixation_cross_height":15,"fixation_cross_color":"#111","fixation_cross_thickness":1,"border":true,"border_thickness":2,"border_color":"transparent","canvas_width":1920,"canvas_height":1080,"trial_type":"rdk","trial_index":3,"plugin_version":"2.0.0","time_elapsed":29492,"phase":"practice","target_direction":359,"distractor_direction":268},{"rt":7101,"stimulus":"\n        <div class=\"response-container\">\n          <div class=\"response-instruction\">\n            <p>rotate the bar by using the left and right arrow keys.</p>\n            <p>when you are determined, press the Enter key.</p>\n          </div>\n          <div class=\"response-circle\">\n            <div class=\"response-fixation\"></div>\n            <div id=\"bar\" class=\"rotating-bar\"></div>\n          </div>\n        </div>\n      ","response":"Enter","trial_type":"html-keyboard-response","trial_index":4,"plugin_version":"2.1.0","time_elapsed":36593,"random_initial_angle":236,"response_angle_css":73,"response_angle_rdk":17,"angular_error_target":18,"angular_error_distractor":109,"target_direction":359,"target_group":"black","reward_points":6},{"rt":null,"stimulus":"\n          <p style=\"color: #00FF00;\">Your reward: 6 points</p>\n        ","response":null,"trial_type":"html-keyboard-response","trial_index":5,"plugin_version":"2.1.0","time_elapsed":38607},{"rt":null,"stimulus":"<div class=\"fixation\" style=\"font-size: 60px;\">+</div>","response":null,"trial_type":"html-keyboard-response","trial_index":6,"plugin_version":"2.1.0","time_elapsed":39615},{"target_group":"white","target_index":0,"condition_label":"practice","rt":567,"response":"ArrowLeft","correct":false,"choices":"ALL_KEYS","correct_choice":["a"],"trial_duration":2000,"flip_timestamps":[],"response_ends_trial":false,"number_of_apertures":2,"number_of_dots":[100,97],"number_of_sets":1,"coherent_direction":[224,324],"coherence":1,"opposite_coherence":0,"dot_radius":2,"dot_side_length":1,"dot_life":-1,"move_distance":1,"aperture_width":300,"aperture_height":300,"dot_color":["white","black"],"dot_shape":"circle","background_color":"#AAA","RDK_type":3,"aperture_type":2,"reinsert_type":2,"frame_rate":16.675,"frame_rate_array":[6,17,17,17,16,17,17,16,17,17,16,17,18,16,17,16,17,17,17,17,17,17,16,17,16,17,17,17,16,18,16,17,16,17,17,17,17,16,17,17,17,16,17,17,17,16,17,17,16,17,16,16,17,16,17,16,17,17,17,18,16,17,17,16,17,16,17,17,16,17,17,16,17,17,17,17,16,17,17,17,16,17,17,17,17,17,17,17,17,18,16,17,16,17,17,17,17,17,17,17,17,16,17,17,17,16,17,16,17,17,17,17,17,17,17,16,16,17,17,17],"number_of_frames":120,"aperture_center_x":960,"aperture_center_y":540,"fixation_cross":true,"fixation_cross_width":15,"fixation_cross_height":15,"fixation_cross_color":"#111","fixation_cross_thickness":1,"border":true,"border_thickness":2,"border_color":"transparent","canvas_width":1920,"canvas_height":1080,"trial_type":"rdk","trial_index":7,"plugin_version":"2.0.0","time_elapsed":41618,"phase":"practice","target_direction":224,"distractor_direction":324},{"rt":3474,"stimulus":"\n        <div class=\"response-container\">\n          <div class=\"response-instruction\">\n            <p>rotate the bar by using the left and right arrow keys.</p>\n            <p>when you are determined, press the Enter key.</p>\n          </div>\n          <div class=\"response-circle\">\n            <div class=\"response-fixation\"></div>\n            <div id=\"bar\" class=\"rotating-bar\"></div>\n          </div>\n        </div>\n      ","response":"Enter","trial_type":"html-keyboard-response","trial_index":8,"plugin_version":"2.1.0","time_elapsed":45093,"random_initial_angle":67,"response_angle_css":236,"response_angle_rdk":214,"angular_error_target":-10,"angular_error_distractor":-110,"target_direction":224,"target_group":"white","reward_points":8},{"rt":null,"stimulus":"\n          <p style=\"color: #00FF00;\">Your reward: 8 points</p>\n        ","response":null,"trial_type":"html-keyboard-response","trial_index":9,"plugin_version":"2.1.0","time_elapsed":47099},{"rt":null,"stimulus":"<div class=\"fixation\" style=\"font-size: 60px;\">+</div>","response":null,"trial_type":"html-keyboard-response","trial_index":10,"plugin_version":"2.1.0","time_elapsed":48114},{"target_group":"black","target_index":1,"condition_label":"practice","rt":-1,"response":"","correct":false,"choices":"ALL_KEYS","correct_choice":["a"],"trial_duration":2000,"flip_timestamps":[],"response_ends_trial":false,"number_of_apertures":2,"number_of_dots":[76,100],"number_of_sets":1,"coherent_direction":[165,293],"coherence":1,"opposite_coherence":0,"dot_radius":2,"dot_side_length":1,"dot_life":-1,"move_distance":1,"aperture_width":300,"aperture_height":300,"dot_color":["white","black"],"dot_shape":"circle","background_color":"#AAA","RDK_type":3,"aperture_type":2,"reinsert_type":2,"frame_rate":16.733333333333334,"frame_rate_array":[7,17,17,17,16,16,17,17,16,17,17,18,16,17,18,16,17,17,17,17,17,16,17,17,17,17,17,17,17,17,17,17,17,16,17,17,17,17,17,16,17,16,17,17,17,17,17,17,17,17,17,17,17,17,17,16,17,17,17,17,17,16,17,17,16,17,17,17,17,17,17,17,16,17,17,17,17,17,17,16,17,17,16,17,17,17,16,17,17,16,16,17,16,17,17,16,17,17,17,17,16,17,17,17,17,17,17,17,17,17,17,16,17,17,17,17,16,17,16,17],"number_of_frames":120,"aperture_center_x":960,"aperture_center_y":540,"fixation_cross":true,"fixation_cross_width":15,"fixation_cross_height":15,"fixation_cross_color":"#111","fixation_cross_thickness":1,"border":true,"border_thickness":2,"border_color":"transparent","canvas_width":1920,"canvas_height":1080,"trial_type":"rdk","trial_index":11,"plugin_version":"2.0.0","time_elapsed":50122,"phase":"practice","target_direction":293,"distractor_direction":165},{"rt":1917,"stimulus":"\n        <div class=\"response-container\">\n          <div class=\"response-instruction\">\n            <p>rotate the bar by using the left and right arrow keys.</p>\n            <p>when you are determined, press the Enter key.</p>\n          </div>\n          <div class=\"response-circle\">\n            <div class=\"response-fixation\"></div>\n            <div id=\"bar\" class=\"rotating-bar\"></div>\n          </div>\n        </div>\n      ","response":"Enter","trial_type":"html-keyboard-response","trial_index":12,"plugin_version":"2.1.0","time_elapsed":52040,"random_initial_angle":76,"response_angle_css":138,"response_angle_rdk":312,"angular_error_target":19,"angular_error_distractor":147,"target_direction":293,"target_group":"black","reward_points":6},{"rt":null,"stimulus":"\n          <p style=\"color: #00FF00;\">Your reward: 6 points</p>\n        ","response":null,"trial_type":"html-keyboard-response","trial_index":13,"plugin_version":"2.1.0","time_elapsed":54053},{"rt":null,"stimulus":"<div class=\"fixation\" style=\"font-size: 60px;\">+</div>","response":null,"trial_type":"html-keyboard-response","trial_index":14,"plugin_version":"2.1.0","time_elapsed":55064},{"target_group":"black","target_index":1,"condition_label":"practice","rt":-1,"response":"","correct":false,"choices":"ALL_KEYS","correct_choice":["a"],"trial_duration":2000,"flip_timestamps":[],"response_ends_trial":false,"number_of_apertures":2,"number_of_dots":[81,100],"number_of_sets":1,"coherent_direction":[38,258],"coherence":1,"opposite_coherence":0,"dot_radius":2,"dot_side_length":1,"dot_life":-1,"move_distance":1,"aperture_width":300,"aperture_height":300,"dot_color":["white","black"],"dot_shape":"circle","background_color":"#AAA","RDK_type":3,"aperture_type":2,"reinsert_type":2,"frame_rate":16.702479338842974,"frame_rate_array":[7,16,17,17,17,17,16,17,16,17,17,17,17,17,17,17,16,17,17,17,17,17,17,17,17,17,17,16,17,17,17,17,16,17,17,17,17,16,17,17,16,17,16,17,17,17,17,17,17,17,16,16,17,17,16,17,16,17,17,17,16,16,17,17,16,17,16,18,16,17,18,16,17,17,17,17,17,17,17,17,16,17,17,16,17,17,17,16,16,17,17,17,16,17,17,16,17,17,17,17,17,17,17,17,17,17,17,17,16,17,16,18,16,17,17,17,17,17,16,17,17],"number_of_frames":121,"aperture_center_x":960,"aperture_center_y":540,"fixation_cross":true,"fixation_cross_width":15,"fixation_cross_height":15,"fixation_cross_color":"#111","fixation_cross_thickness":1,"border":true,"border_thickness":2,"border_color":"transparent","canvas_width":1920,"canvas_height":1080,"trial_type":"rdk","trial_index":15,"plugin_version":"2.0.0","time_elapsed":57073,"phase":"practice","target_direction":258,"distractor_direction":38},{"rt":2490,"stimulus":"\n        <div class=\"response-container\">\n          <div class=\"response-instruction\">\n            <p>rotate the bar by using the left and right arrow keys.</p>\n            <p>when you are determined, press the Enter key.</p>\n          </div>\n          <div class=\"response-circle\">\n            <div class=\"response-fixation\"></div>\n            <div id=\"bar\" class=\"rotating-bar\"></div>\n          </div>\n        </div>\n      ","response":"Enter","trial_type":"html-keyboard-response","trial_index":16,"plugin_version":"2.1.0","time_elapsed":59563,"random_initial_angle":311,"response_angle_css":218,"response_angle_rdk":232,"angular_error_target":-26,"angular_error_distractor":-166,"target_direction":258,"target_group":"black","reward_points":4},{"rt":null,"stimulus":"\n          <p style=\"color: #00FF00;\">Your reward: 4 points</p>\n        ","response":null,"trial_type":"html-keyboard-response","trial_index":17,"plugin_version":"2.1.0","time_elapsed":61567},{"rt":null,"stimulus":"<div class=\"fixation\" style=\"font-size: 60px;\">+</div>","response":null,"trial_type":"html-keyboard-response","trial_index":18,"plugin_version":"2.1.0","time_elapsed":62581},{"target_group":"black","target_index":1,"condition_label":"practice","rt":-1,"response":"","correct":false,"choices":"ALL_KEYS","correct_choice":["a"],"trial_duration":2000,"flip_timestamps":[],"response_ends_trial":false,"number_of_apertures":2,"number_of_dots":[97,100],"number_of_sets":1,"coherent_direction":[152,294],"coherence":1,"opposite_coherence":0,"dot_radius":2,"dot_side_length":1,"dot_life":-1,"move_distance":1,"aperture_width":300,"aperture_height":300,"dot_color":["white","black"],"dot_shape":"circle","background_color":"#AAA","RDK_type":3,"aperture_type":2,"reinsert_type":2,"frame_rate":16.725,"frame_rate_array":[6,16,17,17,17,17,17,17,17,17,17,17,17,17,17,17,17,16,17,17,17,17,16,17,17,17,16,17,17,16,17,17,17,16,17,17,17,16,17,16,17,17,17,17,17,17,17,17,17,17,17,17,17,17,17,17,17,16,17,16,17,17,16,17,17,17,16,17,17,16,17,17,17,17,17,17,17,17,16,17,16,17,17,17,17,17,16,17,17,16,17,17,17,17,17,17,17,17,16,17,17,17,17,17,17,16,17,16,17,17,17,18,16,17,16,17,17,17,16,17],"number_of_frames":120,"aperture_center_x":960,"aperture_center_y":540,"fixation_cross":true,"fixation_cross_width":15,"fixation_cross_height":15,"fixation_cross_color":"#111","fixation_cross_thickness":1,"border":true,"border_thickness":2,"border_color":"transparent","canvas_width":1920,"canvas_height":1080,"trial_type":"rdk","trial_index":19,"plugin_version":"2.0.0","time_elapsed":64587,"phase":"practice","target_direction":294,"distractor_direction":152},{"rt":3457,"stimulus":"\n        <div class=\"response-container\">\n          <div class=\"response-instruction\">\n            <p>rotate the bar by using the left and right arrow keys.</p>\n            <p>when you are determined, press the Enter key.</p>\n          </div>\n          <div class=\"response-circle\">\n            <div class=\"response-fixation\"></div>\n            <div id=\"bar\" class=\"rotating-bar\"></div>\n          </div>\n        </div>\n      ","response":"Enter","trial_type":"html-keyboard-response","trial_index":20,"plugin_version":"2.1.0","time_elapsed":68045,"random_initial_angle":183,"response_angle_css":315,"response_angle_rdk":135,"angular_error_target":-159,"angular_error_distractor":-17,"target_direction":294,"target_group":"black","reward_points":0},{"rt":null,"stimulus":"\n          <p style=\"color: #FF3333;\">Your reward: 0 points</p>\n        ","response":null,"trial_type":"html-keyboard-response","trial_index":21,"plugin_version":"2.1.0","time_elapsed":70057},{"rt":null,"stimulus":"<div class=\"fixation\" style=\"font-size: 60px;\">+</div>","response":null,"trial_type":"html-keyboard-response","trial_index":22,"plugin_version":"2.1.0","time_elapsed":71059},{"target_group":"white","target_index":0,"condition_label":"practice","rt":-1,"response":"","correct":false,"choices":"ALL_KEYS","correct_choice":["a"],"trial_duration":2000,"flip_timestamps":[],"response_ends_trial":false,"number_of_apertures":2,"number_of_dots":[100,87],"number_of_sets":1,"coherent_direction":[187,31],"coherence":1,"opposite_coherence":0,"dot_radius":2,"dot_side_length":1,"dot_life":-1,"move_distance":1,"aperture_width":300,"aperture_height":300,"dot_color":["white","black"],"dot_shape":"circle","background_color":"#AAA","RDK_type":3,"aperture_type":2,"reinsert_type":2,"frame_rate":16.702479338842974,"frame_rate_array":[11,16,17,16,17,16,17,17,17,16,17,16,17,17,17,16,16,17,17,17,17,16,17,17,17,17,17,17,17,17,16,18,16,17,16,17,17,17,17,17,16,17,17,16,17,17,17,17,17,17,17,16,17,17,16,17,17,16,17,17,17,17,16,17,17,17,17,17,17,17,17,17,17,17,16,17,17,17,17,17,16,17,17,16,17,17,16,17,16,17,17,17,16,18,15,17,17,16,17,17,17,17,17,17,17,17,16,17,16,17,17,16,17,16,17,17,17,17,16,17,16],"number_of_frames":121,"aperture_center_x":960,"aperture_center_y":540,"fixation_cross":true,"fixation_cross_width":15,"fixation_cross_height":15,"fixation_cross_color":"#111","fixation_cross_thickness":1,"border":true,"border_thickness":2,"border_color":"transparent","canvas_width":1920,"canvas_height":1080,"trial_type":"rdk","trial_index":23,"plugin_version":"2.0.0","time_elapsed":73071,"phase":"practice","target_direction":187,"distractor_direction":31},{"rt":2921,"stimulus":"\n        <div class=\"response-container\">\n          <div class=\"response-instruction\">\n            <p>rotate the bar by using the left and right arrow keys.</p>\n            <p>when you are determined, press the Enter key.</p>\n          </div>\n          <div class=\"response-circle\">\n            <div class=\"response-fixation\"></div>\n            <div id=\"bar\" class=\"rotating-bar\"></div>\n          </div>\n        </div>\n      ","response":"Enter","trial_type":"html-keyboard-response","trial_index":24,"plugin_version":"2.1.0","time_elapsed":75992,"random_initial_angle":195,"response_angle_css":228,"response_angle_rdk":222,"angular_error_target":35,"angular_error_distractor":-169,"target_direction":187,"target_group":"white","reward_points":3},{"rt":null,"stimulus":"\n          <p style=\"color: #00FF00;\">Your reward: 3 points</p>\n        ","response":null,"trial_type":"html-keyboard-response","trial_index":25,"plugin_version":"2.1.0","time_elapsed":78001},{"rt":null,"stimulus":"<div class=\"fixation\" style=\"font-size: 60px;\">+</div>","response":null,"trial_type":"html-keyboard-response","trial_index":26,"plugin_version":"2.1.0","time_elapsed":79012},{"target_group":"black","target_index":1,"condition_label":"practice","rt":-1,"response":"","correct":false,"choices":"ALL_KEYS","correct_choice":["a"],"trial_duration":2000,"flip_timestamps":[],"response_ends_trial":false,"number_of_apertures":2,"number_of_dots":[92,100],"number_of_sets":1,"coherent_direction":[179,54],"coherence":1,"opposite_coherence":0,"dot_radius":2,"dot_side_length":1,"dot_life":-1,"move_distance":1,"aperture_width":300,"aperture_height":300,"dot_color":["white","black"],"dot_shape":"circle","background_color":"#AAA","RDK_type":3,"aperture_type":2,"reinsert_type":2,"frame_rate":16.666666666666668,"frame_rate_array":[7,17,18,16,17,17,17,16,17,17,17,16,17,16,17,17,17,16,17,16,17,16,17,17,17,17,17,16,17,17,17,16,17,17,16,16,17,17,16,17,17,17,17,17,17,16,17,17,17,16,17,18,16,17,17,17,16,17,16,17,16,17,16,17,17,17,17,17,16,17,16,17,17,17,17,17,17,17,17,16,17,17,17,16,17,17,17,17,17,16,17,17,17,16,17,17,17,17,17,17,16,17,17,17,16,17,17,17,16,17,17,17,16,17,17,16,17,17,16,16],"number_of_frames":120,"aperture_center_x":960,"aperture_center_y":540,"fixation_cross":true,"fixation_cross_width":15,"fixation_cross_height":15,"fixation_cross_color":"#111","fixation_cross_thickness":1,"border":true,"border_thickness":2,"border_color":"transparent","canvas_width":1920,"canvas_height":1080,"trial_type":"rdk","trial_index":27,"plugin_version":"2.0.0","time_elapsed":81021,"phase":"practice","target_direction":54,"distractor_direction":179},{"rt":1953,"stimulus":"\n        <div class=\"response-container\">\n          <div class=\"response-instruction\">\n            <p>rotate the bar by using the left and right arrow keys.</p>\n            <p>when you are determined, press the Enter key.</p>\n          </div>\n          <div class=\"response-circle\">\n            <div class=\"response-fixation\"></div>\n            <div id=\"bar\" class=\"rotating-bar\"></div>\n          </div>\n        </div>\n      ","response":"Enter","trial_type":"html-keyboard-response","trial_index":28,"plugin_version":"2.1.0","time_elapsed":82974,"random_initial_angle":171,"response_angle_css":228,"response_angle_rdk":222,"angular_error_target":168,"angular_error_distractor":43,"target_direction":54,"target_group":"black","reward_points":0},{"rt":null,"stimulus":"\n          <p style=\"color: #FF3333;\">Your reward: 0 points</p>\n        ","response":null,"trial_type":"html-keyboard-response","trial_index":29,"plugin_version":"2.1.0","time_elapsed":84979},{"rt":null,"stimulus":"<div class=\"fixation\" style=\"font-size: 60px;\">+</div>","response":null,"trial_type":"html-keyboard-response","trial_index":30,"plugin_version":"2.1.0","time_elapsed":85987},{"target_group":"black","target_index":1,"condition_label":"practice","rt":-1,"response":"","correct":false,"choices":"ALL_KEYS","correct_choice":["a"],"trial_duration":2000,"flip_timestamps":[],"response_ends_trial":false,"number_of_apertures":2,"number_of_dots":[79,100],"number_of_sets":1,"coherent_direction":[164,18],"coherence":1,"opposite_coherence":0,"dot_radius":2,"dot_side_length":1,"dot_life":-1,"move_distance":1,"aperture_width":300,"aperture_height":300,"dot_color":["white","black"],"dot_shape":"circle","background_color":"#AAA","RDK_type":3,"aperture_type":2,"reinsert_type":2,"frame_rate":16.741666666666667,"frame_rate_array":[16,16,17,16,17,17,17,16,17,17,16,17,17,17,16,17,17,17,17,17,16,17,17,17,17,17,16,17,16,17,16,17,17,17,16,17,17,16,17,18,16,16,17,17,17,17,16,17,16,17,17,17,17,17,16,17,17,17,16,17,17,17,17,17,17,17,17,17,17,16,17,17,16,17,17,17,17,17,16,17,17,16,16,17,17,17,17,16,17,17,17,17,17,16,17,16,17,17,17,16,17,17,17,17,17,16,17,17,16,17,17,17,17,16,17,16,17,17,17,16],"number_of_frames":120,"aperture_center_x":960,"aperture_center_y":540,"fixation_cross":true,"fixation_cross_width":15,"fixation_cross_height":15,"fixation_cross_color":"#111","fixation_cross_thickness":1,"border":true,"border_thickness":2,"border_color":"transparent","canvas_width":1920,"canvas_height":1080,"trial_type":"rdk","trial_index":31,"plugin_version":"2.0.0","time_elapsed":87988,"phase":"practice","target_direction":18,"distractor_direction":164},{"rt":2594,"stimulus":"\n        <div class=\"response-container\">\n          <div class=\"response-instruction\">\n            <p>rotate the bar by using the left and right arrow keys.</p>\n            <p>when you are determined, press the Enter key.</p>\n          </div>\n          <div class=\"response-circle\">\n            <div class=\"response-fixation\"></div>\n            <div id=\"bar\" class=\"rotating-bar\"></div>\n          </div>\n        </div>\n      ","response":"Enter","trial_type":"html-keyboard-response","trial_index":32,"plugin_version":"2.1.0","time_elapsed":90583,"random_initial_angle":212,"response_angle_css":116,"response_angle_rdk":334,"angular_error_target":-44,"angular_error_distractor":170,"target_direction":18,"target_group":"black","reward_points":1},{"rt":null,"stimulus":"\n          <p style=\"color: #FF3333;\">Your reward: 1 points</p>\n        ","response":null,"trial_type":"html-keyboard-response","trial_index":33,"plugin_version":"2.1.0","time_elapsed":92585},{"rt":null,"stimulus":"<div class=\"fixation\" style=\"font-size: 60px;\">+</div>","response":null,"trial_type":"html-keyboard-response","trial_index":34,"plugin_version":"2.1.0","time_elapsed":93594},{"target_group":"white","target_index":0,"condition_label":"practice","rt":-1,"response":"","correct":false,"choices":"ALL_KEYS","correct_choice":["a"],"trial_duration":2000,"flip_timestamps":[],"response_ends_trial":false,"number_of_apertures":2,"number_of_dots":[100,61],"number_of_sets":1,"coherent_direction":[153,288],"coherence":1,"opposite_coherence":0,"dot_radius":2,"dot_side_length":1,"dot_life":-1,"move_distance":1,"aperture_width":300,"aperture_height":300,"dot_color":["white","black"],"dot_shape":"circle","background_color":"#AAA","RDK_type":3,"aperture_type":2,"reinsert_type":2,"frame_rate":16.633333333333333,"frame_rate_array":[8,16,17,17,17,17,16,17,16,17,16,17,17,16,17,16,16,18,16,17,16,17,17,17,17,17,16,17,16,17,16,17,16,18,16,17,16,17,16,18,16,17,17,17,17,17,17,16,17,17,17,17,17,17,16,17,16,17,17,16,17,17,17,17,17,16,17,16,17,17,17,17,17,16,17,17,17,16,17,17,17,16,17,17,16,17,17,17,17,16,17,17,16,17,17,17,17,17,16,17,16,17,17,16,17,17,16,17,16,17,17,16,17,16,17,17,16,17,16,17],"number_of_frames":120,"aperture_center_x":960,"aperture_center_y":540,"fixation_cross":true,"fixation_cross_width":15,"fixation_cross_height":15,"fixation_cross_color":"#111","fixation_cross_thickness":1,"border":true,"border_thickness":2,"border_color":"transparent","canvas_width":1920,"canvas_height":1080,"trial_type":"rdk","trial_index":35,"plugin_version":"2.0.0","time_elapsed":95599,"phase":"practice","target_direction":153,"distractor_direction":288},{"rt":2878,"stimulus":"\n        <div class=\"response-container\">\n          <div class=\"response-instruction\">\n            <p>rotate the bar by using the left and right arrow keys.</p>\n            <p>when you are determined, press the Enter key.</p>\n          </div>\n          <div class=\"response-circle\">\n            <div class=\"response-fixation\"></div>\n            <div id=\"bar\" class=\"rotating-bar\"></div>\n          </div>\n        </div>\n      ","response":"Enter","trial_type":"html-keyboard-response","trial_index":36,"plugin_version":"2.1.0","time_elapsed":98477,"random_initial_angle":319,"response_angle_css":144,"response_angle_rdk":306,"angular_error_target":153,"angular_error_distractor":18,"target_direction":153,"target_group":"white","reward_points":0},{"rt":null,"stimulus":"\n          <p style=\"color: #FF3333;\">Your reward: 0 points</p>\n        ","response":null,"trial_type":"html-keyboard-response","trial_index":37,"plugin_version":"2.1.0","time_elapsed":100480},{"rt":null,"stimulus":"<div class=\"fixation\" style=\"font-size: 60px;\">+</div>","response":null,"trial_type":"html-keyboard-response","trial_index":38,"plugin_version":"2.1.0","time_elapsed":101481},{"target_group":"black","target_index":1,"condition_label":"practice","rt":-1,"response":"","correct":false,"choices":"ALL_KEYS","correct_choice":["a"],"trial_duration":2000,"flip_timestamps":[],"response_ends_trial":false,"number_of_apertures":2,"number_of_dots":[97,100],"number_of_sets":1,"coherent_direction":[90,289],"coherence":1,"opposite_coherence":0,"dot_radius":2,"dot_side_length":1,"dot_life":-1,"move_distance":1,"aperture_width":300,"aperture_height":300,"dot_color":["white","black"],"dot_shape":"circle","background_color":"#AAA","RDK_type":3,"aperture_type":2,"reinsert_type":2,"frame_rate":16.669421487603305,"frame_rate_array":[4,17,17,17,17,17,17,17,17,17,17,17,17,17,17,17,16,17,16,17,16,17,17,17,17,16,17,17,17,17,17,17,17,17,17,17,17,17,16,16,17,17,16,17,16,18,16,17,16,17,17,17,17,17,16,17,17,16,17,17,16,17,16,17,17,16,17,17,16,17,16,17,17,17,16,17,16,17,17,16,17,17,16,17,17,17,17,16,17,17,17,17,17,17,16,17,17,17,17,17,17,17,17,16,17,17,16,17,16,16,17,17,16,17,17,17,17,17,17,17,17],"number_of_frames":121,"aperture_center_x":960,"aperture_center_y":540,"fixation_cross":true,"fixation_cross_width":15,"fixation_cross_height":15,"fixation_cross_color":"#111","fixation_cross_thickness":1,"border":true,"border_thickness":2,"border_color":"transparent","canvas_width":1920,"canvas_height":1080,"trial_type":"rdk","trial_index":39,"plugin_version":"2.0.0","time_elapsed":103487,"phase":"practice","target_direction":289,"distractor_direction":90},{"rt":2796,"stimulus":"\n        <div class=\"response-container\">\n          <div class=\"response-instruction\">\n            <p>rotate the bar by using the left and right arrow keys.</p>\n            <p>when you are determined, press the Enter key.</p>\n          </div>\n          <div class=\"response-circle\">\n            <div class=\"response-fixation\"></div>\n            <div id=\"bar\" class=\"rotating-bar\"></div>\n          </div>\n        </div>\n      ","response":"Enter","trial_type":"html-keyboard-response","trial_index":40,"plugin_version":"2.1.0","time_elapsed":106284,"random_initial_angle":261,"response_angle_css":353,"response_angle_rdk":97,"angular_error_target":168,"angular_error_distractor":7,"target_direction":289,"target_group":"black","reward_points":0},{"rt":null,"stimulus":"\n          <p style=\"color: #FF3333;\">Your reward: 0 points</p>\n        ","response":null,"trial_type":"html-keyboard-response","trial_index":41,"plugin_version":"2.1.0","time_elapsed":108289},{"rt":null,"stimulus":"<div class=\"fixation\" style=\"font-size: 60px;\">+</div>","response":null,"trial_type":"html-keyboard-response","trial_index":42,"plugin_version":"2.1.0","time_elapsed":109302},{"target_group":"white","target_index":0,"condition_label":"practice","rt":1013,"response":"ArrowRight","correct":false,"choices":"ALL_KEYS","correct_choice":["a"],"trial_duration":2000,"flip_timestamps":[],"response_ends_trial":false,"number_of_apertures":2,"number_of_dots":[100,90],"number_of_sets":1,"coherent_direction":[345,94],"coherence":1,"opposite_coherence":0,"dot_radius":2,"dot_side_length":1,"dot_life":-1,"move_distance":1,"aperture_width":300,"aperture_height":300,"dot_color":["white","black"],"dot_shape":"circle","background_color":"#AAA","RDK_type":3,"aperture_type":2,"reinsert_type":2,"frame_rate":16.766666666666666,"frame_rate_array":[16,16,17,17,17,17,17,18,16,17,17,16,17,17,17,17,17,16,17,17,16,17,17,17,17,17,16,17,17,16,17,17,17,16,17,17,16,17,17,17,16,17,17,17,17,17,16,17,17,17,17,16,17,17,17,17,16,17,17,17,17,16,16,17,16,17,17,18,16,17,17,17,17,17,17,17,16,16,17,17,17,17,17,17,16,17,16,17,17,16,17,17,17,16,18,16,17,16,17,18,16,17,17,16,17,17,16,17,17,17,17,17,16,17,17,16,17,17,17,16],"number_of_frames":120,"aperture_center_x":960,"aperture_center_y":540,"fixation_cross":true,"fixation_cross_width":15,"fixation_cross_height":15,"fixation_cross_color":"#111","fixation_cross_thickness":1,"border":true,"border_thickness":2,"border_color":"transparent","canvas_width":1920,"canvas_height":1080,"trial_type":"rdk","trial_index":43,"plugin_version":"2.0.0","time_elapsed":111303,"phase":"practice","target_direction":345,"distractor_direction":94},{"rt":760,"stimulus":"\n        <div class=\"response-container\">\n          <div class=\"response-instruction\">\n            <p>rotate the bar by using the left and right arrow keys.</p>\n            <p>when you are determined, press the Enter key.</p>\n          </div>\n          <div class=\"response-circle\">\n            <div class=\"response-fixation\"></div>\n            <div id=\"bar\" class=\"rotating-bar\"></div>\n          </div>\n        </div>\n      ","response":"Enter","trial_type":"html-keyboard-response","trial_index":44,"plugin_version":"2.1.0","time_elapsed":112064,"random_initial_angle":94,"response_angle_css":94,"response_angle_rdk":356,"angular_error_target":11,"angular_error_distractor":-98,"target_direction":345,"target_group":"white","reward_points":7},{"rt":null,"stimulus":"\n          <p style=\"color: #00FF00;\">Your reward: 7 points</p>\n        ","response":null,"trial_type":"html-keyboard-response","trial_index":45,"plugin_version":"2.1.0","time_elapsed":114065},{"rt":null,"stimulus":"<div class=\"fixation\" style=\"font-size: 60px;\">+</div>","response":null,"trial_type":"html-keyboard-response","trial_index":46,"plugin_version":"2.1.0","time_elapsed":115078},{"target_group":"black","target_index":1,"condition_label":"practice","rt":-1,"response":"","correct":false,"choices":"ALL_KEYS","correct_choice":["a"],"trial_duration":2000,"flip_timestamps":[],"response_ends_trial":false,"number_of_apertures":2,"number_of_dots":[95,100],"number_of_sets":1,"coherent_direction":[158,57],"coherence":1,"opposite_coherence":0,"dot_radius":2,"dot_side_length":1,"dot_life":-1,"move_distance":1,"aperture_width":300,"aperture_height":300,"dot_color":["white","black"],"dot_shape":"circle","background_color":"#AAA","RDK_type":3,"aperture_type":2,"reinsert_type":2,"frame_rate":16.675,"frame_rate_array":[6,17,17,17,16,17,16,17,17,16,18,16,17,16,17,17,17,17,16,17,17,17,17,17,16,17,17,17,17,16,17,16,17,17,17,16,17,17,16,17,16,16,17,17,17,16,17,17,17,17,16,17,17,17,16,17,17,16,17,16,17,17,17,16,17,17,17,17,17,17,17,17,17,17,16,17,17,17,16,17,17,16,17,16,17,17,16,17,17,17,17,16,17,17,16,17,17,17,17,17,17,17,16,17,17,17,17,17,17,17,17,17,17,17,16,17,17,16,17,17],"number_of_frames":120,"aperture_center_x":960,"aperture_center_y":540,"fixation_cross":true,"fixation_cross_width":15,"fixation_cross_height":15,"fixation_cross_color":"#111","fixation_cross_thickness":1,"border":true,"border_thickness":2,"border_color":"transparent","canvas_width":1920,"canvas_height":1080,"trial_type":"rdk","trial_index":47,"plugin_version":"2.0.0","time_elapsed":117081,"phase":"practice","target_direction":57,"distractor_direction":158},{"rt":3168,"stimulus":"\n        <div class=\"response-container\">\n          <div class=\"response-instruction\">\n            <p>rotate the bar by using the left and right arrow keys.</p>\n            <p>when you are determined, press the Enter key.</p>\n          </div>\n          <div class=\"response-circle\">\n            <div class=\"response-fixation\"></div>\n            <div id=\"bar\" class=\"rotating-bar\"></div>\n          </div>\n        </div>\n      ","response":"Enter","trial_type":"html-keyboard-response","trial_index":48,"plugin_version":"2.1.0","time_elapsed":120249,"random_initial_angle":82,"response_angle_css":287,"response_angle_rdk":163,"angular_error_target":106,"angular_error_distractor":5,"target_direction":57,"target_group":"black","reward_points":0},{"rt":null,"stimulus":"\n          <p style=\"color: #FF3333;\">Your reward: 0 points</p>\n        ","response":null,"trial_type":"html-keyboard-response","trial_index":49,"plugin_version":"2.1.0","time_elapsed":122253},{"rt":null,"stimulus":"<div class=\"fixation\" style=\"font-size: 60px;\">+</div>","response":null,"trial_type":"html-keyboard-response","trial_index":50,"plugin_version":"2.1.0","time_elapsed":123262},{"target_group":"white","target_index":0,"condition_label":"practice","rt":-1,"response":"","correct":false,"choices":"ALL_KEYS","correct_choice":["a"],"trial_duration":2000,"flip_timestamps":[],"response_ends_trial":false,"number_of_apertures":2,"number_of_dots":[100,74],"number_of_sets":1,"coherent_direction":[270,41],"coherence":1,"opposite_coherence":0,"dot_radius":2,"dot_side_length":1,"dot_life":-1,"move_distance":1,"aperture_width":300,"aperture_height":300,"dot_color":["white","black"],"dot_shape":"circle","background_color":"#AAA","RDK_type":3,"aperture_type":2,"reinsert_type":2,"frame_rate":16.677685950413224,"frame_rate_array":[5,17,17,17,17,16,18,16,17,17,17,17,16,17,17,16,17,16,17,16,17,17,17,16,17,16,17,17,17,17,17,17,17,16,17,17,17,17,16,17,16,17,17,16,17,17,17,17,16,17,17,16,17,16,17,16,17,17,18,16,17,17,17,17,16,17,17,16,17,17,17,17,17,17,16,17,17,16,17,17,17,17,17,17,17,17,17,17,17,17,17,16,17,17,17,17,16,17,17,17,17,16,17,17,17,16,16,17,17,17,17,16,17,17,17,17,16,16,17,17,17],"number_of_frames":121,"aperture_center_x":960,"aperture_center_y":540,"fixation_cross":true,"fixation_cross_width":15,"fixation_cross_height":15,"fixation_cross_color":"#111","fixation_cross_thickness":1,"border":true,"border_thickness":2,"border_color":"transparent","canvas_width":1920,"canvas_height":1080,"trial_type":"rdk","trial_index":51,"plugin_version":"2.0.0","time_elapsed":125269,"phase":"practice","target_direction":270,"distractor_direction":41},{"rt":1425,"stimulus":"\n        <div class=\"response-container\">\n          <div class=\"response-instruction\">\n            <p>rotate the bar by using the left and right arrow keys.</p>\n            <p>when you are determined, press the Enter key.</p>\n          </div>\n          <div class=\"response-circle\">\n            <div class=\"response-fixation\"></div>\n            <div id=\"bar\" class=\"rotating-bar\"></div>\n          </div>\n        </div>\n      ","response":"Enter","trial_type":"html-keyboard-response","trial_index":52,"plugin_version":"2.1.0","time_elapsed":126695,"random_initial_angle":108,"response_angle_css":52,"response_angle_rdk":38,"angular_error_target":128,"angular_error_distractor":-3,"target_direction":270,"target_group":"white","reward_points":0},{"rt":null,"stimulus":"\n          <p style=\"color: #FF3333;\">Your reward: 0 points</p>\n        ","response":null,"trial_type":"html-keyboard-response","trial_index":53,"plugin_version":"2.1.0","time_elapsed":128705},{"rt":null,"stimulus":"<div class=\"fixation\" style=\"font-size: 60px;\">+</div>","response":null,"trial_type":"html-keyboard-response","trial_index":54,"plugin_version":"2.1.0","time_elapsed":129707},{"target_group":"white","target_index":0,"condition_label":"practice","rt":-1,"response":"","correct":false,"choices":"ALL_KEYS","correct_choice":["a"],"trial_duration":2000,"flip_timestamps":[],"response_ends_trial":false,"number_of_apertures":2,"number_of_dots":[100,59],"number_of_sets":1,"coherent_direction":[141,273],"coherence":1,"opposite_coherence":0,"dot_radius":2,"dot_side_length":1,"dot_life":-1,"move_distance":1,"aperture_width":300,"aperture_height":300,"dot_color":["white","black"],"dot_shape":"circle","background_color":"#AAA","RDK_type":3,"aperture_type":2,"reinsert_type":2,"frame_rate":16.733333333333334,"frame_rate_array":[10,17,16,17,17,17,17,17,17,17,17,17,16,17,17,17,16,17,18,16,17,17,17,17,16,17,16,17,17,17,17,17,17,17,17,17,17,17,16,17,16,17,17,16,17,17,17,17,17,17,17,16,17,17,16,17,17,17,16,17,17,17,17,16,17,16,17,17,17,17,17,16,17,16,17,16,17,17,16,17,17,17,17,17,16,17,17,17,16,18,16,17,17,16,17,17,16,17,17,16,17,17,17,17,16,17,17,17,17,17,17,17,17,17,16,17,17,16,17,17],"number_of_frames":120,"aperture_center_x":960,"aperture_center_y":540,"fixation_cross":true,"fixation_cross_width":15,"fixation_cross_height":15,"fixation_cross_color":"#111","fixation_cross_thickness":1,"border":true,"border_thickness":2,"border_color":"transparent","canvas_width":1920,"canvas_height":1080,"trial_type":"rdk","trial_index":55,"plugin_version":"2.0.0","time_elapsed":131709,"phase":"practice","target_direction":141,"distractor_direction":273},{"rt":1952,"stimulus":"\n        <div class=\"response-container\">\n          <div class=\"response-instruction\">\n            <p>rotate the bar by using the left and right arrow keys.</p>\n            <p>when you are determined, press the Enter key.</p>\n          </div>\n          <div class=\"response-circle\">\n            <div class=\"response-fixation\"></div>\n            <div id=\"bar\" class=\"rotating-bar\"></div>\n          </div>\n        </div>\n      ","response":"Enter","trial_type":"html-keyboard-response","trial_index":56,"plugin_version":"2.1.0","time_elapsed":133662,"random_initial_angle":230,"response_angle_css":311,"response_angle_rdk":139,"angular_error_target":-2,"angular_error_distractor":-134,"target_direction":141,"target_group":"white","reward_points":9},{"rt":null,"stimulus":"\n          <p style=\"color: #00FF00;\">Your reward: 9 points</p>\n        ","response":null,"trial_type":"html-keyboard-response","trial_index":57,"plugin_version":"2.1.0","time_elapsed":135674},{"rt":null,"stimulus":"<div class=\"fixation\" style=\"font-size: 60px;\">+</div>","response":null,"trial_type":"html-keyboard-response","trial_index":58,"plugin_version":"2.1.0","time_elapsed":136686},{"target_group":"white","target_index":0,"condition_label":"practice","rt":-1,"response":"","correct":false,"choices":"ALL_KEYS","correct_choice":["a"],"trial_duration":2000,"flip_timestamps":[],"response_ends_trial":false,"number_of_apertures":2,"number_of_dots":[100,62],"number_of_sets":1,"coherent_direction":[298,30],"coherence":1,"opposite_coherence":0,"dot_radius":2,"dot_side_length":1,"dot_life":-1,"move_distance":1,"aperture_width":300,"aperture_height":300,"dot_color":["white","black"],"dot_shape":"circle","background_color":"#AAA","RDK_type":3,"aperture_type":2,"reinsert_type":2,"frame_rate":16.85,"frame_rate_array":[14,17,17,16,17,17,17,17,17,17,17,17,17,17,17,16,17,17,17,17,17,17,17,17,17,17,17,17,17,17,17,17,17,17,17,17,17,17,17,17,16,17,16,17,16,17,17,17,17,17,16,17,17,17,17,17,17,16,17,17,17,17,17,17,17,17,16,17,16,17,17,17,17,17,16,17,17,16,17,17,17,17,17,17,17,17,17,17,18,16,17,17,17,17,17,17,16,17,16,17,17,17,17,17,17,17,17,16,17,17,17,16,17,17,17,17,17,17,18,16],"number_of_frames":120,"aperture_center_x":960,"aperture_center_y":540,"fixation_cross":true,"fixation_cross_width":15,"fixation_cross_height":15,"fixation_cross_color":"#111","fixation_cross_thickness":1,"border":true,"border_thickness":2,"border_color":"transparent","canvas_width":1920,"canvas_height":1080,"trial_type":"rdk","trial_index":59,"plugin_version":"2.0.0","time_elapsed":138691,"phase":"practice","target_direction":298,"distractor_direction":30},{"rt":3671,"stimulus":"\n        <div class=\"response-container\">\n          <div class=\"response-instruction\">\n            <p>rotate the bar by using the left and right arrow keys.</p>\n            <p>when you are determined, press the Enter key.</p>\n          </div>\n          <div class=\"response-circle\">\n            <div class=\"response-fixation\"></div>\n            <div id=\"bar\" class=\"rotating-bar\"></div>\n          </div>\n        </div>\n      ","response":"Enter","trial_type":"html-keyboard-response","trial_index":60,"plugin_version":"2.1.0","time_elapsed":142362,"random_initial_angle":239,"response_angle_css":64,"response_angle_rdk":26,"angular_error_target":88,"angular_error_distractor":-4,"target_direction":298,"target_group":"white","reward_points":0},{"rt":null,"stimulus":"\n          <p style=\"color: #FF3333;\">Your reward: 0 points</p>\n        ","response":null,"trial_type":"html-keyboard-response","trial_index":61,"plugin_version":"2.1.0","time_elapsed":144377},{"rt":null,"stimulus":"<div class=\"fixation\" style=\"font-size: 60px;\">+</div>","response":null,"trial_type":"html-keyboard-response","trial_index":62,"plugin_version":"2.1.0","time_elapsed":145385},{"target_group":"white","target_index":0,"condition_label":"practice","rt":-1,"response":"","correct":false,"choices":"ALL_KEYS","correct_choice":["a"],"trial_duration":2000,"flip_timestamps":[],"response_ends_trial":false,"number_of_apertures":2,"number_of_dots":[100,78],"number_of_sets":1,"coherent_direction":[239,97],"coherence":1,"opposite_coherence":0,"dot_radius":2,"dot_side_length":1,"dot_life":-1,"move_distance":1,"aperture_width":300,"aperture_height":300,"dot_color":["white","black"],"dot_shape":"circle","background_color":"#AAA","RDK_type":3,"aperture_type":2,"reinsert_type":2,"frame_rate":16.758333333333333,"frame_rate_array":[14,17,16,17,17,17,17,16,17,16,17,17,17,17,17,17,16,17,17,17,16,17,17,17,17,17,17,16,17,16,17,16,17,17,17,17,17,17,17,17,16,17,16,17,17,17,17,17,16,17,17,17,16,17,17,17,17,17,16,17,17,17,17,16,17,16,17,16,17,17,17,17,17,16,17,17,16,17,17,17,17,16,17,17,16,17,16,17,16,17,17,17,17,17,17,17,17,17,17,16,17,17,17,17,16,17,17,17,17,17,16,17,17,17,17,17,16,17,17,17],"number_of_frames":120,"aperture_center_x":960,"aperture_center_y":540,"fixation_cross":true,"fixation_cross_width":15,"fixation_cross_height":15,"fixation_cross_color":"#111","fixation_cross_thickness":1,"border":true,"border_thickness":2,"border_color":"transparent","canvas_width":1920,"canvas_height":1080,"trial_type":"rdk","trial_index":63,"plugin_version":"2.0.0","time_elapsed":147397,"phase":"practice","target_direction":239,"distractor_direction":97},{"rt":3130,"stimulus":"\n        <div class=\"response-container\">\n          <div class=\"response-instruction\">\n            <p>rotate the bar by using the left and right arrow keys.</p>\n            <p>when you are determined, press the Enter key.</p>\n          </div>\n          <div class=\"response-circle\">\n            <div class=\"response-fixation\"></div>\n            <div id=\"bar\" class=\"rotating-bar\"></div>\n          </div>\n        </div>\n      ","response":"Enter","trial_type":"html-keyboard-response","trial_index":64,"plugin_version":"2.1.0","time_elapsed":150528,"random_initial_angle":141,"response_angle_css":-24,"response_angle_rdk":114,"angular_error_target":-125,"angular_error_distractor":17,"target_direction":239,"target_group":"white","reward_points":0},{"rt":null,"stimulus":"\n          <p style=\"color: #FF3333;\">Your reward: 0 points</p>\n        ","response":null,"trial_type":"html-keyboard-response","trial_index":65,"plugin_version":"2.1.0","time_elapsed":152542},{"rt":1034,"stimulus":"\n        <div class=\"instructions-container\">\n          <h2>End of Practice</h2>\n          <p>You have completed the practice trials.</p>\n          <p>Press <strong>Enter</strong> key to begin the main experiment.</p>\n        </div>\n      ","response":"Enter","trial_type":"html-keyboard-response","trial_index":66,"plugin_version":"2.1.0","time_elapsed":153576},{"rt":null,"stimulus":"<div class=\"fixation\" style=\"font-size: 60px;\">+</div>","response":null,"trial_type":"html-keyboard-response","trial_index":67,"plugin_version":"2.1.0","time_elapsed":154581},{"phase":"learning-awareness","target_group":"black","condition_label":"B_H_vs_W_L_rep9","target_direction":178,"distractor_direction":302,"session_rotation":86,"rt":-1,"response":"","correct":false,"choices":"ALL_KEYS","correct_choice":["a"],"trial_duration":2000,"flip_timestamps":[],"response_ends_trial":false,"number_of_apertures":200,"number_of_dots":[1,1,1,1,1,1,1,1,1,1,1,1,1,1,1,1,1,1,1,1,1,1,1,1,1,1,1,1,1,1,1,1,1,1,1,1,1,1,1,1,1,1,1,1,1,1,1,1,1,1,1,1,1,1,1,1,1,1,1,1,1,1,1,1,1,1,1,1,1,1,1,1,1,1,1,1,1,1,1,1,1,1,1,1,1,1,1,1,1,1,1,1,1,1,1,1,1,1,1,1,1,1,1,1,1,1,1,1,1,1,1,1,1,1,1,1,1,1,1,1,1,1,1,1,1,1,1,1,1,1,1,1,1,1,1,1,1,1,1,1,1,1,1,1,1,1,1,1,1,1,1,1,1,1,1,1,1,1,1,1,1,1,1,1,1,1,1,1,1,1,1,1,1,1,1,1,1,1,1,1,1,1,1,1,1,1,1,1,1,1,1,1,1,1,1,1,1,1,1,1],"number_of_sets":1,"coherent_direction":[178,178,178,302,302,302,178,178,302,178,178,178,178,302,178,302,178,302,178,302,178,302,302,302,302,178,178,302,178,302,302,302,302,178,178,178,302,178,302,302,302,302,178,178,178,302,302,178,178,178,302,302,178,178,302,178,302,302,178,178,302,302,302,302,302,302,302,178,302,302,178,178,302,302,178,302,178,302,302,302,302,302,178,302,302,302,178,178,302,302,178,178,302,178,178,178,178,178,178,178,302,178,302,178,178,302,178,178,302,302,178,302,178,302,178,178,302,302,178,302,302,178,302,302,178,302,302,302,302,302,178,302,178,302,302,178,178,302,178,178,178,302,302,302,302,302,302,178,178,178,302,178,178,302,178,302,178,302,178,302,302,178,302,178,302,302,178,178,302,302,178,178,302,178,302,302,178,302,302,302,178,302,178,178,178,178,302,302,178,178,178,178,178,178,178,178,178,178,178,178],"coherence":1,"opposite_coherence":0,"dot_radius":2,"dot_side_length":1,"dot_life":-1,"move_distance":1,"aperture_width":300,"aperture_height":300,"dot_color":["black","black","black","white","white","white","black","black","white","black","black","black","black","white","black","white","black","white","black","white","black","white","white","white","white","black","black","white","black","white","white","white","white","black","black","black","white","black","white","white","white","white","black","black","black","white","white","black","black","black","white","white","black","black","white","black","white","white","black","black","white","white","white","white","white","white","white","black","white","white","black","black","white","white","black","white","black","white","white","white","white","white","black","white","white","white","black","black","white","white","black","black","white","black","black","black","black","black","black","black","white","black","white","black","black","white","black","black","white","white","black","white","black","white","black","black","white","white","black","white","white","black","white","white","black","white","white","white","white","white","black","white","black","white","white","black","black","white","black","black","black","white","white","white","white","white","white","black","black","black","white","black","black","white","black","white","black","white","black","white","white","black","white","black","white","white","black","black","white","white","black","black","white","black","white","white","black","white","white","white","black","white","black","black","black","black","white","white","black","black","black","black","black","black","black","black","black","black","black","black"],"dot_shape":"circle","background_color":"#AAA","RDK_type":3,"aperture_type":2,"reinsert_type":2,"frame_rate":16.60330578512397,"frame_rate_array":[1,16,17,17,17,17,16,17,16,17,17,17,16,16,17,17,17,17,16,17,16,17,16,17,16,18,16,17,16,17,17,17,17,17,17,16,17,18,16,17,17,17,17,17,17,17,17,17,17,16,16,17,17,17,16,17,16,18,16,17,17,17,17,18,16,18,16,17,16,17,17,17,17,17,17,17,16,17,17,17,16,16,17,16,16,17,17,17,18,16,16,16,17,17,16,17,17,16,16,16,17,16,18,16,17,17,16,17,16,17,17,17,16,17,17,17,16,17,16,17,18],"number_of_frames":121,"aperture_center_x":960,"aperture_center_y":540,"fixation_cross":true,"fixation_cross_width":15,"fixation_cross_height":15,"fixation_cross_color":"#111","fixation_cross_thickness":1,"border":true,"border_thickness":2,"border_color":"transparent","canvas_width":1920,"canvas_height":1080,"trial_type":"rdk","trial_index":68,"plugin_version":"2.0.0","time_elapsed":156586},{"rt":1368,"stimulus":"\n        <div class=\"response-container\">\n          <div class=\"response-instruction\">\n            <p>rotate the bar by using the left and right arrow keys.</p>\n            <p>when you are determined, press the Enter key.</p>\n          </div>\n          <div class=\"response-circle\">\n            <div class=\"response-fixation\"></div>\n            <div id=\"bar\" class=\"rotating-bar\"></div>\n          </div>\n        </div>\n      ","response":"Enter","trial_type":"html-keyboard-response","trial_index":69,"plugin_version":"2.1.0","time_elapsed":157954,"random_initial_angle":101,"response_angle_css":141,"response_angle_rdk":309,"angular_error_target":131,"angular_error_distractor":7,"target_direction":178,"target_group":"black","reward_points":0},{"rt":null,"stimulus":"\n          <p style=\"color: #FF3333;\">Your reward: 0 points</p>\n        ","response":null,"trial_type":"html-keyboard-response","trial_index":70,"plugin_version":"2.1.0","time_elapsed":159966},{"rt":null,"stimulus":"<div class=\"fixation\" style=\"font-size: 60px;\">+</div>","response":null,"trial_type":"html-keyboard-response","trial_index":71,"plugin_version":"2.1.0","time_elapsed":160979},{"phase":"learning-awareness","target_group":"black","condition_label":"B_H_vs_W_L_rep7","target_direction":186,"distractor_direction":302,"session_rotation":86,"rt":-1,"response":"","correct":false,"choices":"ALL_KEYS","correct_choice":["a"],"trial_duration":2000,"flip_timestamps":[],"response_ends_trial":false,"number_of_apertures":200,"number_of_dots":[1,1,1,1,1,1,1,1,1,1,1,1,1,1,1,1,1,1,1,1,1,1,1,1,1,1,1,1,1,1,1,1,1,1,1,1,1,1,1,1,1,1,1,1,1,1,1,1,1,1,1,1,1,1,1,1,1,1,1,1,1,1,1,1,1,1,1,1,1,1,1,1,1,1,1,1,1,1,1,1,1,1,1,1,1,1,1,1,1,1,1,1,1,1,1,1,1,1,1,1,1,1,1,1,1,1,1,1,1,1,1,1,1,1,1,1,1,1,1,1,1,1,1,1,1,1,1,1,1,1,1,1,1,1,1,1,1,1,1,1,1,1,1,1,1,1,1,1,1,1,1,1,1,1,1,1,1,1,1,1,1,1,1,1,1,1,1,1,1,1,1,1,1,1,1,1,1,1,1,1,1,1,1,1,1,1,1,1,1,1,1,1,1,1,1,1,1,1,1,1],"number_of_sets":1,"coherent_direction":[186,302,302,302,302,186,186,302,302,186,186,302,186,186,186,186,186,302,186,302,186,302,186,302,186,302,186,186,302,186,302,186,186,302,186,302,186,186,186,186,302,302,302,302,302,302,186,302,186,302,302,186,186,186,186,302,302,186,302,302,186,186,302,186,186,186,302,186,186,186,302,302,302,186,186,302,186,302,302,186,302,186,302,302,302,186,186,186,302,302,302,302,186,302,302,302,186,302,186,186,302,302,302,302,186,186,186,186,186,186,302,186,186,302,186,186,302,186,302,302,302,302,302,302,186,186,302,186,302,186,186,186,302,302,186,302,302,302,302,186,186,186,302,302,186,302,302,302,186,186,186,302,186,302,302,186,186,186,302,186,302,302,186,302,186,302,302,186,302,186,302,302,302,186,186,302,302,302,186,186,302,186,302,302,186,186,302,186,186,302,186,186,186,302,186,302,186,302,302,186],"coherence":1,"opposite_coherence":0,"dot_radius":2,"dot_side_length":1,"dot_life":-1,"move_distance":1,"aperture_width":300,"aperture_height":300,"dot_color":["black","white","white","white","white","black","black","white","white","black","black","white","black","black","black","black","black","white","black","white","black","white","black","white","black","white","black","black","white","black","white","black","black","white","black","white","black","black","black","black","white","white","white","white","white","white","black","white","black","white","white","black","black","black","black","white","white","black","white","white","black","black","white","black","black","black","white","black","black","black","white","white","white","black","black","white","black","white","white","black","white","black","white","white","white","black","black","black","white","white","white","white","black","white","white","white","black","white","black","black","white","white","white","white","black","black","black","black","black","black","white","black","black","white","black","black","white","black","white","white","white","white","white","white","black","black","white","black","white","black","black","black","white","white","black","white","white","white","white","black","black","black","white","white","black","white","white","white","black","black","black","white","black","white","white","black","black","black","white","black","white","white","black","white","black","white","white","black","white","black","white","white","white","black","black","white","white","white","black","black","white","black","white","white","black","black","white","black","black","white","black","black","black","white","black","white","black","white","white","black"],"dot_shape":"circle","background_color":"#AAA","RDK_type":3,"aperture_type":2,"reinsert_type":2,"frame_rate":16.611570247933884,"frame_rate_array":[2,17,18,16,17,17,17,17,17,16,17,17,17,16,17,17,17,17,17,16,17,17,17,17,16,17,17,16,17,16,17,17,18,16,16,17,17,16,17,16,17,16,17,17,17,16,17,17,17,16,17,17,16,16,17,17,16,16,17,16,17,17,18,17,16,17,18,16,16,17,17,17,16,17,17,17,16,16,17,17,17,17,17,16,16,16,17,17,16,17,18,16,17,16,17,17,18,17,17,16,17,17,17,16,17,17,17,16,16,17,17,17,16,17,16,17,16,17,17,17,17],"number_of_frames":121,"aperture_center_x":960,"aperture_center_y":540,"fixation_cross":true,"fixation_cross_width":15,"fixation_cross_height":15,"fixation_cross_color":"#111","fixation_cross_thickness":1,"border":true,"border_thickness":2,"border_color":"transparent","canvas_width":1920,"canvas_height":1080,"trial_type":"rdk","trial_index":72,"plugin_version":"2.0.0","time_elapsed":162984},{"rt":1102,"stimulus":"\n        <div class=\"response-container\">\n          <div class=\"response-instruction\">\n            <p>rotate the bar by using the left and right arrow keys.</p>\n            <p>when you are determined, press the Enter key.</p>\n          </div>\n          <div class=\"response-circle\">\n            <div class=\"response-fixation\"></div>\n            <div id=\"bar\" class=\"rotating-bar\"></div>\n          </div>\n        </div>\n      ","response":"Enter","trial_type":"html-keyboard-response","trial_index":73,"plugin_version":"2.1.0","time_elapsed":164086,"random_initial_angle":124,"response_angle_css":127,"response_angle_rdk":323,"angular_error_target":137,"angular_error_distractor":21,"target_direction":186,"target_group":"black","reward_points":0},{"rt":null,"stimulus":"\n          <p style=\"color: #FF3333;\">Your reward: 0 points</p>\n        ","response":null,"trial_type":"html-keyboard-response","trial_index":74,"plugin_version":"2.1.0","time_elapsed":166098},{"rt":null,"stimulus":"<div class=\"fixation\" style=\"font-size: 60px;\">+</div>","response":null,"trial_type":"html-keyboard-response","trial_index":75,"plugin_version":"2.1.0","time_elapsed":167112},{"phase":"learning-awareness","target_group":"black","condition_label":"B_H_vs_W_L_rep15","target_direction":186,"distractor_direction":286,"session_rotation":86,"rt":-1,"response":"","correct":false,"choices":"ALL_KEYS","correct_choice":["a"],"trial_duration":2000,"flip_timestamps":[],"response_ends_trial":false,"number_of_apertures":200,"number_of_dots":[1,1,1,1,1,1,1,1,1,1,1,1,1,1,1,1,1,1,1,1,1,1,1,1,1,1,1,1,1,1,1,1,1,1,1,1,1,1,1,1,1,1,1,1,1,1,1,1,1,1,1,1,1,1,1,1,1,1,1,1,1,1,1,1,1,1,1,1,1,1,1,1,1,1,1,1,1,1,1,1,1,1,1,1,1,1,1,1,1,1,1,1,1,1,1,1,1,1,1,1,1,1,1,1,1,1,1,1,1,1,1,1,1,1,1,1,1,1,1,1,1,1,1,1,1,1,1,1,1,1,1,1,1,1,1,1,1,1,1,1,1,1,1,1,1,1,1,1,1,1,1,1,1,1,1,1,1,1,1,1,1,1,1,1,1,1,1,1,1,1,1,1,1,1,1,1,1,1,1,1,1,1,1,1,1,1,1,1,1,1,1,1,1,1,1,1,1,1,1,1],"number_of_sets":1,"coherent_direction":[186,186,286,186,186,186,186,286,186,186,286,186,186,186,286,186,186,286,286,286,286,186,286,286,186,186,286,286,286,286,286,286,286,186,286,186,186,286,286,186,286,286,286,286,186,186,186,286,286,186,186,186,186,286,286,186,286,286,286,186,186,286,186,186,286,186,186,186,286,186,186,186,286,186,286,186,286,186,186,186,286,286,286,186,186,186,186,286,286,186,186,286,286,286,286,286,286,286,186,286,286,186,186,186,286,286,286,186,186,286,186,286,286,286,186,286,186,186,186,286,286,186,286,186,286,186,186,186,186,286,286,186,186,186,286,286,186,286,286,186,186,186,286,186,186,186,186,186,286,186,286,286,186,286,286,186,186,286,286,186,186,286,186,286,186,186,286,286,286,186,286,286,286,186,186,286,186,286,286,286,286,286,286,286,186,286,286,186,286,186,186,286,186,186,186,286,186,286,286,186],"coherence":1,"opposite_coherence":0,"dot_radius":2,"dot_side_length":1,"dot_life":-1,"move_distance":1,"aperture_width":300,"aperture_height":300,"dot_color":["black","black","white","black","black","black","black","white","black","black","white","black","black","black","white","black","black","white","white","white","white","black","white","white","black","black","white","white","white","white","white","white","white","black","white","black","black","white","white","black","white","white","white","white","black","black","black","white","white","black","black","black","black","white","white","black","white","white","white","black","black","white","black","black","white","black","black","black","white","black","black","black","white","black","white","black","white","black","black","black","white","white","white","black","black","black","black","white","white","black","black","white","white","white","white","white","white","white","black","white","white","black","black","black","white","white","white","black","black","white","black","white","white","white","black","white","black","black","black","white","white","black","white","black","white","black","black","black","black","white","white","black","black","black","white","white","black","white","white","black","black","black","white","black","black","black","black","black","white","black","white","white","black","white","white","black","black","white","white","black","black","white","black","white","black","black","white","white","white","black","white","white","white","black","black","white","black","white","white","white","white","white","white","white","black","white","white","black","white","black","black","white","black","black","black","white","black","white","white","black"],"dot_shape":"circle","background_color":"#AAA","RDK_type":3,"aperture_type":2,"reinsert_type":2,"frame_rate":16.611570247933884,"frame_rate_array":[2,17,18,17,17,16,16,17,16,18,17,16,17,16,18,16,17,17,16,17,17,16,17,18,15,17,17,17,16,17,18,17,16,16,17,17,18,16,16,16,17,17,17,17,17,17,16,17,16,17,17,17,17,16,17,17,16,17,17,17,17,16,17,16,17,17,16,16,17,17,16,17,18,15,18,16,17,17,16,17,17,17,17,18,15,16,18,15,17,17,17,17,17,17,17,18,17,15,17,17,16,17,16,17,17,16,17,17,16,16,17,16,17,17,17,16,17,17,17,17,17],"number_of_frames":121,"aperture_center_x":960,"aperture_center_y":540,"fixation_cross":true,"fixation_cross_width":15,"fixation_cross_height":15,"fixation_cross_color":"#111","fixation_cross_thickness":1,"border":true,"border_thickness":2,"border_color":"transparent","canvas_width":1920,"canvas_height":1080,"trial_type":"rdk","trial_index":76,"plugin_version":"2.0.0","time_elapsed":169118},{"rt":1200,"stimulus":"\n        <div class=\"response-container\">\n          <div class=\"response-instruction\">\n            <p>rotate the bar by using the left and right arrow keys.</p>\n            <p>when you are determined, press the Enter key.</p>\n          </div>\n          <div class=\"response-circle\">\n            <div class=\"response-fixation\"></div>\n            <div id=\"bar\" class=\"rotating-bar\"></div>\n          </div>\n        </div>\n      ","response":"Enter","trial_type":"html-keyboard-response","trial_index":77,"plugin_version":"2.1.0","time_elapsed":170318,"random_initial_angle":304,"response_angle_css":291,"response_angle_rdk":159,"angular_error_target":-27,"angular_error_distractor":-127,"target_direction":186,"target_group":"black","reward_points":4},{"rt":null,"stimulus":"\n          <p style=\"color: #00FF00;\">Your reward: 4 points</p>\n        ","response":null,"trial_type":"html-keyboard-response","trial_index":78,"plugin_version":"2.1.0","time_elapsed":172325},{"rt":null,"stimulus":"<div class=\"fixation\" style=\"font-size: 60px;\">+</div>","response":null,"trial_type":"html-keyboard-response","trial_index":79,"plugin_version":"2.1.0","time_elapsed":173334},{"phase":"learning-awareness","target_group":"black","condition_label":"B_H_vs_W_L_rep21","target_direction":181,"distractor_direction":279,"session_rotation":86,"rt":-1,"response":"","correct":false,"choices":"ALL_KEYS","correct_choice":["a"],"trial_duration":2000,"flip_timestamps":[],"response_ends_trial":false,"number_of_apertures":200,"number_of_dots":[1,1,1,1,1,1,1,1,1,1,1,1,1,1,1,1,1,1,1,1,1,1,1,1,1,1,1,1,1,1,1,1,1,1,1,1,1,1,1,1,1,1,1,1,1,1,1,1,1,1,1,1,1,1,1,1,1,1,1,1,1,1,1,1,1,1,1,1,1,1,1,1,1,1,1,1,1,1,1,1,1,1,1,1,1,1,1,1,1,1,1,1,1,1,1,1,1,1,1,1,1,1,1,1,1,1,1,1,1,1,1,1,1,1,1,1,1,1,1,1,1,1,1,1,1,1,1,1,1,1,1,1,1,1,1,1,1,1,1,1,1,1,1,1,1,1,1,1,1,1,1,1,1,1,1,1,1,1,1,1,1,1,1,1,1,1,1,1,1,1,1,1,1,1,1,1,1,1,1,1,1,1,1,1,1,1,1,1,1,1,1,1,1,1,1,1,1,1,1,1],"number_of_sets":1,"coherent_direction":[279,181,279,279,279,181,279,181,181,279,279,279,279,181,181,279,279,279,181,181,279,181,181,279,181,181,279,279,279,279,279,279,279,279,181,181,181,181,279,181,181,181,181,279,279,181,279,279,279,279,279,181,279,181,181,181,279,279,279,181,181,181,279,279,279,279,279,181,181,181,279,181,279,181,279,279,181,279,181,181,181,181,279,279,279,279,279,181,279,279,181,279,181,181,279,279,279,181,279,279,181,181,181,181,181,279,181,279,181,279,181,181,181,279,181,181,181,181,181,279,181,279,279,181,279,181,279,279,181,181,181,279,279,181,279,279,279,181,279,181,181,181,181,279,279,181,181,181,181,181,181,279,181,181,279,181,181,181,181,181,181,279,279,181,279,279,181,181,279,279,181,181,279,279,181,181,181,279,279,181,181,279,181,279,279,279,279,279,181,181,279,181,181,279,279,181,279,279,279,279],"coherence":1,"opposite_coherence":0,"dot_radius":2,"dot_side_length":1,"dot_life":-1,"move_distance":1,"aperture_width":300,"aperture_height":300,"dot_color":["white","black","white","white","white","black","white","black","black","white","white","white","white","black","black","white","white","white","black","black","white","black","black","white","black","black","white","white","white","white","white","white","white","white","black","black","black","black","white","black","black","black","black","white","white","black","white","white","white","white","white","black","white","black","black","black","white","white","white","black","black","black","white","white","white","white","white","black","black","black","white","black","white","black","white","white","black","white","black","black","black","black","white","white","white","white","white","black","white","white","black","white","black","black","white","white","white","black","white","white","black","black","black","black","black","white","black","white","black","white","black","black","black","white","black","black","black","black","black","white","black","white","white","black","white","black","white","white","black","black","black","white","white","black","white","white","white","black","white","black","black","black","black","white","white","black","black","black","black","black","black","white","black","black","white","black","black","black","black","black","black","white","white","black","white","white","black","black","white","white","black","black","white","white","black","black","black","white","white","black","black","white","black","white","white","white","white","white","black","black","white","black","black","white","white","black","white","white","white","white"],"dot_shape":"circle","background_color":"#AAA","RDK_type":3,"aperture_type":2,"reinsert_type":2,"frame_rate":16.675,"frame_rate_array":[14,17,16,17,18,16,17,16,16,17,17,17,17,16,16,18,16,16,17,17,16,17,17,17,16,17,18,16,17,17,17,16,17,17,17,15,17,17,18,16,17,16,17,17,17,16,17,17,17,16,18,16,18,16,17,16,18,15,18,16,17,17,16,17,17,16,17,18,15,17,16,17,18,15,17,17,16,17,17,16,17,16,17,17,17,17,16,17,17,17,16,16,17,17,16,18,16,17,16,17,17,17,17,16,17,17,16,17,17,16,17,17,16,17,16,17,17,17,16,16],"number_of_frames":120,"aperture_center_x":960,"aperture_center_y":540,"fixation_cross":true,"fixation_cross_width":15,"fixation_cross_height":15,"fixation_cross_color":"#111","fixation_cross_thickness":1,"border":true,"border_thickness":2,"border_color":"transparent","canvas_width":1920,"canvas_height":1080,"trial_type":"rdk","trial_index":80,"plugin_version":"2.0.0","time_elapsed":175340},{"rt":1554,"stimulus":"\n        <div class=\"response-container\">\n          <div class=\"response-instruction\">\n            <p>rotate the bar by using the left and right arrow keys.</p>\n            <p>when you are determined, press the Enter key.</p>\n          </div>\n          <div class=\"response-circle\">\n            <div class=\"response-fixation\"></div>\n            <div id=\"bar\" class=\"rotating-bar\"></div>\n          </div>\n        </div>\n      ","response":"Enter","trial_type":"html-keyboard-response","trial_index":81,"plugin_version":"2.1.0","time_elapsed":176895,"random_initial_angle":82,"response_angle_css":137,"response_angle_rdk":313,"angular_error_target":132,"angular_error_distractor":34,"target_direction":181,"target_group":"black","reward_points":0},{"rt":null,"stimulus":"\n          <p style=\"color: #FF3333;\">Your reward: 0 points</p>\n        ","response":null,"trial_type":"html-keyboard-response","trial_index":82,"plugin_version":"2.1.0","time_elapsed":178906},{"rt":null,"stimulus":"<div class=\"fixation\" style=\"font-size: 60px;\">+</div>","response":null,"trial_type":"html-keyboard-response","trial_index":83,"plugin_version":"2.1.0","time_elapsed":179917},{"phase":"learning-awareness","target_group":"white","condition_label":"W_H_vs_B_L_rep1","target_direction":116,"distractor_direction":24,"session_rotation":86,"rt":-1,"response":"","correct":false,"choices":"ALL_KEYS","correct_choice":["a"],"trial_duration":2000,"flip_timestamps":[],"response_ends_trial":false,"number_of_apertures":200,"number_of_dots":[1,1,1,1,1,1,1,1,1,1,1,1,1,1,1,1,1,1,1,1,1,1,1,1,1,1,1,1,1,1,1,1,1,1,1,1,1,1,1,1,1,1,1,1,1,1,1,1,1,1,1,1,1,1,1,1,1,1,1,1,1,1,1,1,1,1,1,1,1,1,1,1,1,1,1,1,1,1,1,1,1,1,1,1,1,1,1,1,1,1,1,1,1,1,1,1,1,1,1,1,1,1,1,1,1,1,1,1,1,1,1,1,1,1,1,1,1,1,1,1,1,1,1,1,1,1,1,1,1,1,1,1,1,1,1,1,1,1,1,1,1,1,1,1,1,1,1,1,1,1,1,1,1,1,1,1,1,1,1,1,1,1,1,1,1,1,1,1,1,1,1,1,1,1,1,1,1,1,1,1,1,1,1,1,1,1,1,1,1,1,1,1,1,1,1,1,1,1,1,1],"number_of_sets":1,"coherent_direction":[116,24,24,24,116,116,116,116,24,24,116,116,24,24,24,116,116,116,24,24,24,116,116,24,24,116,116,116,116,24,116,24,116,116,24,24,116,24,116,116,24,24,116,116,116,24,116,116,24,24,116,24,116,116,116,116,24,116,24,24,24,24,116,116,116,24,24,116,116,116,116,24,24,116,24,24,116,24,116,116,116,24,24,116,24,24,24,116,24,24,24,24,116,24,24,24,24,24,116,116,116,116,116,24,24,24,24,116,24,116,116,116,24,116,116,24,116,116,116,24,24,116,116,24,116,24,116,116,24,116,116,24,24,24,24,24,24,24,24,116,116,24,116,116,116,116,116,116,24,116,24,24,116,24,116,24,116,24,24,24,24,116,24,24,24,24,116,24,116,24,24,116,116,116,24,116,24,116,116,24,116,116,116,116,24,116,24,116,24,24,24,116,24,116,24,116,24,24,116,24],"coherence":1,"opposite_coherence":0,"dot_radius":2,"dot_side_length":1,"dot_life":-1,"move_distance":1,"aperture_width":300,"aperture_height":300,"dot_color":["white","black","black","black","white","white","white","white","black","black","white","white","black","black","black","white","white","white","black","black","black","white","white","black","black","white","white","white","white","black","white","black","white","white","black","black","white","black","white","white","black","black","white","white","white","black","white","white","black","black","white","black","white","white","white","white","black","white","black","black","black","black","white","white","white","black","black","white","white","white","white","black","black","white","black","black","white","black","white","white","white","black","black","white","black","black","black","white","black","black","black","black","white","black","black","black","black","black","white","white","white","white","white","black","black","black","black","white","black","white","white","white","black","white","white","black","white","white","white","black","black","white","white","black","white","black","white","white","black","white","white","black","black","black","black","black","black","black","black","white","white","black","white","white","white","white","white","white","black","white","black","black","white","black","white","black","white","black","black","black","black","white","black","black","black","black","white","black","white","black","black","white","white","white","black","white","black","white","white","black","white","white","white","white","black","white","black","white","black","black","black","white","black","white","black","white","black","black","white","black"],"dot_shape":"circle","background_color":"#AAA","RDK_type":3,"aperture_type":2,"reinsert_type":2,"frame_rate":16.71900826446281,"frame_rate_array":[15,16,17,17,17,16,17,18,17,16,17,16,17,16,17,18,17,16,17,17,17,16,17,17,18,16,17,16,17,17,17,17,17,17,16,17,17,16,17,16,18,16,17,16,17,17,17,16,17,17,16,17,17,18,16,17,17,16,17,16,17,16,17,17,17,16,17,16,17,16,17,17,17,17,17,16,16,17,16,17,17,16,18,16,16,17,17,17,17,17,16,17,17,17,16,17,17,17,17,16,16,17,16,16,18,17,16,16,18,16,17,16,18,16,17,17,17,17,17,16,17],"number_of_frames":121,"aperture_center_x":960,"aperture_center_y":540,"fixation_cross":true,"fixation_cross_width":15,"fixation_cross_height":15,"fixation_cross_color":"#111","fixation_cross_thickness":1,"border":true,"border_thickness":2,"border_color":"transparent","canvas_width":1920,"canvas_height":1080,"trial_type":"rdk","trial_index":84,"plugin_version":"2.0.0","time_elapsed":181933},{"rt":717,"stimulus":"\n        <div class=\"response-container\">\n          <div class=\"response-instruction\">\n            <p>rotate the bar by using the left and right arrow keys.</p>\n            <p>when you are determined, press the Enter key.</p>\n          </div>\n          <div class=\"response-circle\">\n            <div class=\"response-fixation\"></div>\n            <div id=\"bar\" class=\"rotating-bar\"></div>\n          </div>\n        </div>\n      ","response":"Enter","trial_type":"html-keyboard-response","trial_index":85,"plugin_version":"2.1.0","time_elapsed":182651,"random_initial_angle":72,"response_angle_css":48,"response_angle_rdk":42,"angular_error_target":-74,"angular_error_distractor":18,"target_direction":116,"target_group":"white","reward_points":0},{"rt":null,"stimulus":"\n          <p style=\"color: #FF3333;\">Your reward: 0 points</p>\n        ","response":null,"trial_type":"html-keyboard-response","trial_index":86,"plugin_version":"2.1.0","time_elapsed":184662},{"rt":null,"stimulus":"<div class=\"fixation\" style=\"font-size: 60px;\">+</div>","response":null,"trial_type":"html-keyboard-response","trial_index":87,"plugin_version":"2.1.0","time_elapsed":185676},{"phase":"learning-awareness","target_group":"black","condition_label":"B_H_vs_W_L_rep10","target_direction":192,"distractor_direction":283,"session_rotation":86,"rt":-1,"response":"","correct":false,"choices":"ALL_KEYS","correct_choice":["a"],"trial_duration":2000,"flip_timestamps":[],"response_ends_trial":false,"number_of_apertures":200,"number_of_dots":[1,1,1,1,1,1,1,1,1,1,1,1,1,1,1,1,1,1,1,1,1,1,1,1,1,1,1,1,1,1,1,1,1,1,1,1,1,1,1,1,1,1,1,1,1,1,1,1,1,1,1,1,1,1,1,1,1,1,1,1,1,1,1,1,1,1,1,1,1,1,1,1,1,1,1,1,1,1,1,1,1,1,1,1,1,1,1,1,1,1,1,1,1,1,1,1,1,1,1,1,1,1,1,1,1,1,1,1,1,1,1,1,1,1,1,1,1,1,1,1,1,1,1,1,1,1,1,1,1,1,1,1,1,1,1,1,1,1,1,1,1,1,1,1,1,1,1,1,1,1,1,1,1,1,1,1,1,1,1,1,1,1,1,1,1,1,1,1,1,1,1,1,1,1,1,1,1,1,1,1,1,1,1,1,1,1,1,1,1,1,1,1,1,1,1,1,1,1,1,1],"number_of_sets":1,"coherent_direction":[283,192,283,283,283,192,283,283,283,283,192,192,192,283,283,283,192,192,283,192,283,192,283,283,192,192,192,192,283,283,192,283,283,192,192,192,192,283,192,192,283,283,283,192,283,192,192,192,283,192,192,283,283,283,192,283,283,192,192,283,192,192,283,283,192,192,283,192,192,192,192,283,192,192,283,283,192,283,192,192,283,192,283,192,192,192,283,192,283,283,283,283,192,192,192,283,192,283,283,192,192,192,283,283,283,283,283,192,283,283,283,283,192,192,283,283,283,192,283,283,283,192,192,192,192,192,192,192,192,283,283,283,192,192,283,283,192,283,283,283,283,283,283,192,283,192,192,192,283,192,192,283,283,192,192,192,192,283,283,192,283,283,192,283,192,283,283,283,283,283,283,283,283,192,192,192,283,192,283,192,192,192,283,192,192,283,192,283,192,192,283,283,192,283,192,192,192,283,192,192],"coherence":1,"opposite_coherence":0,"dot_radius":2,"dot_side_length":1,"dot_life":-1,"move_distance":1,"aperture_width":300,"aperture_height":300,"dot_color":["white","black","white","white","white","black","white","white","white","white","black","black","black","white","white","white","black","black","white","black","white","black","white","white","black","black","black","black","white","white","black","white","white","black","black","black","black","white","black","black","white","white","white","black","white","black","black","black","white","black","black","white","white","white","black","white","white","black","black","white","black","black","white","white","black","black","white","black","black","black","black","white","black","black","white","white","black","white","black","black","white","black","white","black","black","black","white","black","white","white","white","white","black","black","black","white","black","white","white","black","black","black","white","white","white","white","white","black","white","white","white","white","black","black","white","white","white","black","white","white","white","black","black","black","black","black","black","black","black","white","white","white","black","black","white","white","black","white","white","white","white","white","white","black","white","black","black","black","white","black","black","white","white","black","black","black","black","white","white","black","white","white","black","white","black","white","white","white","white","white","white","white","white","black","black","black","white","black","white","black","black","black","white","black","black","white","black","white","black","black","white","white","black","white","black","black","black","white","black","black"],"dot_shape":"circle","background_color":"#AAA","RDK_type":3,"aperture_type":2,"reinsert_type":2,"frame_rate":16.644628099173552,"frame_rate_array":[3,17,17,17,17,16,17,16,17,17,17,17,17,17,16,18,16,18,17,17,16,16,17,17,17,17,16,17,17,17,17,18,16,17,17,16,17,16,17,17,17,17,17,16,17,17,18,16,17,17,17,17,17,16,17,16,17,17,17,16,17,17,16,17,17,17,16,17,17,17,17,17,16,18,16,17,16,18,16,17,18,16,18,16,17,16,17,16,17,17,16,17,16,16,17,17,16,16,18,15,17,16,17,17,16,17,17,16,17,17,17,16,17,17,16,17,17,16,18,16,17],"number_of_frames":121,"aperture_center_x":960,"aperture_center_y":540,"fixation_cross":true,"fixation_cross_width":15,"fixation_cross_height":15,"fixation_cross_color":"#111","fixation_cross_thickness":1,"border":true,"border_thickness":2,"border_color":"transparent","canvas_width":1920,"canvas_height":1080,"trial_type":"rdk","trial_index":88,"plugin_version":"2.0.0","time_elapsed":187683},{"rt":1291,"stimulus":"\n        <div class=\"response-container\">\n          <div class=\"response-instruction\">\n            <p>rotate the bar by using the left and right arrow keys.</p>\n            <p>when you are determined, press the Enter key.</p>\n          </div>\n          <div class=\"response-circle\">\n            <div class=\"response-fixation\"></div>\n            <div id=\"bar\" class=\"rotating-bar\"></div>\n          </div>\n        </div>\n      ","response":"Enter","trial_type":"html-keyboard-response","trial_index":89,"plugin_version":"2.1.0","time_elapsed":188975,"random_initial_angle":173,"response_angle_css":143,"response_angle_rdk":307,"angular_error_target":115,"angular_error_distractor":24,"target_direction":192,"target_group":"black","reward_points":0},{"rt":null,"stimulus":"\n          <p style=\"color: #FF3333;\">Your reward: 0 points</p>\n        ","response":null,"trial_type":"html-keyboard-response","trial_index":90,"plugin_version":"2.1.0","time_elapsed":190984},{"rt":null,"stimulus":"<div class=\"fixation\" style=\"font-size: 60px;\">+</div>","response":null,"trial_type":"html-keyboard-response","trial_index":91,"plugin_version":"2.1.0","time_elapsed":191998},{"phase":"learning-awareness","target_group":"black","condition_label":"B_H_vs_W_L_rep22","target_direction":194,"distractor_direction":296,"session_rotation":86,"rt":1841,"response":"ArrowRight","correct":false,"choices":"ALL_KEYS","correct_choice":["a"],"trial_duration":2000,"flip_timestamps":[],"response_ends_trial":false,"number_of_apertures":200,"number_of_dots":[1,1,1,1,1,1,1,1,1,1,1,1,1,1,1,1,1,1,1,1,1,1,1,1,1,1,1,1,1,1,1,1,1,1,1,1,1,1,1,1,1,1,1,1,1,1,1,1,1,1,1,1,1,1,1,1,1,1,1,1,1,1,1,1,1,1,1,1,1,1,1,1,1,1,1,1,1,1,1,1,1,1,1,1,1,1,1,1,1,1,1,1,1,1,1,1,1,1,1,1,1,1,1,1,1,1,1,1,1,1,1,1,1,1,1,1,1,1,1,1,1,1,1,1,1,1,1,1,1,1,1,1,1,1,1,1,1,1,1,1,1,1,1,1,1,1,1,1,1,1,1,1,1,1,1,1,1,1,1,1,1,1,1,1,1,1,1,1,1,1,1,1,1,1,1,1,1,1,1,1,1,1,1,1,1,1,1,1,1,1,1,1,1,1,1,1,1,1,1,1],"number_of_sets":1,"coherent_direction":[296,194,296,296,296,194,194,194,296,194,194,296,194,194,194,194,194,194,296,194,296,194,194,296,296,194,296,296,296,296,296,296,194,194,194,296,296,194,194,296,296,296,194,194,194,296,296,296,296,296,296,194,296,194,194,296,194,194,296,194,296,296,296,194,296,194,194,296,296,296,296,296,194,194,296,194,296,296,296,296,296,194,194,296,296,296,194,194,194,194,296,194,296,194,194,296,194,296,296,296,194,194,194,296,296,194,194,296,194,194,194,296,194,296,296,296,296,296,194,194,194,296,194,194,296,194,296,194,296,296,194,194,296,296,296,194,194,296,194,296,296,296,194,194,296,296,194,296,194,194,296,296,296,194,194,296,296,194,194,194,194,194,194,194,296,296,296,296,194,194,194,296,194,296,296,194,194,296,194,194,296,296,194,194,194,194,296,194,194,296,194,194,296,194,194,296,194,296,296,296],"coherence":1,"opposite_coherence":0,"dot_radius":2,"dot_side_length":1,"dot_life":-1,"move_distance":1,"aperture_width":300,"aperture_height":300,"dot_color":["white","black","white","white","white","black","black","black","white","black","black","white","black","black","black","black","black","black","white","black","white","black","black","white","white","black","white","white","white","white","white","white","black","black","black","white","white","black","black","white","white","white","black","black","black","white","white","white","white","white","white","black","white","black","black","white","black","black","white","black","white","white","white","black","white","black","black","white","white","white","white","white","black","black","white","black","white","white","white","white","white","black","black","white","white","white","black","black","black","black","white","black","white","black","black","white","black","white","white","white","black","black","black","white","white","black","black","white","black","black","black","white","black","white","white","white","white","white","black","black","black","white","black","black","white","black","white","black","white","white","black","black","white","white","white","black","black","white","black","white","white","white","black","black","white","white","black","white","black","black","white","white","white","black","black","white","white","black","black","black","black","black","black","black","white","white","white","white","black","black","black","white","black","white","white","black","black","white","black","black","white","white","black","black","black","black","white","black","black","white","black","black","white","black","black","white","black","white","white","white"],"dot_shape":"circle","background_color":"#AAA","RDK_type":3,"aperture_type":2,"reinsert_type":2,"frame_rate":16.725,"frame_rate_array":[15,17,18,16,17,16,17,16,17,16,18,16,17,17,17,17,16,17,17,17,17,16,16,17,16,16,17,18,17,17,16,17,16,17,17,18,16,17,17,16,17,17,16,18,16,17,16,17,16,18,16,17,17,18,16,17,16,16,18,17,16,16,17,17,17,16,17,17,17,16,17,17,17,17,17,17,17,17,17,16,17,17,17,16,18,16,17,17,16,16,17,17,15,17,17,16,17,17,17,17,17,17,17,16,17,17,18,16,17,17,17,16,17,16,16,17,17,16,17,16],"number_of_frames":120,"aperture_center_x":960,"aperture_center_y":540,"fixation_cross":true,"fixation_cross_width":15,"fixation_cross_height":15,"fixation_cross_color":"#111","fixation_cross_thickness":1,"border":true,"border_thickness":2,"border_color":"transparent","canvas_width":1920,"canvas_height":1080,"trial_type":"rdk","trial_index":92,"plugin_version":"2.0.0","time_elapsed":194000},{"rt":2933,"stimulus":"\n        <div class=\"response-container\">\n          <div class=\"response-instruction\">\n            <p>rotate the bar by using the left and right arrow keys.</p>\n            <p>when you are determined, press the Enter key.</p>\n          </div>\n          <div class=\"response-circle\">\n            <div class=\"response-fixation\"></div>\n            <div id=\"bar\" class=\"rotating-bar\"></div>\n          </div>\n        </div>\n      ","response":"Enter","trial_type":"html-keyboard-response","trial_index":93,"plugin_version":"2.1.0","time_elapsed":196933,"random_initial_angle":68,"response_angle_css":-111,"response_angle_rdk":201,"angular_error_target":7,"angular_error_distractor":-95,"target_direction":194,"target_group":"black","reward_points":8},{"rt":null,"stimulus":"\n          <p style=\"color: #00FF00;\">Your reward: 8 points</p>\n        ","response":null,"trial_type":"html-keyboard-response","trial_index":94,"plugin_version":"2.1.0","time_elapsed":198941},{"rt":null,"stimulus":"<div class=\"fixation\" style=\"font-size: 60px;\">+</div>","response":null,"trial_type":"html-keyboard-response","trial_index":95,"plugin_version":"2.1.0","time_elapsed":199949},{"phase":"learning-awareness","target_group":"white","condition_label":"W_H_vs_B_L_rep6","target_direction":113,"distractor_direction":356,"session_rotation":86,"rt":-1,"response":"","correct":false,"choices":"ALL_KEYS","correct_choice":["a"],"trial_duration":2000,"flip_timestamps":[],"response_ends_trial":false,"number_of_apertures":200,"number_of_dots":[1,1,1,1,1,1,1,1,1,1,1,1,1,1,1,1,1,1,1,1,1,1,1,1,1,1,1,1,1,1,1,1,1,1,1,1,1,1,1,1,1,1,1,1,1,1,1,1,1,1,1,1,1,1,1,1,1,1,1,1,1,1,1,1,1,1,1,1,1,1,1,1,1,1,1,1,1,1,1,1,1,1,1,1,1,1,1,1,1,1,1,1,1,1,1,1,1,1,1,1,1,1,1,1,1,1,1,1,1,1,1,1,1,1,1,1,1,1,1,1,1,1,1,1,1,1,1,1,1,1,1,1,1,1,1,1,1,1,1,1,1,1,1,1,1,1,1,1,1,1,1,1,1,1,1,1,1,1,1,1,1,1,1,1,1,1,1,1,1,1,1,1,1,1,1,1,1,1,1,1,1,1,1,1,1,1,1,1,1,1,1,1,1,1,1,1,1,1,1,1],"number_of_sets":1,"coherent_direction":[113,113,113,113,356,356,113,356,356,356,356,113,356,113,356,113,113,113,113,113,356,113,113,113,356,356,356,113,356,113,356,113,113,356,113,113,113,356,113,113,356,356,356,113,113,356,356,356,356,113,356,113,113,356,356,356,113,113,356,113,356,113,113,356,113,356,113,113,356,356,356,356,356,356,113,356,113,113,113,356,113,356,356,113,113,356,356,356,113,113,113,113,113,113,356,113,113,356,356,356,356,356,356,113,356,356,113,356,356,113,356,113,356,113,113,356,356,113,356,356,113,356,356,113,356,356,356,356,356,113,113,356,356,356,113,113,113,113,356,113,356,356,113,356,356,356,113,356,113,113,113,113,356,356,113,113,113,356,356,356,113,113,113,113,356,113,113,356,113,356,113,113,113,356,113,113,113,356,356,113,113,113,113,113,356,356,113,356,113,356,356,356,113,113,356,356,113,356,356,356],"coherence":1,"opposite_coherence":0,"dot_radius":2,"dot_side_length":1,"dot_life":-1,"move_distance":1,"aperture_width":300,"aperture_height":300,"dot_color":["white","white","white","white","black","black","white","black","black","black","black","white","black","white","black","white","white","white","white","white","black","white","white","white","black","black","black","white","black","white","black","white","white","black","white","white","white","black","white","white","black","black","black","white","white","black","black","black","black","white","black","white","white","black","black","black","white","white","black","white","black","white","white","black","white","black","white","white","black","black","black","black","black","black","white","black","white","white","white","black","white","black","black","white","white","black","black","black","white","white","white","white","white","white","black","white","white","black","black","black","black","black","black","white","black","black","white","black","black","white","black","white","black","white","white","black","black","white","black","black","white","black","black","white","black","black","black","black","black","white","white","black","black","black","white","white","white","white","black","white","black","black","white","black","black","black","white","black","white","white","white","white","black","black","white","white","white","black","black","black","white","white","white","white","black","white","white","black","white","black","white","white","white","black","white","white","white","black","black","white","white","white","white","white","black","black","white","black","white","black","black","black","white","white","black","black","white","black","black","black"],"dot_shape":"circle","background_color":"#AAA","RDK_type":3,"aperture_type":2,"reinsert_type":2,"frame_rate":16.716666666666665,"frame_rate_array":[14,16,17,16,16,17,18,16,17,17,17,16,17,17,18,17,16,17,17,16,17,16,17,16,17,18,17,16,17,17,17,17,17,17,16,17,17,16,17,17,17,18,16,17,16,17,17,17,17,18,16,17,16,17,16,18,16,17,17,16,17,17,17,16,17,17,17,17,16,17,17,16,17,18,16,16,17,18,15,17,17,17,16,17,17,16,17,16,18,16,17,17,16,17,17,17,17,17,16,17,16,17,18,16,17,16,17,16,16,17,17,16,16,17,17,17,16,18,16,16],"number_of_frames":120,"aperture_center_x":960,"aperture_center_y":540,"fixation_cross":true,"fixation_cross_width":15,"fixation_cross_height":15,"fixation_cross_color":"#111","fixation_cross_thickness":1,"border":true,"border_thickness":2,"border_color":"transparent","canvas_width":1920,"canvas_height":1080,"trial_type":"rdk","trial_index":96,"plugin_version":"2.0.0","time_elapsed":201953},{"rt":2434,"stimulus":"\n        <div class=\"response-container\">\n          <div class=\"response-instruction\">\n            <p>rotate the bar by using the left and right arrow keys.</p>\n            <p>when you are determined, press the Enter key.</p>\n          </div>\n          <div class=\"response-circle\">\n            <div class=\"response-fixation\"></div>\n            <div id=\"bar\" class=\"rotating-bar\"></div>\n          </div>\n        </div>\n      ","response":"Enter","trial_type":"html-keyboard-response","trial_index":97,"plugin_version":"2.1.0","time_elapsed":204388,"random_initial_angle":92,"response_angle_css":94,"response_angle_rdk":356,"angular_error_target":-117,"angular_error_distractor":0,"target_direction":113,"target_group":"white","reward_points":0},{"rt":null,"stimulus":"\n          <p style=\"color: #FF3333;\">Your reward: 0 points</p>\n        ","response":null,"trial_type":"html-keyboard-response","trial_index":98,"plugin_version":"2.1.0","time_elapsed":206401},{"rt":null,"stimulus":"<div class=\"fixation\" style=\"font-size: 60px;\">+</div>","response":null,"trial_type":"html-keyboard-response","trial_index":99,"plugin_version":"2.1.0","time_elapsed":207416},{"phase":"learning-awareness","target_group":"white","condition_label":"W_H_vs_B_L_rep10","target_direction":126,"distractor_direction":2,"session_rotation":86,"rt":-1,"response":"","correct":false,"choices":"ALL_KEYS","correct_choice":["a"],"trial_duration":2000,"flip_timestamps":[],"response_ends_trial":false,"number_of_apertures":200,"number_of_dots":[1,1,1,1,1,1,1,1,1,1,1,1,1,1,1,1,1,1,1,1,1,1,1,1,1,1,1,1,1,1,1,1,1,1,1,1,1,1,1,1,1,1,1,1,1,1,1,1,1,1,1,1,1,1,1,1,1,1,1,1,1,1,1,1,1,1,1,1,1,1,1,1,1,1,1,1,1,1,1,1,1,1,1,1,1,1,1,1,1,1,1,1,1,1,1,1,1,1,1,1,1,1,1,1,1,1,1,1,1,1,1,1,1,1,1,1,1,1,1,1,1,1,1,1,1,1,1,1,1,1,1,1,1,1,1,1,1,1,1,1,1,1,1,1,1,1,1,1,1,1,1,1,1,1,1,1,1,1,1,1,1,1,1,1,1,1,1,1,1,1,1,1,1,1,1,1,1,1,1,1,1,1,1,1,1,1,1,1,1,1,1,1,1,1,1,1,1,1,1,1],"number_of_sets":1,"coherent_direction":[126,126,126,126,126,2,126,2,2,2,2,126,126,2,2,126,126,2,2,126,126,126,126,2,2,126,2,2,2,126,2,126,2,2,126,2,2,126,2,126,2,126,126,126,2,2,2,2,2,126,126,126,126,126,2,126,2,2,126,2,2,2,126,2,2,126,2,2,126,126,126,126,2,2,126,126,126,126,126,2,2,2,126,126,126,2,2,2,126,126,2,126,2,2,126,2,2,126,2,2,126,2,2,126,126,2,126,2,2,2,2,2,2,126,126,2,2,126,2,126,126,2,126,126,2,126,2,2,2,2,2,126,2,126,126,2,2,2,126,126,2,126,2,126,126,126,126,126,126,126,126,2,2,2,2,2,2,126,126,126,126,126,2,126,2,2,126,2,126,126,126,2,126,126,2,2,126,126,2,126,126,126,126,126,126,2,2,126,126,2,126,2,126,2,2,2,2,126,2,2],"coherence":1,"opposite_coherence":0,"dot_radius":2,"dot_side_length":1,"dot_life":-1,"move_distance":1,"aperture_width":300,"aperture_height":300,"dot_color":["white","white","white","white","white","black","white","black","black","black","black","white","white","black","black","white","white","black","black","white","white","white","white","black","black","white","black","black","black","white","black","white","black","black","white","black","black","white","black","white","black","white","white","white","black","black","black","black","black","white","white","white","white","white","black","white","black","black","white","black","black","black","white","black","black","white","black","black","white","white","white","white","black","black","white","white","white","white","white","black","black","black","white","white","white","black","black","black","white","white","black","white","black","black","white","black","black","white","black","black","white","black","black","white","white","black","white","black","black","black","black","black","black","white","white","black","black","white","black","white","white","black","white","white","black","white","black","black","black","black","black","white","black","white","white","black","black","black","white","white","black","white","black","white","white","white","white","white","white","white","white","black","black","black","black","black","black","white","white","white","white","white","black","white","black","black","white","black","white","white","white","black","white","white","black","black","white","white","black","white","white","white","white","white","white","black","black","white","white","black","white","black","white","black","black","black","black","white","black","black"],"dot_shape":"circle","background_color":"#AAA","RDK_type":3,"aperture_type":2,"reinsert_type":2,"frame_rate":16.7,"frame_rate_array":[13,19,15,17,16,17,17,17,16,17,17,17,16,17,17,17,16,17,16,17,17,16,17,17,18,17,17,16,17,17,17,16,18,16,17,17,17,17,16,17,16,18,16,17,16,17,16,17,16,17,17,16,17,17,16,17,17,16,16,17,17,16,17,17,16,17,17,17,16,17,17,17,17,16,18,16,17,18,16,17,17,16,18,17,16,17,16,18,16,17,17,16,16,17,17,16,17,17,17,16,16,17,17,17,16,17,16,17,17,17,16,18,16,17,17,17,17,16,16,17],"number_of_frames":120,"aperture_center_x":960,"aperture_center_y":540,"fixation_cross":true,"fixation_cross_width":15,"fixation_cross_height":15,"fixation_cross_color":"#111","fixation_cross_thickness":1,"border":true,"border_thickness":2,"border_color":"transparent","canvas_width":1920,"canvas_height":1080,"trial_type":"rdk","trial_index":100,"plugin_version":"2.0.0","time_elapsed":209423},{"rt":739,"stimulus":"\n        <div class=\"response-container\">\n          <div class=\"response-instruction\">\n            <p>rotate the bar by using the left and right arrow keys.</p>\n            <p>when you are determined, press the Enter key.</p>\n          </div>\n          <div class=\"response-circle\">\n            <div class=\"response-fixation\"></div>\n            <div id=\"bar\" class=\"rotating-bar\"></div>\n          </div>\n        </div>\n      ","response":"Enter","trial_type":"html-keyboard-response","trial_index":101,"plugin_version":"2.1.0","time_elapsed":210162,"random_initial_angle":277,"response_angle_css":266,"response_angle_rdk":184,"angular_error_target":58,"angular_error_distractor":-178,"target_direction":126,"target_group":"white","reward_points":0},{"rt":null,"stimulus":"\n          <p style=\"color: #FF3333;\">Your reward: 0 points</p>\n        ","response":null,"trial_type":"html-keyboard-response","trial_index":102,"plugin_version":"2.1.0","time_elapsed":212166},{"rt":null,"stimulus":"<div class=\"fixation\" style=\"font-size: 60px;\">+</div>","response":null,"trial_type":"html-keyboard-response","trial_index":103,"plugin_version":"2.1.0","time_elapsed":213182},{"phase":"learning-awareness","target_group":"black","condition_label":"B_H_vs_W_L_rep18","target_direction":196,"distractor_direction":302,"session_rotation":86,"rt":-1,"response":"","correct":false,"choices":"ALL_KEYS","correct_choice":["a"],"trial_duration":2000,"flip_timestamps":[],"response_ends_trial":false,"number_of_apertures":200,"number_of_dots":[1,1,1,1,1,1,1,1,1,1,1,1,1,1,1,1,1,1,1,1,1,1,1,1,1,1,1,1,1,1,1,1,1,1,1,1,1,1,1,1,1,1,1,1,1,1,1,1,1,1,1,1,1,1,1,1,1,1,1,1,1,1,1,1,1,1,1,1,1,1,1,1,1,1,1,1,1,1,1,1,1,1,1,1,1,1,1,1,1,1,1,1,1,1,1,1,1,1,1,1,1,1,1,1,1,1,1,1,1,1,1,1,1,1,1,1,1,1,1,1,1,1,1,1,1,1,1,1,1,1,1,1,1,1,1,1,1,1,1,1,1,1,1,1,1,1,1,1,1,1,1,1,1,1,1,1,1,1,1,1,1,1,1,1,1,1,1,1,1,1,1,1,1,1,1,1,1,1,1,1,1,1,1,1,1,1,1,1,1,1,1,1,1,1,1,1,1,1,1,1],"number_of_sets":1,"coherent_direction":[302,196,302,196,302,196,196,196,196,196,196,196,196,196,302,302,196,302,302,196,196,196,302,302,196,302,302,196,302,302,196,302,196,196,196,302,196,302,302,196,302,302,302,196,302,196,302,302,302,302,302,196,196,196,302,302,302,302,196,302,196,302,196,302,196,196,196,196,196,196,302,302,196,302,196,196,302,196,302,302,302,302,302,302,196,196,302,302,302,196,196,302,196,196,302,302,302,302,196,302,196,302,196,196,196,196,302,196,196,196,302,302,196,196,302,302,302,302,302,302,302,196,196,196,196,196,302,302,196,196,196,196,302,302,302,302,196,302,196,196,302,302,302,196,196,302,196,196,302,196,196,196,196,196,196,302,196,196,302,302,196,302,302,302,196,196,196,302,196,196,302,196,302,302,196,302,302,196,302,196,302,302,196,196,196,196,196,302,302,302,302,302,302,196,302,302,302,196,302,196],"coherence":1,"opposite_coherence":0,"dot_radius":2,"dot_side_length":1,"dot_life":-1,"move_distance":1,"aperture_width":300,"aperture_height":300,"dot_color":["white","black","white","black","white","black","black","black","black","black","black","black","black","black","white","white","black","white","white","black","black","black","white","white","black","white","white","black","white","white","black","white","black","black","black","white","black","white","white","black","white","white","white","black","white","black","white","white","white","white","white","black","black","black","white","white","white","white","black","white","black","white","black","white","black","black","black","black","black","black","white","white","black","white","black","black","white","black","white","white","white","white","white","white","black","black","white","white","white","black","black","white","black","black","white","white","white","white","black","white","black","white","black","black","black","black","white","black","black","black","white","white","black","black","white","white","white","white","white","white","white","black","black","black","black","black","white","white","black","black","black","black","white","white","white","white","black","white","black","black","white","white","white","black","black","white","black","black","white","black","black","black","black","black","black","white","black","black","white","white","black","white","white","white","black","black","black","white","black","black","white","black","white","white","black","white","white","black","white","black","white","white","black","black","black","black","black","white","white","white","white","white","white","black","white","white","white","black","white","black"],"dot_shape":"circle","background_color":"#AAA","RDK_type":3,"aperture_type":2,"reinsert_type":2,"frame_rate":16.683333333333334,"frame_rate_array":[15,17,17,16,17,16,18,17,16,17,17,16,16,17,17,16,18,16,17,17,16,17,16,17,17,16,17,16,17,16,17,17,16,17,17,17,17,17,16,18,16,17,16,16,17,17,17,17,17,16,17,17,16,17,17,16,18,16,16,17,17,16,16,17,17,17,17,17,16,16,18,16,17,17,17,16,17,17,17,17,17,16,18,16,16,17,18,16,16,17,16,17,17,16,17,17,17,16,17,16,17,17,16,17,16,17,17,17,16,17,17,16,17,17,17,17,16,17,17,16],"number_of_frames":120,"aperture_center_x":960,"aperture_center_y":540,"fixation_cross":true,"fixation_cross_width":15,"fixation_cross_height":15,"fixation_cross_color":"#111","fixation_cross_thickness":1,"border":true,"border_thickness":2,"border_color":"transparent","canvas_width":1920,"canvas_height":1080,"trial_type":"rdk","trial_index":104,"plugin_version":"2.0.0","time_elapsed":215192},{"rt":1026,"stimulus":"\n        <div class=\"response-container\">\n          <div class=\"response-instruction\">\n            <p>rotate the bar by using the left and right arrow keys.</p>\n            <p>when you are determined, press the Enter key.</p>\n          </div>\n          <div class=\"response-circle\">\n            <div class=\"response-fixation\"></div>\n            <div id=\"bar\" class=\"rotating-bar\"></div>\n          </div>\n        </div>\n      ","response":"Enter","trial_type":"html-keyboard-response","trial_index":105,"plugin_version":"2.1.0","time_elapsed":216218,"random_initial_angle":278,"response_angle_css":244,"response_angle_rdk":206,"angular_error_target":10,"angular_error_distractor":-96,"target_direction":196,"target_group":"black","reward_points":8},{"rt":null,"stimulus":"