[{"rt":8550,"stimulus":"Welcome to the experiment. Press any key to begin.","response":" ","trial_type":"html-keyboard-response","trial_index":0,"plugin_version":"2.1.0","time_elapsed":8555},{"rt":92978,"stimulus":"\n        <div class=\"instructions-container\">\n          <h2>Instructions</h2>\n\n          <p>\n          In this experiment, you will see <strong>two Random Dot Kinematograms (RDKs)</strong> displayed simultaneously.\n          </p>\n\n          <p>\n          An RDK is a visual stimulus consisting of many small dots that move coherently in a single direction. \n          In this experiment, the dots will be either <strong>white</strong> or <strong>black</strong> \n          (see the short demo below for an example of an RDK stimulus).\n          </p>\n\n          <p>\n          On each trial, the two RDKs will move in different directions. \n          Your task is to decide <strong>which RDK appears to contain more dots</strong>.\n          </p>\n\n          <p>\n          The RDK that you judge to have more dots is called the <strong>target RDK</strong>. \n          For example, if the white RDK appears to have more dots than the black RDK, \n          you should report the motion direction of the white RDK.\n          </p>\n\n          <p>\n          After viewing the RDKs, you will rotate a bar to indicate the perceived direction of the target RDK \n          using the <strong>left</strong> and <strong>right arrow keys</strong>. \n          Press <strong>Enter</strong> when you are satisfied with your response.\n          </p>\n\n          <p>\n          You will receive points based on the <strong>accuracy of your response</strong>, \n          and your final <strong>bonus reward</strong> may depend on your overall performance. \n          Please try to respond as accurately as possible.\n          </p>\n\n          <p>\n          You will first complete <strong>16 practice trials</strong>. \n          Press the <strong>Enter</strong> key to start the practice phase.\n          </p>\n\n          <canvas id=\"instruction-demo-rdk\" width=\"200\" height=\"200\"style=\"display:block;margin:12px auto; border-radius: 50%;\"></canvas>\n        </div>\n      ","response":"Enter","trial_type":"html-keyboard-response","trial_index":1,"plugin_version":"2.1.0","time_elapsed":101541},{"rt":null,"stimulus":"<div class=\"fixation\" style=\"font-size: 60px;\">+</div>","response":null,"trial_type":"html-keyboard-response","trial_index":2,"plugin_version":"2.1.0","time_elapsed":102561},{"target_group":"white","target_index":0,"condition_label":"practice","rt":-1,"response":"","correct":false,"choices":"ALL_KEYS","correct_choice":["a"],"trial_duration":2000,"flip_timestamps":[],"response_ends_trial":false,"number_of_apertures":2,"number_of_dots":[100,84],"number_of_sets":1,"coherent_direction":[35,250],"coherence":1,"opposite_coherence":0,"dot_radius":2,"dot_side_length":1,"dot_life":-1,"move_distance":1,"aperture_width":300,"aperture_height":300,"dot_color":["white","black"],"dot_shape":"circle","background_color":"#AAA","RDK_type":3,"aperture_type":2,"reinsert_type":2,"frame_rate":18.574074074074073,"frame_rate_array":[19,161,1,83,16,17,17,15,21,17,17,17,17,17,17,17,17,16,17,17,14,19,18,16,17,16,17,14,19,17,17,16,17,16,16,18,17,17,16,32,1,14,16,17,17,16,17,18,16,17,17,17,17,17,17,16,17,17,17,17,19,17,17,17,16,16,17,15,19,17,17,17,16,17,17,16,17,17,17,17,14,19,17,17,17,17,14,19,17,17,16,16,17,14,19,17,17,17,17,17,15,17,15,16,17,16,17,17],"number_of_frames":108,"aperture_center_x":683,"aperture_center_y":384,"fixation_cross":true,"fixation_cross_width":15,"fixation_cross_height":15,"fixation_cross_color":"#111","fixation_cross_thickness":1,"border":true,"border_thickness":2,"border_color":"transparent","canvas_width":1366,"canvas_height":768,"trial_type":"rdk","trial_index":3,"plugin_version":"2.0.0","time_elapsed":104583,"target_direction":35,"distractor_direction":250},{"rt":13325,"stimulus":"\n        <div class=\"response-container\">\n          <div class=\"response-instruction\">\n            <p>rotate the bar by using the left and right arrow keys.</p>\n            <p>when you are determined, press the Enter key.</p>\n          </div>\n          <div class=\"response-circle\">\n            <div class=\"response-fixation\"></div>\n            <div id=\"bar\" class=\"rotating-bar\"></div>\n          </div>\n        </div>\n      ","response":"Enter","trial_type":"html-keyboard-response","trial_index":4,"plugin_version":"2.1.0","time_elapsed":117910,"random_initial_angle":60,"response_angle_css":88,"response_angle_rdk":2,"angular_error_target":-33,"angular_error_distractor":112,"target_direction":35,"target_group":"white","reward_points":3},{"rt":null,"stimulus":"\n          <p style=\"color: #00FF00;\">Your reward: 3 points</p>\n        ","response":null,"trial_type":"html-keyboard-response","trial_index":5,"plugin_version":"2.1.0","time_elapsed":119921},{"rt":null,"stimulus":"<div class=\"fixation\" style=\"font-size: 60px;\">+</div>","response":null,"trial_type":"html-keyboard-response","trial_index":6,"plugin_version":"2.1.0","time_elapsed":120936},{"target_group":"black","target_index":1,"condition_label":"practice","rt":-1,"response":"","correct":false,"choices":"ALL_KEYS","correct_choice":["a"],"trial_duration":2000,"flip_timestamps":[],"response_ends_trial":false,"number_of_apertures":2,"number_of_dots":[71,100],"number_of_sets":1,"coherent_direction":[104,310],"coherence":1,"opposite_coherence":0,"dot_radius":2,"dot_side_length":1,"dot_life":-1,"move_distance":1,"aperture_width":300,"aperture_height":300,"dot_color":["white","black"],"dot_shape":"circle","background_color":"#AAA","RDK_type":3,"aperture_type":2,"reinsert_type":2,"frame_rate":16.760330578512395,"frame_rate_array":[18,8,18,17,17,17,17,17,16,18,16,16,17,18,16,16,18,15,18,16,16,18,17,17,17,17,16,17,24,10,17,16,17,17,17,17,17,17,17,17,17,17,17,17,17,17,17,17,17,17,17,17,16,16,18,17,16,17,17,17,16,18,17,17,16,17,16,17,17,17,17,17,17,17,16,27,4,19,17,17,17,17,15,17,17,17,17,17,17,16,15,18,18,16,17,17,17,16,17,16,17,17,14,20,16,17,17,16,17,17,17,16,18,16,17,17,17,16,27,8,16],"number_of_frames":121,"aperture_center_x":683,"aperture_center_y":384,"fixation_cross":true,"fixation_cross_width":15,"fixation_cross_height":15,"fixation_cross_color":"#111","fixation_cross_thickness":1,"border":true,"border_thickness":2,"border_color":"transparent","canvas_width":1366,"canvas_height":768,"trial_type":"rdk","trial_index":7,"plugin_version":"2.0.0","time_elapsed":122957,"target_direction":310,"distractor_direction":104},{"rt":7648,"stimulus":"\n        <div class=\"response-container\">\n          <div class=\"response-instruction\">\n            <p>rotate the bar by using the left and right arrow keys.</p>\n            <p>when you are determined, press the Enter key.</p>\n          </div>\n          <div class=\"response-circle\">\n            <div class=\"response-fixation\"></div>\n            <div id=\"bar\" class=\"rotating-bar\"></div>\n          </div>\n        </div>\n      ","response":"Enter","trial_type":"html-keyboard-response","trial_index":8,"plugin_version":"2.1.0","time_elapsed":130607,"random_initial_angle":269,"response_angle_css":113,"response_angle_rdk":337,"angular_error_target":27,"angular_error_distractor":-127,"target_direction":310,"target_group":"black","reward_points":4},{"rt":null,"stimulus":"\n          <p style=\"color: #00FF00;\">Your reward: 4 points</p>\n        ","response":null,"trial_type":"html-keyboard-response","trial_index":9,"plugin_version":"2.1.0","time_elapsed":132615},{"rt":null,"stimulus":"<div class=\"fixation\" style=\"font-size: 60px;\">+</div>","response":null,"trial_type":"html-keyboard-response","trial_index":10,"plugin_version":"2.1.0","time_elapsed":133635},{"target_group":"black","target_index":1,"condition_label":"practice","rt":-1,"response":"","correct":false,"choices":"ALL_KEYS","correct_choice":["a"],"trial_duration":2000,"flip_timestamps":[],"response_ends_trial":false,"number_of_apertures":2,"number_of_dots":[94,100],"number_of_sets":1,"coherent_direction":[11,240],"coherence":1,"opposite_coherence":0,"dot_radius":2,"dot_side_length":1,"dot_life":-1,"move_distance":1,"aperture_width":300,"aperture_height":300,"dot_color":["white","black"],"dot_shape":"circle","background_color":"#AAA","RDK_type":3,"aperture_type":2,"reinsert_type":2,"frame_rate":17.050847457627118,"frame_rate_array":[63,2,16,16,17,17,17,17,17,15,21,16,15,19,17,17,17,17,17,18,15,17,15,19,17,17,17,16,15,19,17,16,17,17,17,17,17,16,17,15,18,14,18,18,17,16,17,16,17,16,17,17,16,17,17,16,14,17,20,16,17,17,17,17,17,17,17,17,14,19,17,17,17,16,17,26,11,15,16,16,18,15,19,17,17,17,17,16,18,16,16,17,19,13,17,16,17,17,18,16,17,17,16,17,17,17,16,19,17,15,16,17,17,16,17,16,17,17],"number_of_frames":118,"aperture_center_x":683,"aperture_center_y":384,"fixation_cross":true,"fixation_cross_width":15,"fixation_cross_height":15,"fixation_cross_color":"#111","fixation_cross_thickness":1,"border":true,"border_thickness":2,"border_color":"transparent","canvas_width":1366,"canvas_height":768,"trial_type":"rdk","trial_index":11,"plugin_version":"2.0.0","time_elapsed":135641,"target_direction":240,"distractor_direction":11},{"rt":6668,"stimulus":"\n        <div class=\"response-container\">\n          <div class=\"response-instruction\">\n            <p>rotate the bar by using the left and right arrow keys.</p>\n            <p>when you are determined, press the Enter key.</p>\n          </div>\n          <div class=\"response-circle\">\n            <div class=\"response-fixation\"></div>\n            <div id=\"bar\" class=\"rotating-bar\"></div>\n          </div>\n        </div>\n      ","response":"Enter","trial_type":"html-keyboard-response","trial_index":12,"plugin_version":"2.1.0","time_elapsed":142310,"random_initial_angle":167,"response_angle_css":218,"response_angle_rdk":232,"angular_error_target":-8,"angular_error_distractor":-139,"target_direction":240,"target_group":"black","reward_points":8},{"rt":null,"stimulus":"\n          <p style=\"color: #00FF00;\">Your reward: 8 points</p>\n        ","response":null,"trial_type":"html-keyboard-response","trial_index":13,"plugin_version":"2.1.0","time_elapsed":144328},{"rt":null,"stimulus":"<div class=\"fixation\" style=\"font-size: 60px;\">+</div>","response":null,"trial_type":"html-keyboard-response","trial_index":14,"plugin_version":"2.1.0","time_elapsed":145335},{"target_group":"black","target_index":1,"condition_label":"practice","rt":-1,"response":"","correct":false,"choices":"ALL_KEYS","correct_choice":["a"],"trial_duration":2000,"flip_timestamps":[],"response_ends_trial":false,"number_of_apertures":2,"number_of_dots":[71,100],"number_of_sets":1,"coherent_direction":[223,315],"coherence":1,"opposite_coherence":0,"dot_radius":2,"dot_side_length":1,"dot_life":-1,"move_distance":1,"aperture_width":300,"aperture_height":300,"dot_color":["white","black"],"dot_shape":"circle","background_color":"#AAA","RDK_type":3,"aperture_type":2,"reinsert_type":2,"frame_rate":16.75,"frame_rate_array":[15,15,21,34,1,11,22,16,17,16,13,20,17,17,17,17,17,18,15,18,15,17,16,17,14,16,17,17,17,17,17,17,20,13,16,21,26,9,13,17,17,17,17,16,17,15,20,17,17,17,16,15,19,16,17,16,17,15,17,17,17,17,17,17,17,17,17,16,16,17,17,17,18,15,17,17,16,17,17,17,17,17,17,19,17,17,14,17,17,17,16,17,17,17,17,17,25,8,16,17,17,16,19,15,16,17,17,16,20,17,16,17,17,16,17,18,15,14,17,17],"number_of_frames":120,"aperture_center_x":683,"aperture_center_y":384,"fixation_cross":true,"fixation_cross_width":15,"fixation_cross_height":15,"fixation_cross_color":"#111","fixation_cross_thickness":1,"border":true,"border_thickness":2,"border_color":"transparent","canvas_width":1366,"canvas_height":768,"trial_type":"rdk","trial_index":15,"plugin_version":"2.0.0","time_elapsed":147340,"target_direction":315,"distractor_direction":223},{"rt":7444,"stimulus":"\n        <div class=\"response-container\">\n          <div class=\"response-instruction\">\n            <p>rotate the bar by using the left and right arrow keys.</p>\n            <p>when you are determined, press the Enter key.</p>\n          </div>\n          <div class=\"response-circle\">\n            <div class=\"response-fixation\"></div>\n            <div id=\"bar\" class=\"rotating-bar\"></div>\n          </div>\n        </div>\n      ","response":"Enter","trial_type":"html-keyboard-response","trial_index":16,"plugin_version":"2.1.0","time_elapsed":154785,"random_initial_angle":272,"response_angle_css":475,"response_angle_rdk":335,"angular_error_target":20,"angular_error_distractor":112,"target_direction":315,"target_group":"black","reward_points":6},{"rt":null,"stimulus":"\n          <p style=\"color: #00FF00;\">Your reward: 6 points</p>\n        ","response":null,"trial_type":"html-keyboard-response","trial_index":17,"plugin_version":"2.1.0","time_elapsed":156794},{"rt":null,"stimulus":"<div class=\"fixation\" style=\"font-size: 60px;\">+</div>","response":null,"trial_type":"html-keyboard-response","trial_index":18,"plugin_version":"2.1.0","time_elapsed":157802},{"target_group":"white","target_index":0,"condition_label":"practice","rt":-1,"response":"","correct":false,"choices":"ALL_KEYS","correct_choice":["a"],"trial_duration":2000,"flip_timestamps":[],"response_ends_trial":false,"number_of_apertures":2,"number_of_dots":[100,71],"number_of_sets":1,"coherent_direction":[143,254],"coherence":1,"opposite_coherence":0,"dot_radius":2,"dot_side_length":1,"dot_life":-1,"move_distance":1,"aperture_width":300,"aperture_height":300,"dot_color":["white","black"],"dot_shape":"circle","background_color":"#AAA","RDK_type":3,"aperture_type":2,"reinsert_type":2,"frame_rate":16.74380165289256,"frame_rate_array":[17,15,15,16,17,17,17,17,23,11,16,17,16,17,16,18,16,15,18,17,17,17,16,17,17,17,16,17,16,16,17,17,17,17,17,17,17,17,17,17,17,17,17,17,16,17,17,17,15,18,17,16,17,17,17,17,16,17,17,17,16,17,16,17,17,17,17,17,18,15,17,17,16,18,16,15,18,17,17,17,16,17,17,17,17,17,17,17,15,18,19,14,17,17,16,17,17,16,17,17,16,15,19,16,17,17,17,17,17,17,17,16,17,18,16,17,17,17,17,15,18],"number_of_frames":121,"aperture_center_x":683,"aperture_center_y":384,"fixation_cross":true,"fixation_cross_width":15,"fixation_cross_height":15,"fixation_cross_color":"#111","fixation_cross_thickness":1,"border":true,"border_thickness":2,"border_color":"transparent","canvas_width":1366,"canvas_height":768,"trial_type":"rdk","trial_index":19,"plugin_version":"2.0.0","time_elapsed":159821,"target_direction":143,"distractor_direction":254},{"rt":2095,"stimulus":"\n        <div class=\"response-container\">\n          <div class=\"response-instruction\">\n            <p>rotate the bar by using the left and right arrow keys.</p>\n            <p>when you are determined, press the Enter key.</p>\n          </div>\n          <div class=\"response-circle\">\n            <div class=\"response-fixation\"></div>\n            <div id=\"bar\" class=\"rotating-bar\"></div>\n          </div>\n        </div>\n      ","response":"Enter","trial_type":"html-keyboard-response","trial_index":20,"plugin_version":"2.1.0","time_elapsed":161918,"random_initial_angle":210,"response_angle_css":210,"response_angle_rdk":240,"angular_error_target":97,"angular_error_distractor":-14,"target_direction":143,"target_group":"white","reward_points":0},{"rt":null,"stimulus":"\n          <p style=\"color: #FF3333;\">Your reward: 0 points</p>\n        ","response":null,"trial_type":"html-keyboard-response","trial_index":21,"plugin_version":"2.1.0","time_elapsed":163953},{"rt":null,"stimulus":"<div class=\"fixation\" style=\"font-size: 60px;\">+</div>","response":null,"trial_type":"html-keyboard-response","trial_index":22,"plugin_version":"2.1.0","time_elapsed":164962},{"target_group":"white","target_index":0,"condition_label":"practice","rt":-1,"response":"","correct":false,"choices":"ALL_KEYS","correct_choice":["a"],"trial_duration":2000,"flip_timestamps":[],"response_ends_trial":false,"number_of_apertures":2,"number_of_dots":[100,66],"number_of_sets":1,"coherent_direction":[345,210],"coherence":1,"opposite_coherence":0,"dot_radius":2,"dot_side_length":1,"dot_life":-1,"move_distance":1,"aperture_width":300,"aperture_height":300,"dot_color":["white","black"],"dot_shape":"circle","background_color":"#AAA","RDK_type":3,"aperture_type":2,"reinsert_type":2,"frame_rate":16.59504132231405,"frame_rate_array":[14,9,16,16,15,18,17,17,17,16,17,17,16,17,17,17,17,17,16,17,14,20,19,14,14,19,17,12,21,16,17,17,16,17,17,15,35,2,14,18,18,15,17,16,17,16,17,16,17,17,14,18,15,19,17,17,17,13,19,19,12,17,17,16,17,16,17,17,17,17,15,18,16,18,17,17,16,16,18,17,17,17,17,17,17,16,17,16,16,21,14,20,16,17,16,17,16,19,16,16,17,16,17,16,17,17,17,16,17,14,15,18,17,16,17,17,17,17,16,23,11],"number_of_frames":121,"aperture_center_x":683,"aperture_center_y":384,"fixation_cross":true,"fixation_cross_width":15,"fixation_cross_height":15,"fixation_cross_color":"#111","fixation_cross_thickness":1,"border":true,"border_thickness":2,"border_color":"transparent","canvas_width":1366,"canvas_height":768,"trial_type":"rdk","trial_index":23,"plugin_version":"2.0.0","time_elapsed":166969,"target_direction":345,"distractor_direction":210},{"rt":7592,"stimulus":"\n        <div class=\"response-container\">\n          <div class=\"response-instruction\">\n            <p>rotate the bar by using the left and right arrow keys.</p>\n            <p>when you are determined, press the Enter key.</p>\n          </div>\n          <div class=\"response-circle\">\n            <div class=\"response-fixation\"></div>\n            <div id=\"bar\" class=\"rotating-bar\"></div>\n          </div>\n        </div>\n      ","response":"Enter","trial_type":"html-keyboard-response","trial_index":24,"plugin_version":"2.1.0","time_elapsed":174563,"random_initial_angle":90,"response_angle_css":251,"response_angle_rdk":199,"angular_error_target":-146,"angular_error_distractor":-11,"target_direction":345,"target_group":"white","reward_points":0},{"rt":null,"stimulus":"\n          <p style=\"color: #FF3333;\">Your reward: 0 points</p>\n        ","response":null,"trial_type":"html-keyboard-response","trial_index":25,"plugin_version":"2.1.0","time_elapsed":176572},{"rt":null,"stimulus":"<div class=\"fixation\" style=\"font-size: 60px;\">+</div>","response":null,"trial_type":"html-keyboard-response","trial_index":26,"plugin_version":"2.1.0","time_elapsed":177589},{"target_group":"black","target_index":1,"condition_label":"practice","rt":-1,"response":"","correct":false,"choices":"ALL_KEYS","correct_choice":["a"],"trial_duration":2000,"flip_timestamps":[],"response_ends_trial":false,"number_of_apertures":2,"number_of_dots":[91,100],"number_of_sets":1,"coherent_direction":[233,38],"coherence":1,"opposite_coherence":0,"dot_radius":2,"dot_side_length":1,"dot_life":-1,"move_distance":1,"aperture_width":300,"aperture_height":300,"dot_color":["white","black"],"dot_shape":"circle","background_color":"#AAA","RDK_type":3,"aperture_type":2,"reinsert_type":2,"frame_rate":16.677685950413224,"frame_rate_array":[18,8,19,14,35,1,12,17,16,17,17,17,17,17,16,17,20,13,17,17,17,17,17,20,16,17,16,17,14,20,17,16,14,19,14,20,17,16,16,17,17,16,17,17,17,17,17,16,17,17,17,16,17,17,18,15,17,17,17,17,17,17,17,18,16,16,15,16,17,17,16,17,16,17,17,17,16,17,17,19,17,17,22,7,16,17,17,16,17,17,17,17,17,16,17,17,17,17,19,18,15,18,16,15,18,17,17,19,14,17,13,19,17,16,17,17,15,19,16,17,18],"number_of_frames":121,"aperture_center_x":683,"aperture_center_y":384,"fixation_cross":true,"fixation_cross_width":15,"fixation_cross_height":15,"fixation_cross_color":"#111","fixation_cross_thickness":1,"border":true,"border_thickness":2,"border_color":"transparent","canvas_width":1366,"canvas_height":768,"trial_type":"rdk","trial_index":27,"plugin_version":"2.0.0","time_elapsed":179605,"target_direction":38,"distractor_direction":233},{"rt":14686,"stimulus":"\n        <div class=\"response-container\">\n          <div class=\"response-instruction\">\n            <p>rotate the bar by using the left and right arrow keys.</p>\n            <p>when you are determined, press the Enter key.</p>\n          </div>\n          <div class=\"response-circle\">\n            <div class=\"response-fixation\"></div>\n            <div id=\"bar\" class=\"rotating-bar\"></div>\n          </div>\n        </div>\n      ","response":"Enter","trial_type":"html-keyboard-response","trial_index":28,"plugin_version":"2.1.0","time_elapsed":194293,"random_initial_angle":352,"response_angle_css":409,"response_angle_rdk":41,"angular_error_target":3,"angular_error_distractor":168,"target_direction":38,"target_group":"black","reward_points":9},{"rt":null,"stimulus":"\n          <p style=\"color: #00FF00;\">Your reward: 9 points</p>\n        ","response":null,"trial_type":"html-keyboard-response","trial_index":29,"plugin_version":"2.1.0","time_elapsed":196299},{"rt":null,"stimulus":"<div class=\"fixation\" style=\"font-size: 60px;\">+</div>","response":null,"trial_type":"html-keyboard-response","trial_index":30,"plugin_version":"2.1.0","time_elapsed":197302},{"target_group":"black","target_index":1,"condition_label":"practice","rt":-1,"response":"","correct":false,"choices":"ALL_KEYS","correct_choice":["a"],"trial_duration":2000,"flip_timestamps":[],"response_ends_trial":false,"number_of_apertures":2,"number_of_dots":[91,100],"number_of_sets":1,"coherent_direction":[28,223],"coherence":1,"opposite_coherence":0,"dot_radius":2,"dot_side_length":1,"dot_life":-1,"move_distance":1,"aperture_width":300,"aperture_height":300,"dot_color":["white","black"],"dot_shape":"circle","background_color":"#AAA","RDK_type":3,"aperture_type":2,"reinsert_type":2,"frame_rate":16.760330578512395,"frame_rate_array":[13,16,18,13,18,17,17,17,19,15,17,17,17,17,17,18,16,17,16,17,18,16,18,16,17,18,17,16,16,17,18,16,17,16,17,17,16,20,14,32,1,15,17,17,16,17,16,18,20,16,16,17,16,16,15,19,17,17,17,17,15,19,17,17,16,17,17,17,17,17,16,14,20,16,17,17,17,17,17,16,17,17,16,16,17,17,17,17,16,17,17,17,16,17,16,17,17,17,17,27,8,13,17,17,16,17,17,17,17,15,18,17,17,17,17,15,20,17,17,17,17],"number_of_frames":121,"aperture_center_x":683,"aperture_center_y":384,"fixation_cross":true,"fixation_cross_width":15,"fixation_cross_height":15,"fixation_cross_color":"#111","fixation_cross_thickness":1,"border":true,"border_thickness":2,"border_color":"transparent","canvas_width":1366,"canvas_height":768,"trial_type":"rdk","trial_index":31,"plugin_version":"2.0.0","time_elapsed":199321,"target_direction":223,"distractor_direction":28},{"rt":21980,"stimulus":"\n        <div class=\"response-container\">\n          <div class=\"response-instruction\">\n            <p>rotate the bar by using the left and right arrow keys.</p>\n            <p>when you are determined, press the Enter key.</p>\n          </div>\n          <div class=\"response-circle\">\n            <div class=\"response-fixation\"></div>\n            <div id=\"bar\" class=\"rotating-bar\"></div>\n          </div>\n        </div>\n      ","response":"Enter","trial_type":"html-keyboard-response","trial_index":32,"plugin_version":"2.1.0","time_elapsed":221302,"random_initial_angle":62,"response_angle_css":239,"response_angle_rdk":211,"angular_error_target":-12,"angular_error_distractor":-177,"target_direction":223,"target_group":"black","reward_points":7},{"rt":null,"stimulus":"\n          <p style=\"color: #00FF00;\">Your reward: 7 points</p>\n        ","response":null,"trial_type":"html-keyboard-response","trial_index":33,"plugin_version":"2.1.0","time_elapsed":223313},{"rt":null,"stimulus":"<div class=\"fixation\" style=\"font-size: 60px;\">+</div>","response":null,"trial_type":"html-keyboard-response","trial_index":34,"plugin_version":"2.1.0","time_elapsed":224316},{"target_group":"white","target_index":0,"condition_label":"practice","rt":-1,"response":"","correct":false,"choices":"ALL_KEYS","correct_choice":["a"],"trial_duration":2000,"flip_timestamps":[],"response_ends_trial":false,"number_of_apertures":2,"number_of_dots":[100,100],"number_of_sets":1,"coherent_direction":[158,38],"coherence":1,"opposite_coherence":0,"dot_radius":2,"dot_side_length":1,"dot_life":-1,"move_distance":1,"aperture_width":300,"aperture_height":300,"dot_color":["white","black"],"dot_shape":"circle","background_color":"#AAA","RDK_type":3,"aperture_type":2,"reinsert_type":2,"frame_rate":16.75206611570248,"frame_rate_array":[11,19,15,17,19,15,17,18,15,17,17,17,17,17,17,18,15,17,16,17,17,18,15,18,15,16,18,16,17,17,17,17,17,19,15,16,17,18,30,6,15,17,17,17,16,17,17,27,6,20,11,33,2,15,17,17,17,20,18,16,17,17,15,19,17,17,17,16,17,17,17,17,17,17,15,15,16,17,17,16,17,19,14,21,17,17,17,17,15,17,17,17,17,17,17,17,17,17,26,10,11,17,16,17,17,17,17,17,17,16,17,16,17,16,16,17,17,17,17,17,17],"number_of_frames":121,"aperture_center_x":683,"aperture_center_y":384,"fixation_cross":true,"fixation_cross_width":15,"fixation_cross_height":15,"fixation_cross_color":"#111","fixation_cross_thickness":1,"border":true,"border_thickness":2,"border_color":"transparent","canvas_width":1366,"canvas_height":768,"trial_type":"rdk","trial_index":35,"plugin_version":"2.0.0","time_elapsed":226331,"target_direction":158,"distractor_direction":38},{"rt":11835,"stimulus":"\n        <div class=\"response-container\">\n          <div class=\"response-instruction\">\n            <p>rotate the bar by using the left and right arrow keys.</p>\n            <p>when you are determined, press the Enter key.</p>\n          </div>\n          <div class=\"response-circle\">\n            <div class=\"response-fixation\"></div>\n            <div id=\"bar\" class=\"rotating-bar\"></div>\n          </div>\n        </div>\n      ","response":"Enter","trial_type":"html-keyboard-response","trial_index":36,"plugin_version":"2.1.0","time_elapsed":238169,"random_initial_angle":124,"response_angle_css":43,"response_angle_rdk":47,"angular_error_target":-111,"angular_error_distractor":9,"target_direction":158,"target_group":"white","reward_points":0},{"rt":null,"stimulus":"\n          <p style=\"color: #FF3333;\">Your reward: 0 points</p>\n        ","response":null,"trial_type":"html-keyboard-response","trial_index":37,"plugin_version":"2.1.0","time_elapsed":240206},{"rt":null,"stimulus":"<div class=\"fixation\" style=\"font-size: 60px;\">+</div>","response":null,"trial_type":"html-keyboard-response","trial_index":38,"plugin_version":"2.1.0","time_elapsed":241218},{"target_group":"white","target_index":0,"condition_label":"practice","rt":-1,"response":"","correct":false,"choices":"ALL_KEYS","correct_choice":["a"],"trial_duration":2000,"flip_timestamps":[],"response_ends_trial":false,"number_of_apertures":2,"number_of_dots":[100,88],"number_of_sets":1,"coherent_direction":[234,138],"coherence":1,"opposite_coherence":0,"dot_radius":2,"dot_side_length":1,"dot_life":-1,"move_distance":1,"aperture_width":300,"aperture_height":300,"dot_color":["white","black"],"dot_shape":"circle","background_color":"#AAA","RDK_type":3,"aperture_type":2,"reinsert_type":2,"frame_rate":16.727272727272727,"frame_rate_array":[11,17,15,17,17,21,12,19,13,18,17,16,17,17,17,16,17,16,17,17,16,17,17,17,21,13,17,15,20,15,18,16,17,16,17,17,17,17,17,17,17,17,16,17,16,17,17,24,8,17,17,16,17,17,15,17,18,17,17,18,16,18,15,17,17,17,17,17,17,17,17,16,17,17,17,17,19,12,19,16,17,17,17,14,18,17,17,17,18,16,17,17,17,18,16,17,16,17,17,17,17,17,17,17,16,17,17,24,9,17,17,17,16,17,15,18,17,17,17,19,15],"number_of_frames":121,"aperture_center_x":683,"aperture_center_y":384,"fixation_cross":true,"fixation_cross_width":15,"fixation_cross_height":15,"fixation_cross_color":"#111","fixation_cross_thickness":1,"border":true,"border_thickness":2,"border_color":"transparent","canvas_width":1366,"canvas_height":768,"trial_type":"rdk","trial_index":39,"plugin_version":"2.0.0","time_elapsed":243235,"target_direction":234,"distractor_direction":138},{"rt":5663,"stimulus":"\n        <div class=\"response-container\">\n          <div class=\"response-instruction\">\n            <p>rotate the bar by using the left and right arrow keys.</p>\n            <p>when you are determined, press the Enter key.</p>\n          </div>\n          <div class=\"response-circle\">\n            <div class=\"response-fixation\"></div>\n            <div id=\"bar\" class=\"rotating-bar\"></div>\n          </div>\n        </div>\n      ","response":"Enter","trial_type":"html-keyboard-response","trial_index":40,"plugin_version":"2.1.0","time_elapsed":248899,"random_initial_angle":221,"response_angle_css":295,"response_angle_rdk":155,"angular_error_target":-79,"angular_error_distractor":17,"target_direction":234,"target_group":"white","reward_points":0},{"rt":null,"stimulus":"\n          <p style=\"color: #FF3333;\">Your reward: 0 points</p>\n        ","response":null,"trial_type":"html-keyboard-response","trial_index":41,"plugin_version":"2.1.0","time_elapsed":250915},{"rt":null,"stimulus":"<div class=\"fixation\" style=\"font-size: 60px;\">+</div>","response":null,"trial_type":"html-keyboard-response","trial_index":42,"plugin_version":"2.1.0","time_elapsed":251938},{"target_group":"black","target_index":1,"condition_label":"practice","rt":-1,"response":"","correct":false,"choices":"ALL_KEYS","correct_choice":["a"],"trial_duration":2000,"flip_timestamps":[],"response_ends_trial":false,"number_of_apertures":2,"number_of_dots":[72,100],"number_of_sets":1,"coherent_direction":[358,226],"coherence":1,"opposite_coherence":0,"dot_radius":2,"dot_side_length":1,"dot_life":-1,"move_distance":1,"aperture_width":300,"aperture_height":300,"dot_color":["white","black"],"dot_shape":"circle","background_color":"#AAA","RDK_type":3,"aperture_type":2,"reinsert_type":2,"frame_rate":17.6,"frame_rate_array":[1,15,19,15,17,92,11,21,19,10,36,13,16,19,15,38,12,17,18,17,15,17,17,15,20,16,17,16,17,16,15,20,15,15,17,17,16,17,16,17,17,17,17,17,17,17,17,17,15,19,16,17,17,19,14,19,17,20,14,17,17,17,17,17,15,22,12,17,17,17,17,17,17,17,16,17,17,16,17,17,16,15,17,18,17,19,17,16,18,13,19,17,16,14,17,15,21,16,17,17,17,15,16,19,17,17,17,17,17,15,17,17,21,15,24],"number_of_frames":115,"aperture_center_x":683,"aperture_center_y":384,"fixation_cross":true,"fixation_cross_width":15,"fixation_cross_height":15,"fixation_cross_color":"#111","fixation_cross_thickness":1,"border":true,"border_thickness":2,"border_color":"transparent","canvas_width":1366,"canvas_height":768,"trial_type":"rdk","trial_index":43,"plugin_version":"2.0.0","time_elapsed":253974,"target_direction":226,"distractor_direction":358},{"rt":4420,"stimulus":"\n        <div class=\"response-container\">\n          <div class=\"response-instruction\">\n            <p>rotate the bar by using the left and right arrow keys.</p>\n            <p>when you are determined, press the Enter key.</p>\n          </div>\n          <div class=\"response-circle\">\n            <div class=\"response-fixation\"></div>\n            <div id=\"bar\" class=\"rotating-bar\"></div>\n          </div>\n        </div>\n      ","response":"Enter","trial_type":"html-keyboard-response","trial_index":44,"plugin_version":"2.1.0","time_elapsed":258396,"random_initial_angle":61,"response_angle_css":194,"response_angle_rdk":256,"angular_error_target":30,"angular_error_distractor":-102,"target_direction":226,"target_group":"black","reward_points":4},{"rt":null,"stimulus":"\n          <p style=\"color: #00FF00;\">Your reward: 4 points</p>\n        ","response":null,"trial_type":"html-keyboard-response","trial_index":45,"plugin_version":"2.1.0","time_elapsed":260404},{"rt":null,"stimulus":"<div class=\"fixation\" style=\"font-size: 60px;\">+</div>","response":null,"trial_type":"html-keyboard-response","trial_index":46,"plugin_version":"2.1.0","time_elapsed":261412},{"target_group":"black","target_index":1,"condition_label":"practice","rt":-1,"response":"","correct":false,"choices":"ALL_KEYS","correct_choice":["a"],"trial_duration":2000,"flip_timestamps":[],"response_ends_trial":false,"number_of_apertures":2,"number_of_dots":[65,100],"number_of_sets":1,"coherent_direction":[165,26],"coherence":1,"opposite_coherence":0,"dot_radius":2,"dot_side_length":1,"dot_life":-1,"move_distance":1,"aperture_width":300,"aperture_height":300,"dot_color":["white","black"],"dot_shape":"circle","background_color":"#AAA","RDK_type":3,"aperture_type":2,"reinsert_type":2,"frame_rate":16.783333333333335,"frame_rate_array":[13,19,14,17,17,17,17,17,16,16,17,17,17,17,17,17,16,17,17,17,17,17,17,17,17,17,17,18,15,18,16,17,18,15,17,28,5,17,16,17,18,15,17,19,20,11,18,15,18,15,17,18,15,17,18,15,17,17,17,19,15,17,18,15,17,17,17,17,17,17,18,15,18,15,17,17,17,17,17,17,17,17,17,16,17,17,17,17,17,17,17,17,18,16,17,26,7,17,17,17,17,17,17,18,16,17,18,15,17,17,17,18,15,17,18,15,17,17,17,17],"number_of_frames":120,"aperture_center_x":683,"aperture_center_y":384,"fixation_cross":true,"fixation_cross_width":15,"fixation_cross_height":15,"fixation_cross_color":"#111","fixation_cross_thickness":1,"border":true,"border_thickness":2,"border_color":"transparent","canvas_width":1366,"canvas_height":768,"trial_type":"rdk","trial_index":47,"plugin_version":"2.0.0","time_elapsed":263417,"target_direction":26,"distractor_direction":165},{"rt":3100,"stimulus":"\n        <div class=\"response-container\">\n          <div class=\"response-instruction\">\n            <p>rotate the bar by using the left and right arrow keys.</p>\n            <p>when you are determined, press the Enter key.</p>\n          </div>\n          <div class=\"response-circle\">\n            <div class=\"response-fixation\"></div>\n            <div id=\"bar\" class=\"rotating-bar\"></div>\n          </div>\n        </div>\n      ","response":"Enter","trial_type":"html-keyboard-response","trial_index":48,"plugin_version":"2.1.0","time_elapsed":266518,"random_initial_angle":22,"response_angle_css":56,"response_angle_rdk":34,"angular_error_target":8,"angular_error_distractor":-131,"target_direction":26,"target_group":"black","reward_points":8},{"rt":null,"stimulus":"\n          <p style=\"color: #00FF00;\">Your reward: 8 points</p>\n        ","response":null,"trial_type":"html-keyboard-response","trial_index":49,"plugin_version":"2.1.0","time_elapsed":268523},{"rt":null,"stimulus":"<div class=\"fixation\" style=\"font-size: 60px;\">+</div>","response":null,"trial_type":"html-keyboard-response","trial_index":50,"plugin_version":"2.1.0","time_elapsed":269546},{"target_group":"white","target_index":0,"condition_label":"practice","rt":-1,"response":"","correct":false,"choices":"ALL_KEYS","correct_choice":["a"],"trial_duration":2000,"flip_timestamps":[],"response_ends_trial":false,"number_of_apertures":2,"number_of_dots":[100,78],"number_of_sets":1,"coherent_direction":[237,78],"coherence":1,"opposite_coherence":0,"dot_radius":2,"dot_side_length":1,"dot_life":-1,"move_distance":1,"aperture_width":300,"aperture_height":300,"dot_color":["white","black"],"dot_shape":"circle","background_color":"#AAA","RDK_type":3,"aperture_type":2,"reinsert_type":2,"frame_rate":16.727272727272727,"frame_rate_array":[17,12,16,18,15,17,17,16,19,15,17,17,17,17,16,17,17,17,17,17,17,17,17,17,17,18,16,30,6,16,17,17,16,17,17,17,17,17,17,16,17,17,15,18,17,16,18,16,17,17,16,16,18,17,16,17,17,15,18,18,16,16,17,15,18,17,17,17,16,16,17,18,16,17,16,16,18,16,17,16,17,17,14,17,17,16,18,18,15,17,16,18,16,17,18,16,17,16,18,17,17,16,17,16,18,16,16,17,16,17,17,16,17,16,18,17,17,16,17,16,18],"number_of_frames":121,"aperture_center_x":683,"aperture_center_y":384,"fixation_cross":true,"fixation_cross_width":15,"fixation_cross_height":15,"fixation_cross_color":"#111","fixation_cross_thickness":1,"border":true,"border_thickness":2,"border_color":"transparent","canvas_width":1366,"canvas_height":768,"trial_type":"rdk","trial_index":51,"plugin_version":"2.0.0","time_elapsed":271566,"target_direction":237,"distractor_direction":78},{"rt":7820,"stimulus":"\n        <div class=\"response-container\">\n          <div class=\"response-instruction\">\n            <p>rotate the bar by using the left and right arrow keys.</p>\n            <p>when you are determined, press the Enter key.</p>\n          </div>\n          <div class=\"response-circle\">\n            <div class=\"response-fixation\"></div>\n            <div id=\"bar\" class=\"rotating-bar\"></div>\n          </div>\n        </div>\n      ","response":"Enter","trial_type":"html-keyboard-response","trial_index":52,"plugin_version":"2.1.0","time_elapsed":279387,"random_initial_angle":272,"response_angle_css":178,"response_angle_rdk":272,"angular_error_target":35,"angular_error_distractor":-166,"target_direction":237,"target_group":"white","reward_points":3},{"rt":null,"stimulus":"\n          <p style=\"color: #00FF00;\">Your reward: 3 points</p>\n        ","response":null,"trial_type":"html-keyboard-response","trial_index":53,"plugin_version":"2.1.0","time_elapsed":281394},{"rt":null,"stimulus":"<div class=\"fixation\" style=\"font-size: 60px;\">+</div>","response":null,"trial_type":"html-keyboard-response","trial_index":54,"plugin_version":"2.1.0","time_elapsed":282416},{"target_group":"white","target_index":0,"condition_label":"practice","rt":-1,"response":"","correct":false,"choices":"ALL_KEYS","correct_choice":["a"],"trial_duration":2000,"flip_timestamps":[],"response_ends_trial":false,"number_of_apertures":2,"number_of_dots":[100,84],"number_of_sets":1,"coherent_direction":[315,207],"coherence":1,"opposite_coherence":0,"dot_radius":2,"dot_side_length":1,"dot_life":-1,"move_distance":1,"aperture_width":300,"aperture_height":300,"dot_color":["white","black"],"dot_shape":"circle","background_color":"#AAA","RDK_type":3,"aperture_type":2,"reinsert_type":2,"frame_rate":16.68595041322314,"frame_rate_array":[14,14,19,15,18,16,17,17,15,18,17,15,20,16,16,17,17,17,17,16,16,16,18,16,18,16,18,15,17,17,17,18,16,17,16,17,25,8,16,20,15,16,18,16,16,17,17,16,17,18,16,17,16,16,18,17,16,17,17,16,16,17,17,17,16,17,16,17,17,17,16,17,17,17,17,17,17,15,17,16,17,17,17,19,15,17,17,15,17,18,15,18,16,17,17,16,25,9,17,16,16,17,17,17,16,23,9,19,16,17,17,18,16,16,17,16,18,16,17,16,17],"number_of_frames":121,"aperture_center_x":683,"aperture_center_y":384,"fixation_cross":true,"fixation_cross_width":15,"fixation_cross_height":15,"fixation_cross_color":"#111","fixation_cross_thickness":1,"border":true,"border_thickness":2,"border_color":"transparent","canvas_width":1366,"canvas_height":768,"trial_type":"rdk","trial_index":55,"plugin_version":"2.0.0","time_elapsed":284432,"target_direction":315,"distractor_direction":207},{"rt":6307,"stimulus":"\n        <div class=\"response-container\">\n          <div class=\"response-instruction\">\n            <p>rotate the bar by using the left and right arrow keys.</p>\n            <p>when you are determined, press the Enter key.</p>\n          </div>\n          <div class=\"response-circle\">\n            <div class=\"response-fixation\"></div>\n            <div id=\"bar\" class=\"rotating-bar\"></div>\n          </div>\n        </div>\n      ","response":"Enter","trial_type":"html-keyboard-response","trial_index":56,"plugin_version":"2.1.0","time_elapsed":290740,"random_initial_angle":58,"response_angle_css":251,"response_angle_rdk":199,"angular_error_target":-116,"angular_error_distractor":-8,"target_direction":315,"target_group":"white","reward_points":0},{"rt":null,"stimulus":"\n          <p style=\"color: #FF3333;\">Your reward: 0 points</p>\n        ","response":null,"trial_type":"html-keyboard-response","trial_index":57,"plugin_version":"2.1.0","time_elapsed":292753},{"rt":null,"stimulus":"<div class=\"fixation\" style=\"font-size: 60px;\">+</div>","response":null,"trial_type":"html-keyboard-response","trial_index":58,"plugin_version":"2.1.0","time_elapsed":293767},{"target_group":"white","target_index":0,"condition_label":"practice","rt":-1,"response":"","correct":false,"choices":"ALL_KEYS","correct_choice":["a"],"trial_duration":2000,"flip_timestamps":[],"response_ends_trial":false,"number_of_apertures":2,"number_of_dots":[100,77],"number_of_sets":1,"coherent_direction":[200,94],"coherence":1,"opposite_coherence":0,"dot_radius":2,"dot_side_length":1,"dot_life":-1,"move_distance":1,"aperture_width":300,"aperture_height":300,"dot_color":["white","black"],"dot_shape":"circle","background_color":"#AAA","RDK_type":3,"aperture_type":2,"reinsert_type":2,"frame_rate":16.669421487603305,"frame_rate_array":[12,12,16,18,14,18,16,18,16,17,15,18,17,18,15,22,11,17,17,16,17,16,16,17,18,16,17,17,16,17,16,17,16,17,17,17,17,17,18,16,17,16,17,17,17,16,17,17,17,17,17,16,16,18,17,16,18,15,17,17,15,18,16,18,16,17,17,17,17,17,17,17,15,18,17,25,8,17,14,19,28,7,16,17,16,17,17,17,17,16,16,17,17,17,17,16,17,17,17,18,15,17,17,17,16,17,17,16,17,17,17,16,17,15,19,17,15,19,17,17,17],"number_of_frames":121,"aperture_center_x":683,"aperture_center_y":384,"fixation_cross":true,"fixation_cross_width":15,"fixation_cross_height":15,"fixation_cross_color":"#111","fixation_cross_thickness":1,"border":true,"border_thickness":2,"border_color":"transparent","canvas_width":1366,"canvas_height":768,"trial_type":"rdk","trial_index":59,"plugin_version":"2.0.0","time_elapsed":295782,"target_direction":200,"distractor_direction":94},{"rt":4326,"stimulus":"\n        <div class=\"response-container\">\n          <div class=\"response-instruction\">\n            <p>rotate the bar by using the left and right arrow keys.</p>\n            <p>when you are determined, press the Enter key.</p>\n          </div>\n          <div class=\"response-circle\">\n            <div class=\"response-fixation\"></div>\n            <div id=\"bar\" class=\"rotating-bar\"></div>\n          </div>\n        </div>\n      ","response":"Enter","trial_type":"html-keyboard-response","trial_index":60,"plugin_version":"2.1.0","time_elapsed":300109,"random_initial_angle":296,"response_angle_css":238,"response_angle_rdk":212,"angular_error_target":12,"angular_error_distractor":118,"target_direction":200,"target_group":"white","reward_points":7},{"rt":null,"stimulus":"\n          <p style=\"color: #00FF00;\">Your reward: 7 points</p>\n        ","response":null,"trial_type":"html-keyboard-response","trial_index":61,"plugin_version":"2.1.0","time_elapsed":302123},{"rt":null,"stimulus":"<div class=\"fixation\" style=\"font-size: 60px;\">+</div>","response":null,"trial_type":"html-keyboard-response","trial_index":62,"plugin_version":"2.1.0","time_elapsed":303139},{"target_group":"white","target_index":0,"condition_label":"practice","rt":-1,"response":"","correct":false,"choices":"ALL_KEYS","correct_choice":["a"],"trial_duration":2000,"flip_timestamps":[],"response_ends_trial":false,"number_of_apertures":2,"number_of_dots":[100,81],"number_of_sets":1,"coherent_direction":[359,216],"coherence":1,"opposite_coherence":0,"dot_radius":2,"dot_side_length":1,"dot_life":-1,"move_distance":1,"aperture_width":300,"aperture_height":300,"dot_color":["white","black"],"dot_shape":"circle","background_color":"#AAA","RDK_type":3,"aperture_type":2,"reinsert_type":2,"frame_rate":16.791666666666668,"frame_rate_array":[15,17,17,17,17,17,17,17,16,17,17,17,17,17,16,17,17,17,17,17,17,17,16,17,17,18,15,17,17,17,17,17,17,17,17,17,18,15,17,17,17,17,17,17,18,17,15,17,17,17,17,17,29,6,15,18,16,17,18,15,17,17,17,18,15,17,18,15,17,18,15,17,17,17,18,15,17,18,15,17,17,16,17,18,15,18,15,17,18,15,17,18,19,13,17,17,18,16,17,18,15,17,18,15,17,17,17,19,15,17,18,15,27,8,17,15,16,17,18,16],"number_of_frames":120,"aperture_center_x":683,"aperture_center_y":384,"fixation_cross":true,"fixation_cross_width":15,"fixation_cross_height":15,"fixation_cross_color":"#111","fixation_cross_thickness":1,"border":true,"border_thickness":2,"border_color":"transparent","canvas_width":1366,"canvas_height":768,"trial_type":"rdk","trial_index":63,"plugin_version":"2.0.0","time_elapsed":305148,"target_direction":359,"distractor_direction":216},{"rt":7524,"stimulus":"\n        <div class=\"response-container\">\n          <div class=\"response-instruction\">\n            <p>rotate the bar by using the left and right arrow keys.</p>\n            <p>when you are determined, press the Enter key.</p>\n          </div>\n          <div class=\"response-circle\">\n            <div class=\"response-fixation\"></div>\n            <div id=\"bar\" class=\"rotating-bar\"></div>\n          </div>\n        </div>\n      ","response":"Enter","trial_type":"html-keyboard-response","trial_index":64,"plugin_version":"2.1.0","time_elapsed":312673,"random_initial_angle":134,"response_angle_css":313,"response_angle_rdk":137,"angular_error_target":138,"angular_error_distractor":-79,"target_direction":359,"target_group":"white","reward_points":0},{"rt":null,"stimulus":"\n          <p style=\"color: #FF3333;\">Your reward: 0 points</p>\n        ","response":null,"trial_type":"html-keyboard-response","trial_index":65,"plugin_version":"2.1.0","time_elapsed":314696},{"rt":24093,"stimulus":"\n        <div class=\"instructions-container\">\n          <h2>End of Practice</h2>\n          <p>You have completed the practice trials.</p>\n          <p>Press <strong>Enter</strong> key to begin the main experiment.</p>\n        </div>\n      ","response":"Enter","trial_type":"html-keyboard-response","trial_index":66,"plugin_version":"2.1.0","time_elapsed":338790},{"rt":null,"stimulus":"<div class=\"fixation\" style=\"font-size: 60px;\">+</div>","response":null,"trial_type":"html-keyboard-response","trial_index":67,"plugin_version":"2.1.0","time_elapsed":339800},{"target_group":"black","condition_label":"B_H_vs_W_L_rep19","target_direction":101,"distractor_direction":197,"session_rotation":342,"rt":-1,"response":"","correct":false,"choices":"ALL_KEYS","correct_choice":["a"],"trial_duration":2000,"flip_timestamps":[],"response_ends_trial":false,"number_of_apertures":200,"number_of_dots":[1,1,1,1,1,1,1,1,1,1,1,1,1,1,1,1,1,1,1,1,1,1,1,1,1,1,1,1,1,1,1,1,1,1,1,1,1,1,1,1,1,1,1,1,1,1,1,1,1,1,1,1,1,1,1,1,1,1,1,1,1,1,1,1,1,1,1,1,1,1,1,1,1,1,1,1,1,1,1,1,1,1,1,1,1,1,1,1,1,1,1,1,1,1,1,1,1,1,1,1,1,1,1,1,1,1,1,1,1,1,1,1,1,1,1,1,1,1,1,1,1,1,1,1,1,1,1,1,1,1,1,1,1,1,1,1,1,1,1,1,1,1,1,1,1,1,1,1,1,1,1,1,1,1,1,1,1,1,1,1,1,1,1,1,1,1,1,1,1,1,1,1,1,1,1,1,1,1,1,1,1,1,1,1,1,1,1,1,1,1,1,1,1,1,1,1,1,1,1,1],"number_of_sets":1,"coherent_direction":[197,101,197,101,197,101,197,101,101,197,197,197,197,197,197,197,101,197,101,197,101,101,101,197,101,197,101,197,197,101,197,197,197,101,101,101,197,101,197,101,197,197,197,101,197,197,197,197,197,101,101,101,101,197,197,101,101,101,197,197,197,101,101,101,197,197,197,101,197,197,197,101,101,197,101,197,197,197,197,197,197,101,101,101,101,197,101,101,101,197,197,101,101,101,197,197,197,197,197,101,101,197,101,101,101,197,197,101,197,101,197,101,101,101,197,197,197,101,101,101,101,101,197,197,101,197,101,197,101,101,101,101,197,101,197,197,197,101,197,101,101,101,197,101,101,101,101,101,197,101,101,101,197,197,197,101,197,101,101,197,101,197,197,101,197,101,197,197,101,197,197,101,101,197,197,101,197,197,101,101,101,197,101,101,197,101,101,197,101,101,197,101,197,197,101,101,197,101,197,197],"coherence":1,"opposite_coherence":0,"dot_radius":2,"dot_side_length":1,"dot_life":-1,"move_distance":1,"aperture_width":300,"aperture_height":300,"dot_color":["white","black","white","black","white","black","white","black","black","white","white","white","white","white","white","white","black","white","black","white","black","black","black","white","black","white","black","white","white","black","white","white","white","black","black","black","white","black","white","black","white","white","white","black","white","white","white","white","white","black","black","black","black","white","white","black","black","black","white","white","white","black","black","black","white","white","white","black","white","white","white","black","black","white","black","white","white","white","white","white","white","black","black","black","black","white","black","black","black","white","white","black","black","black","white","white","white","white","white","black","black","white","black","black","black","white","white","black","white","black","white","black","black","black","white","white","white","black","black","black","black","black","white","white","black","white","black","white","black","black","black","black","white","black","white","white","white","black","white","black","black","black","white","black","black","black","black","black","white","black","black","black","white","white","white","black","white","black","black","white","black","white","white","black","white","black","white","white","black","white","white","black","black","white","white","black","white","white","black","black","black","white","black","black","white","black","black","white","black","black","white","black","white","white","black","black","white","black","white","white"],"dot_shape":"circle","background_color":"#AAA","RDK_type":3,"aperture_type":2,"reinsert_type":2,"frame_rate":17.63478260869565,"frame_rate_array":[3,17,19,15,17,17,16,18,18,16,15,17,17,33,17,19,15,17,17,17,17,17,37,13,33,18,15,34,34,32,17,17,17,16,17,17,17,17,16,17,17,17,17,17,17,17,17,17,17,17,17,17,17,17,17,16,17,17,17,17,17,17,17,17,16,17,17,25,12,14,17,17,16,17,17,17,17,17,17,17,17,17,17,17,17,17,16,17,18,15,17,16,17,17,17,17,17,17,17,16,18,17,18,17,16,19,14,17,17,17,17,17,19,17,17],"number_of_frames":115,"aperture_center_x":683,"aperture_center_y":384,"fixation_cross":true,"fixation_cross_width":15,"fixation_cross_height":15,"fixation_cross_color":"#111","fixation_cross_thickness":1,"border":true,"border_thickness":2,"border_color":"transparent","canvas_width":1366,"canvas_height":768,"trial_type":"rdk","trial_index":68,"plugin_version":"2.0.0","time_elapsed":341813},{"rt":8804,"stimulus":"\n        <div class=\"response-container\">\n          <div class=\"response-instruction\">\n            <p>rotate the bar by using the left and right arrow keys.</p>\n            <p>when you are determined, press the Enter key.</p>\n          </div>\n          <div class=\"response-circle\">\n            <div class=\"response-fixation\"></div>\n            <div id=\"bar\" class=\"rotating-bar\"></div>\n          </div>\n        </div>\n      ","response":"Enter","trial_type":"html-keyboard-response","trial_index":69,"plugin_version":"2.1.0","time_elapsed":350619,"random_initial_angle":191,"response_angle_css":333,"response_angle_rdk":117,"angular_error_target":16,"angular_error_distractor":-80,"target_direction":101,"target_group":"black","reward_points":6},{"rt":null,"stimulus":"\n          <p style=\"color: #00FF00;\">Your reward: 6 points</p>\n        ","response":null,"trial_type":"html-keyboard-response","trial_index":70,"plugin_version":"2.1.0","time_elapsed":352637},{"rt":null,"stimulus":"<div class=\"fixation\" style=\"font-size: 60px;\">+</div>","response":null,"trial_type":"html-keyboard-response","trial_index":71,"plugin_version":"2.1.0","time_elapsed":353648},{"target_group":"white","condition_label":"W_H_vs_B_L_rep15","target_direction":11,"distractor_direction":267,"session_rotation":342,"rt":-1,"response":"","correct":false,"choices":"ALL_KEYS","correct_choice":["a"],"trial_duration":2000,"flip_timestamps":[],"response_ends_trial":false,"number_of_apertures":200,"number_of_dots":[1,1,1,1,1,1,1,1,1,1,1,1,1,1,1,1,1,1,1,1,1,1,1,1,1,1,1,1,1,1,1,1,1,1,1,1,1,1,1,1,1,1,1,1,1,1,1,1,1,1,1,1,1,1,1,1,1,1,1,1,1,1,1,1,1,1,1,1,1,1,1,1,1,1,1,1,1,1,1,1,1,1,1,1,1,1,1,1,1,1,1,1,1,1,1,1,1,1,1,1,1,1,1,1,1,1,1,1,1,1,1,1,1,1,1,1,1,1,1,1,1,1,1,1,1,1,1,1,1,1,1,1,1,1,1,1,1,1,1,1,1,1,1,1,1,1,1,1,1,1,1,1,1,1,1,1,1,1,1,1,1,1,1,1,1,1,1,1,1,1,1,1,1,1,1,1,1,1,1,1,1,1,1,1,1,1,1,1,1,1,1,1,1,1,1,1,1,1,1,1],"number_of_sets":1,"coherent_direction":[267,11,11,11,11,11,11,11,267,267,267,267,267,267,267,267,11,11,267,267,11,11,267,11,11,267,267,267,267,11,11,11,11,267,267,267,267,267,267,11,11,11,11,267,267,267,267,267,267,11,11,11,11,11,11,11,11,11,267,267,11,267,11,267,11,11,267,267,11,11,267,11,11,267,267,267,267,11,267,11,11,11,11,11,11,267,267,267,11,11,267,267,267,11,267,267,267,267,267,11,11,11,267,11,11,267,267,11,11,267,267,267,267,267,267,267,11,267,11,267,267,267,11,267,267,11,11,267,267,11,11,11,11,267,11,11,11,11,11,267,11,267,267,11,11,11,267,267,11,267,267,11,11,11,11,267,11,267,267,11,267,267,11,11,11,11,267,11,11,267,267,267,267,267,267,11,11,11,11,267,267,11,267,267,11,11,11,267,11,11,267,11,11,11,267,267,11,267,267,267],"coherence":1,"opposite_coherence":0,"dot_radius":2,"dot_side_length":1,"dot_life":-1,"move_distance":1,"aperture_width":300,"aperture_height":300,"dot_color":["black","white","white","white","white","white","white","white","black","black","black","black","black","black","black","black","white","white","black","black","white","white","black","white","white","black","black","black","black","white","white","white","white","black","black","black","black","black","black","white","white","white","white","black","black","black","black","black","black","white","white","white","white","white","white","white","white","white","black","black","white","black","white","black","white","white","black","black","white","white","black","white","white","black","black","black","black","white","black","white","white","white","white","white","white","black","black","black","white","white","black","black","black","white","black","black","black","black","black","white","white","white","black","white","white","black","black","white","white","black","black","black","black","black","black","black","white","black","white","black","black","black","white","black","black","white","white","black","black","white","white","white","white","black","white","white","white","white","white","black","white","black","black","white","white","white","black","black","white","black","black","white","white","white","white","black","white","black","black","white","black","black","white","white","white","white","black","white","white","black","black","black","black","black","black","white","white","white","white","black","black","white","black","black","white","white","white","black","white","white","black","white","white","white","black","black","white","black","black","black"],"dot_shape":"circle","background_color":"#AAA","RDK_type":3,"aperture_type":2,"reinsert_type":2,"frame_rate":16.825,"frame_rate_array":[24,13,8,13,17,17,16,17,16,17,17,17,16,21,13,17,16,17,17,17,17,18,16,17,17,17,17,17,17,18,16,16,17,19,16,14,25,16,10,15,17,17,16,18,16,17,17,16,17,16,16,17,17,17,18,14,21,13,17,51,3,11,21,18,16,17,16,12,22,14,14,17,17,18,16,22,16,17,17,16,17,17,16,17,18,16,16,18,15,19,17,16,16,17,17,18,16,13,21,16,17,16,17,16,17,17,17,13,20,18,16,17,17,17,17,16,15,18,18,15],"number_of_frames":120,"aperture_center_x":683,"aperture_center_y":384,"fixation_cross":true,"fixation_cross_width":15,"fixation_cross_height":15,"fixation_cross_color":"#111","fixation_cross_thickness":1,"border":true,"border_thickness":2,"border_color":"transparent","canvas_width":1366,"canvas_height":768,"trial_type":"rdk","trial_index":72,"plugin_version":"2.0.0","time_elapsed":355665},{"rt":21295,"stimulus":"\n        <div class=\"response-container\">\n          <div class=\"response-instruction\">\n            <p>rotate the bar by using the left and right arrow keys.</p>\n            <p>when you are determined, press the Enter key.</p>\n          </div>\n          <div class=\"response-circle\">\n            <div class=\"response-fixation\"></div>\n            <div id=\"bar\" class=\"rotating-bar\"></div>\n          </div>\n        </div>\n      ","response":"Enter","trial_type":"html-keyboard-response","trial_index":73,"plugin_version":"2.1.0","time_elapsed":376961,"random_initial_angle":48,"response_angle_css":186,"response_angle_rdk":264,"angular_error_target":-107,"angular_error_distractor":-3,"target_direction":11,"target_group":"white","reward_points":0},{"rt":null,"stimulus":"\n          <p style=\"color: #FF3333;\">Your reward: 0 points</p>\n        ","response":null,"trial_type":"html-keyboard-response","trial_index":74,"plugin_version":"2.1.0","time_elapsed":378962},{"rt":null,"stimulus":"<div class=\"fixation\" style=\"font-size: 60px;\">+</div>","response":null,"trial_type":"html-keyboard-response","trial_index":75,"plugin_version":"2.1.0","time_elapsed":379975},{"target_group":"white","condition_label":"W_H_vs_B_L_rep16","target_direction":25,"distractor_direction":271,"session_rotation":342,"rt":-1,"response":"","correct":false,"choices":"ALL_KEYS","correct_choice":["a"],"trial_duration":2000,"flip_timestamps":[],"response_ends_trial":false,"number_of_apertures":200,"number_of_dots":[1,1,1,1,1,1,1,1,1,1,1,1,1,1,1,1,1,1,1,1,1,1,1,1,1,1,1,1,1,1,1,1,1,1,1,1,1,1,1,1,1,1,1,1,1,1,1,1,1,1,1,1,1,1,1,1,1,1,1,1,1,1,1,1,1,1,1,1,1,1,1,1,1,1,1,1,1,1,1,1,1,1,1,1,1,1,1,1,1,1,1,1,1,1,1,1,1,1,1,1,1,1,1,1,1,1,1,1,1,1,1,1,1,1,1,1,1,1,1,1,1,1,1,1,1,1,1,1,1,1,1,1,1,1,1,1,1,1,1,1,1,1,1,1,1,1,1,1,1,1,1,1,1,1,1,1,1,1,1,1,1,1,1,1,1,1,1,1,1,1,1,1,1,1,1,1,1,1,1,1,1,1,1,1,1,1,1,1,1,1,1,1,1,1,1,1,1,1,1,1],"number_of_sets":1,"coherent_direction":[25,25,271,271,25,271,271,25,271,25,25,271,25,271,271,25,25,25,271,271,25,25,271,271,271,25,271,271,271,25,271,25,271,271,25,25,271,271,271,271,25,25,271,25,271,25,271,25,271,271,271,271,25,271,25,25,25,271,271,25,25,25,25,25,271,25,25,25,271,271,271,271,25,25,271,25,25,25,25,25,25,271,271,25,25,271,271,271,271,25,271,25,25,25,271,25,271,25,25,271,25,271,271,271,25,25,271,271,271,271,271,25,25,25,25,271,271,25,25,271,25,271,25,25,271,25,25,271,271,271,271,271,271,271,25,25,271,271,271,271,25,271,271,271,271,25,25,271,25,271,25,271,271,25,271,25,25,271,271,25,25,25,271,271,25,271,25,271,25,271,271,271,271,25,25,271,25,25,271,25,25,25,271,25,25,25,271,271,25,25,25,25,271,25,25,25,271,25,271,25],"coherence":1,"opposite_coherence":0,"dot_radius":2,"dot_side_length":1,"dot_life":-1,"move_distance":1,"aperture_width":300,"aperture_height":300,"dot_color":["white","white","black","black","white","black","black","white","black","white","white","black","white","black","black","white","white","white","black","black","white","white","black","black","black","white","black","black","black","white","black","white","black","black","white","white","black","black","black","black","white","white","black","white","black","white","black","white","black","black","black","black","white","black","white","white","white","black","black","white","white","white","white","white","black","white","white","white","black","black","black","black","white","white","black","white","white","white","white","white","white","black","black","white","white","black","black","black","black","white","black","white","white","white","black","white","black","white","white","black","white","black","black","black","white","white","black","black","black","black","black","white","white","white","white","black","black","white","white","black","white","black","white","white","black","white","white","black","black","black","black","black","black","black","white","white","black","black","black","black","white","black","black","black","black","white","white","black","white","black","white","black","black","white","black","white","white","black","black","white","white","white","black","black","white","black","white","black","white","black","black","black","black","white","white","black","white","white","black","white","white","white","black","white","white","white","black","black","white","white","white","white","black","white","white","white","black","white","black","white"],"dot_shape":"circle","background_color":"#AAA","RDK_type":3,"aperture_type":2,"reinsert_type":2,"frame_rate":16.760330578512395,"frame_rate_array":[18,13,14,15,17,16,17,16,36,7,9,15,16,17,16,17,19,14,17,16,17,17,17,17,17,17,16,16,18,17,17,17,17,17,16,18,17,16,17,17,16,16,18,17,17,17,17,16,17,18,17,36,10,9,10,21,18,17,16,17,17,11,23,16,17,17,16,17,21,13,12,17,17,17,17,17,17,17,17,17,16,17,17,17,17,17,16,17,17,18,16,17,16,20,13,19,17,17,15,19,17,17,17,17,17,17,17,14,16,19,14,17,17,17,17,17,17,17,19,17,17],"number_of_frames":121,"aperture_center_x":683,"aperture_center_y":384,"fixation_cross":true,"fixation_cross_width":15,"fixation_cross_height":15,"fixation_cross_color":"#111","fixation_cross_thickness":1,"border":true,"border_thickness":2,"border_color":"transparent","canvas_width":1366,"canvas_height":768,"trial_type":"rdk","trial_index":76,"plugin_version":"2.0.0","time_elapsed":381995},{"rt":7458,"stimulus":"\n        <div class=\"response-container\">\n          <div class=\"response-instruction\">\n            <p>rotate the bar by using the left and right arrow keys.</p>\n            <p>when you are determined, press the Enter key.</p>\n          </div>\n          <div class=\"response-circle\">\n            <div class=\"response-fixation\"></div>\n            <div id=\"bar\" class=\"rotating-bar\"></div>\n          </div>\n        </div>\n      ","response":"Enter","trial_type":"html-keyboard-response","trial_index":77,"plugin_version":"2.1.0","time_elapsed":389455,"random_initial_angle":32,"response_angle_css":195,"response_angle_rdk":255,"angular_error_target":-130,"angular_error_distractor":-16,"target_direction":25,"target_group":"white","reward_points":0},{"rt":null,"stimulus":"\n          <p style=\"color: #FF3333;\">Your reward: 0 points</p>\n        ","response":null,"trial_type":"html-keyboard-response","trial_index":78,"plugin_version":"2.1.0","time_elapsed":391474},{"rt":null,"stimulus":"<div class=\"fixation\" style=\"font-size: 60px;\">+</div>","response":null,"trial_type":"html-keyboard-response","trial_index":79,"plugin_version":"2.1.0","time_elapsed":392483},{"target_group":"white","condition_label":"W_H_vs_B_L_rep17","target_direction":14,"distractor_direction":265,"session_rotation":342,"rt":-1,"response":"","correct":false,"choices":"ALL_KEYS","correct_choice":["a"],"trial_duration":2000,"flip_timestamps":[],"response_ends_trial":false,"number_of_apertures":200,"number_of_dots":[1,1,1,1,1,1,1,1,1,1,1,1,1,1,1,1,1,1,1,1,1,1,1,1,1,1,1,1,1,1,1,1,1,1,1,1,1,1,1,1,1,1,1,1,1,1,1,1,1,1,1,1,1,1,1,1,1,1,1,1,1,1,1,1,1,1,1,1,1,1,1,1,1,1,1,1,1,1,1,1,1,1,1,1,1,1,1,1,1,1,1,1,1,1,1,1,1,1,1,1,1,1,1,1,1,1,1,1,1,1,1,1,1,1,1,1,1,1,1,1,1,1,1,1,1,1,1,1,1,1,1,1,1,1,1,1,1,1,1,1,1,1,1,1,1,1,1,1,1,1,1,1,1,1,1,1,1,1,1,1,1,1,1,1,1,1,1,1,1,1,1,1,1,1,1,1,1,1,1,1,1,1,1,1,1,1,1,1,1,1,1,1,1,1,1,1,1,1,1,1],"number_of_sets":1,"coherent_direction":[265,14,14,265,14,265,14,14,14,14,265,265,14,14,265,14,265,14,14,265,265,14,265,265,14,265,14,265,14,265,265,14,265,265,14,14,14,14,265,265,265,265,265,265,14,14,265,265,14,265,14,265,265,14,14,14,265,14,265,14,265,265,14,14,265,14,14,265,14,265,265,265,14,14,14,14,14,265,265,265,14,14,14,14,265,265,265,265,265,14,14,14,265,265,14,265,265,14,265,14,14,14,14,14,14,14,265,14,265,14,265,265,14,265,265,265,14,265,265,14,14,265,14,14,265,265,265,265,14,265,14,265,14,265,14,265,265,265,14,265,14,14,265,265,265,265,14,265,265,14,14,265,265,265,265,14,265,14,265,265,14,14,14,265,14,265,14,14,14,265,265,14,14,14,265,265,14,14,14,265,14,14,265,265,14,265,265,14,265,265,14,265,14,265,265,14,14,14,14,14],"coherence":1,"opposite_coherence":0,"dot_radius":2,"dot_side_length":1,"dot_life":-1,"move_distance":1,"aperture_width":300,"aperture_height":300,"dot_color":["black","white","white","black","white","black","white","white","white","white","black","black","white","white","black","white","black","white","white","black","black","white","black","black","white","black","white","black","white","black","black","white","black","black","white","white","white","white","black","black","black","black","black","black","white","white","black","black","white","black","white","black","black","white","white","white","black","white","black","white","black","black","white","white","black","white","white","black","white","black","black","black","white","white","white","white","white","black","black","black","white","white","white","white","black","black","black","black","black","white","white","white","black","black","white","black","black","white","black","white","white","white","white","white","white","white","black","white","black","white","black","black","white","black","black","black","white","black","black","white","white","black","white","white","black","black","black","black","white","black","white","black","white","black","white","black","black","black","white","black","white","white","black","black","black","black","white","black","black","white","white","black","black","black","black","white","black","white","black","black","white","white","white","black","white","black","white","white","white","black","black","white","white","white","black","black","white","white","white","black","white","white","black","black","white","black","black","white","black","black","white","black","white","black","black","white","white","white","white","white"],"dot_shape":"circle","background_color":"#AAA","RDK_type":3,"aperture_type":2,"reinsert_type":2,"frame_rate":16.758333333333333,"frame_rate_array":[17,18,17,17,16,17,17,17,16,17,17,17,17,40,9,11,7,16,17,17,22,17,17,17,17,16,11,22,17,16,17,16,18,16,17,17,17,20,13,13,16,24,9,17,17,17,17,17,16,17,17,17,17,16,17,16,23,10,16,17,17,17,17,17,17,17,22,16,17,16,19,9,22,16,17,17,16,17,11,23,16,17,17,17,17,11,45,13,6,9,18,11,17,21,20,13,15,23,8,18,15,16,17,16,17,15,17,20,17,24,7,17,17,16,17,17,17,17,17,17],"number_of_frames":120,"aperture_center_x":683,"aperture_center_y":384,"fixation_cross":true,"fixation_cross_width":15,"fixation_cross_height":15,"fixation_cross_color":"#111","fixation_cross_thickness":1,"border":true,"border_thickness":2,"border_color":"transparent","canvas_width":1366,"canvas_height":768,"trial_type":"rdk","trial_index":80,"plugin_version":"2.0.0","time_elapsed":394492},{"rt":32531,"stimulus":"\n        <div class=\"response-container\">\n          <div class=\"response-instruction\">\n            <p>rotate the bar by using the left and right arrow keys.</p>\n            <p>when you are determined, press the Enter key.</p>\n          </div>\n          <div class=\"response-circle\">\n            <div class=\"response-fixation\"></div>\n            <div id=\"bar\" class=\"rotating-bar\"></div>\n          </div>\n        </div>\n      ","response":"Enter","trial_type":"html-keyboard-response","trial_index":81,"plugin_version":"2.1.0","time_elapsed":427024,"random_initial_angle":158,"response_angle_css":180,"response_angle_rdk":270,"angular_error_target":-104,"angular_error_distractor":5,"target_direction":14,"target_group":"white","reward_points":0},{"rt":null,"stimulus":"\n          <p style=\"color: #FF3333;\">Your reward: 0 points</p>\n        ","response":null,"trial_type":"html-keyboard-response","trial_index":82,"plugin_version":"2.1.0","time_elapsed":429026},{"rt":null,"stimulus":"<div class=\"fixation\" style=\"font-size: 60px;\">+</div>","response":null,"trial_type":"html-keyboard-response","trial_index":83,"plugin_version":"2.1.0","time_elapsed":430035},{"target_group":"white","condition_label":"W_H_vs_B_L_rep7","target_direction":26,"distractor_direction":291,"session_rotation":342,"rt":-1,"response":"","correct":false,"choices":"ALL_KEYS","correct_choice":["a"],"trial_duration":2000,"flip_timestamps":[],"response_ends_trial":false,"number_of_apertures":200,"number_of_dots":[1,1,1,1,1,1,1,1,1,1,1,1,1,1,1,1,1,1,1,1,1,1,1,1,1,1,1,1,1,1,1,1,1,1,1,1,1,1,1,1,1,1,1,1,1,1,1,1,1,1,1,1,1,1,1,1,1,1,1,1,1,1,1,1,1,1,1,1,1,1,1,1,1,1,1,1,1,1,1,1,1,1,1,1,1,1,1,1,1,1,1,1,1,1,1,1,1,1,1,1,1,1,1,1,1,1,1,1,1,1,1,1,1,1,1,1,1,1,1,1,1,1,1,1,1,1,1,1,1,1,1,1,1,1,1,1,1,1,1,1,1,1,1,1,1,1,1,1,1,1,1,1,1,1,1,1,1,1,1,1,1,1,1,1,1,1,1,1,1,1,1,1,1,1,1,1,1,1,1,1,1,1,1,1,1,1,1,1,1,1,1,1,1,1,1,1,1,1,1,1],"number_of_sets":1,"coherent_direction":[291,26,26,26,26,291,26,26,26,291,291,291,26,26,26,26,26,26,291,26,291,26,291,26,291,26,291,26,291,291,291,26,26,26,291,291,291,26,26,291,26,26,291,291,291,291,26,291,26,291,26,26,291,291,26,291,291,291,291,26,291,291,291,291,291,291,26,291,26,26,291,291,26,26,291,291,291,291,26,26,291,291,26,291,26,26,26,26,26,291,26,291,291,26,26,26,291,26,291,291,291,291,291,26,26,291,26,26,26,291,26,26,291,26,291,291,291,291,291,26,26,291,26,291,291,291,26,26,26,26,291,291,26,26,291,26,291,26,26,291,26,291,291,26,291,26,26,26,291,26,291,26,26,291,26,26,291,291,26,26,26,291,26,26,291,291,26,26,26,291,26,26,291,291,291,26,291,26,26,26,291,291,291,26,291,291,291,26,26,291,26,26,291,291,291,291,26,26,291,291],"coherence":1,"opposite_coherence":0,"dot_radius":2,"dot_side_length":1,"dot_life":-1,"move_distance":1,"aperture_width":300,"aperture_height":300,"dot_color":["black","white","white","white","white","black","white","white","white","black","black","black","white","white","white","white","white","white","black","white","black","white","black","white","black","white","black","white","black","black","black","white","white","white","black","black","black","white","white","black","white","white","black","black","black","black","white","black","white","black","white","white","black","black","white","black","black","black","black","white","black","black","black","black","black","black","white","black","white","white","black","black","white","white","black","black","black","black","white","white","black","black","white","black","white","white","white","white","white","black","white","black","black","white","white","white","black","white","black","black","black","black","black","white","white","black","white","white","white","black","white","white","black","white","black","black","black","black","black","white","white","black","white","black","black","black","white","white","white","white","black","black","white","white","black","white","black","white","white","black","white","black","black","white","black","white","white","white","black","white","black","white","white","black","white","white","black","black","white","white","white","black","white","white","black","black","white","white","white","black","white","white","black","black","black","white","black","white","white","white","black","black","black","white","black","black","black","white","white","black","white","white","black","black","black","black","white","white","black","black"],"dot_shape":"circle","background_color":"#AAA","RDK_type":3,"aperture_type":2,"reinsert_type":2,"frame_rate":16.95798319327731,"frame_rate_array":[23,17,12,13,36,13,17,17,17,17,17,17,17,20,13,17,17,17,19,15,16,17,16,17,17,17,17,17,18,16,17,16,24,10,17,17,17,17,17,16,17,17,16,17,17,16,21,12,18,17,18,16,17,17,16,18,17,17,17,22,9,22,18,23,11,11,17,17,22,15,17,17,17,16,14,17,18,15,17,20,16,17,16,17,17,17,17,20,11,17,17,17,16,17,17,17,18,15,17,17,17,16,17,17,17,17,17,17,17,16,17,17,19,17,17,17,16,18,16],"number_of_frames":119,"aperture_center_x":683,"aperture_center_y":384,"fixation_cross":true,"fixation_cross_width":15,"fixation_cross_height":15,"fixation_cross_color":"#111","fixation_cross_thickness":1,"border":true,"border_thickness":2,"border_color":"transparent","canvas_width":1366,"canvas_height":768,"trial_type":"rdk","trial_index":84,"plugin_version":"2.0.0","time_elapsed":432041},{"rt":5277,"stimulus":"\n        <div class=\"response-container\">\n          <div class=\"response-instruction\">\n            <p>rotate the bar by using the left and right arrow keys.</p>\n            <p>when you are determined, press the Enter key.</p>\n          </div>\n          <div class=\"response-circle\">\n            <div class=\"response-fixation\"></div>\n            <div id=\"bar\" class=\"rotating-bar\"></div>\n          </div>\n        </div>\n      ","response":"Enter","trial_type":"html-keyboard-response","trial_index":85,"plugin_version":"2.1.0","time_elapsed":437319,"random_initial_angle":96,"response_angle_css":62,"response_angle_rdk":28,"angular_error_target":2,"angular_error_distractor":97,"target_direction":26,"target_group":"white","reward_points":9},{"rt":null,"stimulus":"\n          <p style=\"color: #00FF00;\">Your reward: 9 points</p>\n        ","response":null,"trial_type":"html-keyboard-response","trial_index":86,"plugin_version":"2.1.0","time_elapsed":439325},{"rt":null,"stimulus":"<div class=\"fixation\" style=\"font-size: 60px;\">+</div>","response":null,"trial_type":"html-keyboard-response","trial_index":87,"plugin_version":"2.1.0","time_elapsed":440342},{"target_group":"white","condition_label":"W_H_vs_B_L_rep9","target_direction":11,"distractor_direction":278,"session_rotation":342,"rt":-1,"response":"","correct":false,"choices":"ALL_KEYS","correct_choice":["a"],"trial_duration":2000,"flip_timestamps":[],"response_ends_trial":false,"number_of_apertures":200,"number_of_dots":[1,1,1,1,1,1,1,1,1,1,1,1,1,1,1,1,1,1,1,1,1,1,1,1,1,1,1,1,1,1,1,1,1,1,1,1,1,1,1,1,1,1,1,1,1,1,1,1,1,1,1,1,1,1,1,1,1,1,1,1,1,1,1,1,1,1,1,1,1,1,1,1,1,1,1,1,1,1,1,1,1,1,1,1,1,1,1,1,1,1,1,1,1,1,1,1,1,1,1,1,1,1,1,1,1,1,1,1,1,1,1,1,1,1,1,1,1,1,1,1,1,1,1,1,1,1,1,1,1,1,1,1,1,1,1,1,1,1,1,1,1,1,1,1,1,1,1,1,1,1,1,1,1,1,1,1,1,1,1,1,1,1,1,1,1,1,1,1,1,1,1,1,1,1,1,1,1,1,1,1,1,1,1,1,1,1,1,1,1,1,1,1,1,1,1,1,1,1,1,1],"number_of_sets":1,"coherent_direction":[11,278,278,11,278,11,11,11,11,278,278,278,11,11,11,278,11,278,11,11,11,11,11,11,278,11,278,278,11,278,11,11,278,11,278,11,278,11,278,11,278,278,11,11,278,11,11,11,278,278,11,11,278,278,278,278,11,278,11,278,278,278,11,11,278,11,278,278,278,278,278,11,11,278,278,11,278,11,11,278,278,278,278,278,11,278,278,278,11,11,278,11,11,11,11,11,278,278,11,278,11,278,11,11,11,11,278,278,278,11,11,11,11,278,278,11,11,278,278,11,278,278,11,278,278,11,11,11,278,278,278,278,11,11,278,11,278,278,278,11,11,278,278,278,278,278,11,11,11,278,278,11,11,11,278,278,278,11,11,11,11,278,278,11,11,278,11,278,11,11,11,11,11,278,278,278,278,11,278,278,11,11,278,278,278,278,278,11,278,11,11,11,11,278,11,11,278,278,11,278],"coherence":1,"opposite_coherence":0,"dot_radius":2,"dot_side_length":1,"dot_life":-1,"move_distance":1,"aperture_width":300,"aperture_height":300,"dot_color":["white","black","black","white","black","white","white","white","white","black","black","black","white","white","white","black","white","black","white","white","white","white","white","white","black","white","black","black","white","black","white","white","black","white","black","white","black","white","black","white","black","black","white","white","black","white","white","white","black","black","white","white","black","black","black","black","white","black","white","black","black","black","white","white","black","white","black","black","black","black","black","white","white","black","black","white","black","white","white","black","black","black","black","black","white","black","black","black","white","white","black","white","white","white","white","white","black","black","white","black","white","black","white","white","white","white","black","black","black","white","white","white","white","black","black","white","white","black","black","white","black","black","white","black","black","white","white","white","black","black","black","black","white","white","black","white","black","black","black","white","white","black","black","black","black","black","white","white","white","black","black","white","white","white","black","black","black","white","white","white","white","black","black","white","white","black","white","black","white","white","white","white","white","black","black","black","black","white","black","black","white","white","black","black","black","black","black","white","black","white","white","white","white","black","white","white","black","black","white","black"],"dot_shape":"circle","background_color":"#AAA","RDK_type":3,"aperture_type":2,"reinsert_type":2,"frame_rate":17.911504424778762,"frame_rate_array":[20,8,12,17,17,16,17,17,17,17,23,14,13,18,16,16,25,18,17,15,18,28,2,20,17,78,13,17,33,16,33,16,17,33,34,17,16,17,30,9,13,16,17,17,17,17,17,17,17,17,18,16,29,5,17,17,17,17,17,17,19,17,17,14,17,18,15,17,17,17,17,17,17,17,17,30,9,13,16,24,11,15,18,16,17,16,17,18,15,17,17,17,17,16,17,17,16,17,20,13,16,18,16,17,17,16,17,17,17,17,18,16,18],"number_of_frames":113,"aperture_center_x":683,"aperture_center_y":384,"fixation_cross":true,"fixation_cross_width":15,"fixation_cross_height":15,"fixation_cross_color":"#111","fixation_cross_thickness":1,"border":true,"border_thickness":2,"border_color":"transparent","canvas_width":1366,"canvas_height":768,"trial_type":"rdk","trial_index":88,"plugin_version":"2.0.0","time_elapsed":442356},{"rt":5165,"stimulus":"\n        <div class=\"response-container\">\n          <div class=\"response-instruction\">\n            <p>rotate the bar by using the left and right arrow keys.</p>\n            <p>when you are determined, press the Enter key.</p>\n          </div>\n          <div class=\"response-circle\">\n            <div class=\"response-fixation\"></div>\n            <div id=\"bar\" class=\"rotating-bar\"></div>\n          </div>\n        </div>\n      ","response":"Enter","trial_type":"html-keyboard-response","trial_index":89,"plugin_version":"2.1.0","time_elapsed":447523,"random_initial_angle":109,"response_angle_css":148,"response_angle_rdk":302,"angular_error_target":-69,"angular_error_distractor":24,"target_direction":11,"target_group":"white","reward_points":0},{"rt":null,"stimulus":"\n          <p style=\"color: #FF3333;\">Your reward: 0 points</p>\n        ","response":null,"trial_type":"html-keyboard-response","trial_index":90,"plugin_version":"2.1.0","time_elapsed":449530},{"rt":null,"stimulus":"<div class=\"fixation\" style=\"font-size: 60px;\">+</div>","response":null,"trial_type":"html-keyboard-response","trial_index":91,"plugin_version":"2.1.0","time_elapsed":450541},{"target_group":"white","condition_label":"W_H_vs_B_L_rep19","target_direction":21,"distractor_direction":269,"session_rotation":342,"rt":-1,"response":"","correct":false,"choices":"ALL_KEYS","correct_choice":["a"],"trial_duration":2000,"flip_timestamps":[],"response_ends_trial":false,"number_of_apertures":200,"number_of_dots":[1,1,1,1,1,1,1,1,1,1,1,1,1,1,1,1,1,1,1,1,1,1,1,1,1,1,1,1,1,1,1,1,1,1,1,1,1,1,1,1,1,1,1,1,1,1,1,1,1,1,1,1,1,1,1,1,1,1,1,1,1,1,1,1,1,1,1,1,1,1,1,1,1,1,1,1,1,1,1,1,1,1,1,1,1,1,1,1,1,1,1,1,1,1,1,1,1,1,1,1,1,1,1,1,1,1,1,1,1,1,1,1,1,1,1,1,1,1,1,1,1,1,1,1,1,1,1,1,1,1,1,1,1,1,1,1,1,1,1,1,1,1,1,1,1,1,1,1,1,1,1,1,1,1,1,1,1,1,1,1,1,1,1,1,1,1,1,1,1,1,1,1,1,1,1,1,1,1,1,1,1,1,1,1,1,1,1,1,1,1,1,1,1,1,1,1,1,1,1,1],"number_of_sets":1,"coherent_direction":[269,21,269,269,21,21,269,21,21,269,269,269,21,269,269,269,269,269,269,21,269,269,269,21,21,269,21,21,269,269,21,269,21,21,269,269,21,269,269,21,21,21,269,21,269,269,21,21,21,21,21,21,269,21,269,21,21,21,269,269,21,21,21,21,21,21,269,21,21,21,269,21,269,21,21,21,21,21,269,21,21,269,21,269,269,21,21,21,269,269,269,21,269,269,269,269,21,269,269,269,21,21,269,21,21,269,269,269,269,269,21,269,21,21,269,269,269,269,21,21,21,269,21,21,269,21,21,269,269,21,21,269,269,21,269,21,21,269,269,269,21,269,21,269,21,21,269,21,269,269,21,269,269,269,21,21,21,269,269,269,21,21,269,269,21,269,21,269,269,269,21,21,269,21,21,21,269,21,21,21,21,269,269,21,269,269,21,269,21,269,269,269,269,21,269,269,21,21,269,21],"coherence":1,"opposite_coherence":0,"dot_radius":2,"dot_side_length":1,"dot_life":-1,"move_distance":1,"aperture_width":300,"aperture_height":300,"dot_color":["black","white","black","black","white","white","black","white","white","black","black","black","white","black","black","black","black","black","black","white","black","black","black","white","white","black","white","white","black","black","white","black","white","white","black","black","white","black","black","white","white","white","black","white","black","black","white","white","white","white","white","white","black","white","black","white","white","white","black","black","white","white","white","white","white","white","black","white","white","white","black","white","black","white","white","white","white","white","black","white","white","black","white","black","black","white","white","white","black","black","black","white","black","black","black","black","white","black","black","black","white","white","black","white","white","black","black","black","black","black","white","black","white","white","black","black","black","black","white","white","white","black","white","white","black","white","white","black","black","white","white","black","black","white","black","white","white","black","black","black","white","black","white","black","white","white","black","white","black","black","white","black","black","black","white","white","white","black","black","black","white","white","black","black","white","black","white","black","black","black","white","white","black","white","white","white","black","white","white","white","white","black","black","white","black","black","white","black","white","black","black","black","black","white","black","black","white","white","black","white"],"dot_shape":"circle","background_color":"#AAA","RDK_type":3,"aperture_type":2,"reinsert_type":2,"frame_rate":16.983193277310924,"frame_rate_array":[33,4,9,17,17,16,17,17,17,16,17,19,15,17,17,11,22,16,17,17,16,19,14,17,17,16,17,23,5,24,15,16,17,17,26,18,16,17,17,17,17,17,17,16,17,17,17,17,22,17,17,17,17,16,17,17,17,16,17,17,12,22,17,17,35,8,17,22,17,16,17,17,12,22,16,17,17,17,17,16,17,17,17,16,17,14,15,16,17,17,17,17,30,8,17,17,17,18,16,17,17,17,17,16,18,17,17,17,17,16,17,17,16,17,17,17,14,19,13],"number_of_frames":119,"aperture_center_x":683,"aperture_center_y":384,"fixation_cross":true,"fixation_cross_width":15,"fixation_cross_height":15,"fixation_cross_color":"#111","fixation_cross_thickness":1,"border":true,"border_thickness":2,"border_color":"transparent","canvas_width":1366,"canvas_height":768,"trial_type":"rdk","trial_index":92,"plugin_version":"2.0.0","time_elapsed":452557},{"rt":37230,"stimulus":"\n        <div class=\"response-container\">\n          <div class=\"response-instruction\">\n            <p>rotate the bar by using the left and right arrow keys.</p>\n            <p>when you are determined, press the Enter key.</p>\n          </div>\n          <div class=\"response-circle\">\n            <div class=\"response-fixation\"></div>\n            <div id=\"bar\" class=\"rotating-bar\"></div>\n          </div>\n        </div>\n      ","response":"Enter","trial_type":"html-keyboard-response","trial_index":93,"plugin_version":"2.1.0","time_elapsed":489788,"random_initial_angle":59,"response_angle_css":83,"response_angle_rdk":7,"angular_error_target":-14,"angular_error_distractor":98,"target_direction":21,"target_group":"white","reward_points":7},{"rt":null,"stimulus":"\n          <p style=\"color: #00FF00;\">Your reward: 7 points</p>\n        ","response":null,"trial_type":"html-keyboard-response","trial_index":94,"plugin_version":"2.1.0","time_elapsed":491795},{"rt":null,"stimulus":"<div class=\"fixation\" style=\"font-size: 60px;\">+</div>","response":null,"trial_type":"html-keyboard-response","trial_index":95,"plugin_version":"2.1.0","time_elapsed":492808},{"target_group":"black","condition_label":"B_H_vs_W_L_rep16","target_direction":75,"distractor_direction":192,"session_rotation":342,"rt":-1,"response":"","correct":false,"choices":"ALL_KEYS","correct_choice":["a"],"trial_duration":2000,"flip_timestamps":[],"response_ends_trial":false,"number_of_apertures":200,"number_of_dots":[1,1,1,1,1,1,1,1,1,1,1,1,1,1,1,1,1,1,1,1,1,1,1,1,1,1,1,1,1,1,1,1,1,1,1,1,1,1,1,1,1,1,1,1,1,1,1,1,1,1,1,1,1,1,1,1,1,1,1,1,1,1,1,1,1,1,1,1,1,1,1,1,1,1,1,1,1,1,1,1,1,1,1,1,1,1,1,1,1,1,1,1,1,1,1,1,1,1,1,1,1,1,1,1,1,1,1,1,1,1,1,1,1,1,1,1,1,1,1,1,1,1,1,1,1,1,1,1,1,1,1,1,1,1,1,1,1,1,1,1,1,1,1,1,1,1,1,1,1,1,1,1,1,1,1,1,1,1,1,1,1,1,1,1,1,1,1,1,1,1,1,1,1,1,1,1,1,1,1,1,1,1,1,1,1,1,1,1,1,1,1,1,1,1,1,1,1,1,1,1],"number_of_sets":1,"coherent_direction":[75,192,192,75,75,192,75,192,192,75,192,75,75,75,192,192,192,75,75,75,75,75,192,75,75,75,192,75,75,75,192,75,192,75,75,75,192,192,75,75,75,192,192,75,75,75,192,192,75,75,192,192,192,75,192,75,75,192,75,192,192,192,192,75,192,75,75,75,75,75,75,75,75,192,75,192,75,192,192,75,192,75,75,75,192,75,75,75,192,192,75,75,75,75,192,192,192,192,192,192,192,192,192,192,75,192,192,192,192,192,75,192,192,75,192,192,75,75,192,75,75,75,192,75,192,192,192,192,75,75,192,192,192,192,192,75,75,75,192,75,192,75,192,75,192,75,75,192,75,75,75,192,192,192,75,75,75,192,192,192,192,192,192,75,75,192,192,75,192,192,75,192,192,192,75,192,75,75,75,192,75,192,192,75,192,192,75,75,75,75,192,75,75,192,192,192,192,75,75,192],"coherence":1,"opposite_coherence":0,"dot_radius":2,"dot_side_length":1,"dot_life":-1,"move_distance":1,"aperture_width":300,"aperture_height":300,"dot_color":["black","white","white","black","black","white","black","white","white","black","white","black","black","black","white","white","white","black","black","black","black","black","white","black","black","black","white","black","black","black","white","black","white","black","black","black","white","white","black","black","black","white","white","black","black","black","white","white","black","black","white","white","white","black","white","black","black","white","black","white","white","white","white","black","white","black","black","black","black","black","black","black","black","white","black","white","black","white","white","black","white","black","black","black","white","black","black","black","white","white","black","black","black","black","white","white","white","white","white","white","white","white","white","white","black","white","white","white","white","white","black","white","white","black","white","white","black","black","white","black","black","black","white","black","white","white","white","white","black","black","white","white","white","white","white","black","black","black","white","black","white","black","white","black","white","black","black","white","black","black","black","white","white","white","black","black","black","white","white","white","white","white","white","black","black","white","white","black","white","white","black","white","white","white","black","white","black","black","black","white","black","white","white","black","white","white","black","black","black","black","white","black","black","white","white","white","white","black","black","white"],"dot_shape":"circle","background_color":"#AAA","RDK_type":3,"aperture_type":2,"reinsert_type":2,"frame_rate":16.683333333333334,"frame_rate_array":[25,16,3,14,17,16,17,20,13,17,17,17,17,17,17,14,16,19,15,17,17,27,11,19,19,11,17,17,17,17,17,16,17,17,18,13,17,15,22,16,16,17,17,13,17,20,13,17,16,17,15,22,15,20,17,16,13,20,14,22,11,17,18,19,16,17,16,17,17,17,17,17,17,17,14,18,15,17,17,17,16,31,11,10,16,17,17,17,20,17,13,17,16,17,16,19,14,18,16,18,15,18,16,17,17,17,17,17,17,17,17,17,17,17,16,18,14,17,17,16],"number_of_frames":120,"aperture_center_x":683,"aperture_center_y":384,"fixation_cross":true,"fixation_cross_width":15,"fixation_cross_height":15,"fixation_cross_color":"#111","fixation_cross_thickness":1,"border":true,"border_thickness":2,"border_color":"transparent","canvas_width":1366,"canvas_height":768,"trial_type":"rdk","trial_index":96,"plugin_version":"2.0.0","time_elapsed":494817},{"rt":8194,"stimulus":"\n        <div class=\"response-container\">\n          <div class=\"response-instruction\">\n            <p>rotate the bar by using the left and right arrow keys.</p>\n            <p>when you are determined, press the Enter key.</p>\n          </div>\n          <div class=\"response-circle\">\n            <div class=\"response-fixation\"></div>\n            <div id=\"bar\" class=\"rotating-bar\"></div>\n          </div>\n        </div>\n      ","response":"Enter","trial_type":"html-keyboard-response","trial_index":97,"plugin_version":"2.1.0","time_elapsed":503013,"random_initial_angle":322,"response_angle_css":422,"response_angle_rdk":28,"angular_error_target":-47,"angular_error_distractor":-164,"target_direction":75,"target_group":"black","reward_points":0},{"rt":null,"stimulus":"\n          <p style=\"color: #FF3333;\">Your reward: 0 points</p>\n        ","response":null,"trial_type":"html-keyboard-response","trial_index":98,"plugin_version":"2.1.0","time_elapsed":505019},{"rt":null,"stimulus":"<div class=\"fixation\" style=\"font-size: 60px;\">+</div>","response":null,"trial_type":"html-keyboard-response","trial_index":99,"plugin_version":"2.1.0","time_elapsed":506034},{"target_group":"black","condition_label":"B_H_vs_W_L_rep23","target_direction":101,"distractor_direction":206,"session_rotation":342,"rt":-1,"response":"","correct":false,"choices":"ALL_KEYS","correct_choice":["a"],"trial_duration":2000,"flip_timestamps":[],"response_ends_trial":false,"number_of_apertures":200,"number_of_dots":[1,1,1,1,1,1,1,1,1,1,1,1,1,1,1,1,1,1,1,1,1,1,1,1,1,1,1,1,1,1,1,1,1,1,1,1,1,1,1,1,1,1,1,1,1,1,1,1,1,1,1,1,1,1,1,1,1,1,1,1,1,1,1,1,1,1,1,1,1,1,1,1,1,1,1,1,1,1,1,1,1,1,1,1,1,1,1,1,1,1,1,1,1,1,1,1,1,1,1,1,1,1,1,1,1,1,1,1,1,1,1,1,1,1,1,1,1,1,1,1,1,1,1,1,1,1,1,1,1,1,1,1,1,1,1,1,1,1,1,1,1,1,1,1,1,1,1,1,1,1,1,1,1,1,1,1,1,1,1,1,1,1,1,1,1,1,1,1,1,1,1,1,1,1,1,1,1,1,1,1,1,1,1,1,1,1,1,1,1,1,1,1,1,1,1,1,1,1,1,1],"number_of_sets":1,"coherent_direction":[206,101,101,101,101,206,206,101,206,101,206,101,101,101,101,206,206,101,101,101,206,206,206,101,206,101,206,206,101,206,206,206,206,206,101,101,206,101,206,206,101,101,101,101,206,101,101,206,101,206,101,101,101,206,206,101,101,101,206,206,101,206,206,101,206,101,206,206,101,101,101,206,101,101,101,101,101,206,206,101,101,101,101,101,206,101,101,206,206,206,101,101,101,101,206,101,206,206,101,101,101,101,206,101,101,101,206,206,206,101,101,206,101,101,206,101,101,101,101,101,206,206,206,206,101,101,206,101,101,206,206,101,101,206,206,206,206,206,101,101,206,101,206,206,206,206,206,101,206,101,206,206,206,101,101,206,101,206,206,206,101,206,101,101,206,206,206,206,101,206,206,101,206,206,101,206,101,101,206,101,206,101,206,206,101,101,206,206,206,206,206,101,206,101,206,101,206,206,206,206],"coherence":1,"opposite_coherence":0,"dot_radius":2,"dot_side_length":1,"dot_life":-1,"move_distance":1,"aperture_width":300,"aperture_height":300,"dot_color":["white","black","black","black","black","white","white","black","white","black","white","black","black","black","black","white","white","black","black","black","white","white","white","black","white","black","white","white","black","white","white","white","white","white","black","black","white","black","white","white","black","black","black","black","white","black","black","white","black","white","black","black","black","white","white","black","black","black","white","white","black","white","white","black","white","black","white","white","black","black","black","white","black","black","black","black","black","white","white","black","black","black","black","black","white","black","black","white","white","white","black","black","black","black","white","black","white","white","black","black","black","black","white","black","black","black","white","white","white","black","black","white","black","black","white","black","black","black","black","black","white","white","white","white","black","black","white","black","black","white","white","black","black","white","white","white","white","white","black","black","white","black","white","white","white","white","white","black","white","black","white","white","white","black","black","white","black","white","white","white","black","white","black","black","white","white","white","white","black","white","white","black","white","white","black","white","black","black","white","black","white","black","white","white","black","black","white","white","white","white","white","black","white","black","white","black","white","white","white","white"],"dot_shape":"circle","background_color":"#AAA","RDK_type":3,"aperture_type":2,"reinsert_type":2,"frame_rate":16.915966386554622,"frame_rate_array":[10,23,10,17,16,17,17,29,4,19,14,15,17,17,17,23,11,17,16,17,17,17,17,17,17,17,17,17,17,17,17,17,17,18,15,17,22,17,17,17,14,17,14,22,17,22,12,20,12,12,40,9,16,20,15,23,12,20,17,16,17,17,16,17,18,15,21,7,22,11,17,17,21,12,17,17,16,17,17,17,17,17,17,17,17,17,18,16,17,17,21,17,16,17,17,17,12,22,17,17,17,17,17,17,17,17,16,17,17,17,17,17,15,18,17,17,17,17,17],"number_of_frames":119,"aperture_center_x":683,"aperture_center_y":384,"fixation_cross":true,"fixation_cross_width":15,"fixation_cross_height":15,"fixation_cross_color":"#111","fixation_cross_thickness":1,"border":true,"border_thickness":2,"border_color":"transparent","canvas_width":1366,"canvas_height":768,"trial_type":"rdk","trial_index":100,"plugin_version":"2.0.0","time_elapsed":508039},{"rt":12388,"stimulus":"\n        <div class=\"response-container\">\n          <div class=\"response-instruction\">\n            <p>rotate the bar by using the left and right arrow keys.</p>\n            <p>when you are determined, press the Enter key.</p>\n          </div>\n          <div class=\"response-circle\">\n            <div class=\"response-fixation\"></div>\n            <div id=\"bar\" class=\"rotating-bar\"></div>\n          </div>\n        </div>\n      ","response":"Enter","trial_type":"html-keyboard-response","trial_index":101,"plugin_version":"2.1.0","time_elapsed":520429,"random_initial_angle":40,"response_angle_css":2,"response_angle_rdk":88,"angular_error_target":-13,"angular_error_distractor":-118,"target_direction":101,"target_group":"black","reward_points":7},{"rt":null,"stimulus":"\n          <p style=\"color: #00FF00;\">Your reward: 7 points</p>\n        ","response":null,"trial_type":"html-keyboard-response","trial_index":102,"plugin_version":"2.1.0","time_elapsed":522443},{"rt":null,"stimulus":"<div class=\"fixation\" style=\"font-size: 60px;\">+</div>","response":null,"trial_type":"html-keyboard-response","trial_index":103,"plugin_version":"2.1.0","time_elapsed":523453},{"target_group":"black","condition_label":"B_H_vs_W_L_rep11","target_direction":73,"distractor_direction":200,"session_rotation":342,"rt":-1,"response":"","correct":false,"choices":"ALL_KEYS","correct_choice":["a"],"trial_duration":2000,"flip_timestamps":[],"response_ends_trial":false,"number_of_apertures":200,"number_of_dots":[1,1,1,1,1,1,1,1,1,1,1,1,1,1,1,1,1,1,1,1,1,1,1,1,1,1,1,1,1,1,1,1,1,1,1,1,1,1,1,1,1,1,1,1,1,1,1,1,1,1,1,1,1,1,1,1,1,1,1,1,1,1,1,1,1,1,1,1,1,1,1,1,1,1,1,1,1,1,1,1,1,1,1,1,1,1,1,1,1,1,1,1,1,1,1,1,1,1,1,1,1,1,1,1,1,1,1,1,1,1,1,1,1,1,1,1,1,1,1,1,1,1,1,1,1,1,1,1,1,1,1,1,1,1,1,1,1,1,1,1,1,1,1,1,1,1,1,1,1,1,1,1,1,1,1,1,1,1,1,1,1,1,1,1,1,1,1,1,1,1,1,1,1,1,1,1,1,1,1,1,1,1,1,1,1,1,1,1,1,1,1,1,1,1,1,1,1,1,1,1],"number_of_sets":1,"coherent_direction":[73,73,200,73,200,200,200,200,73,200,73,73,200,200,200,200,200,200,200,200,73,73,200,73,73,73,73,73,200,200,73,73,200,73,73,200,200,200,73,73,73,200,200,200,73,200,200,73,73,200,73,200,73,73,73,73,200,200,200,73,73,200,200,200,200,200,73,200,73,200,200,73,73,73,200,200,200,200,200,73,73,200,73,73,73,73,73,73,73,200,73,200,200,73,200,200,200,200,200,200,200,73,200,200,200,200,73,200,73,73,200,73,200,200,200,73,200,73,200,200,200,73,73,200,73,73,73,73,200,200,73,200,200,200,73,73,200,73,200,73,73,73,73,200,73,73,200,73,73,200,73,73,200,200,200,73,73,200,73,73,73,73,200,73,73,73,73,200,200,73,73,200,73,73,200,200,73,73,73,73,200,200,200,73,73,73,73,200,73,73,73,200,200,200,73,73,200,200,200,200],"coherence":1,"opposite_coherence":0,"dot_radius":2,"dot_side_length":1,"dot_life":-1,"move_distance":1,"aperture_width":300,"aperture_height":300,"dot_color":["black","black","white","black","white","white","white","white","black","white","black","black","white","white","white","white","white","white","white","white","black","black","white","black","black","black","black","black","white","white","black","black","white","black","black","white","white","white","black","black","black","white","white","white","black","white","white","black","black","white","black","white","black","black","black","black","white","white","white","black","black","white","white","white","white","white","black","white","black","white","white","black","black","black","white","white","white","white","white","black","black","white","black","black","black","black","black","black","black","white","black","white","white","black","white","white","white","white","white","white","white","black","white","white","white","white","black","white","black","black","white","black","white","white","white","black","white","black","white","white","white","black","black","white","black","black","black","black","white","white","black","white","white","white","black","black","white","black","white","black","black","black","black","white","black","black","white","black","black","white","black","black","white","white","white","black","black","white","black","black","black","black","white","black","black","black","black","white","white","black","black","white","black","black","white","white","black","black","black","black","white","white","white","black","black","black","black","white","black","black","black","white","white","white","black","black","white","white","white","white"],"dot_shape":"circle","background_color":"#AAA","RDK_type":3,"aperture_type":2,"reinsert_type":2,"frame_rate":16.727272727272727,"frame_rate_array":[26,15,11,6,16,18,16,17,17,17,18,20,19,16,17,17,17,17,17,17,17,17,17,11,22,17,17,17,18,16,17,16,12,22,16,17,17,12,19,19,17,17,16,17,15,18,16,17,17,17,17,13,21,20,19,12,17,22,11,17,18,15,17,17,13,14,22,17,17,17,16,14,13,27,16,15,15,16,17,16,19,14,18,16,17,11,23,16,17,17,11,23,16,22,17,12,17,17,17,17,39,17,10,18,5,8,22,16,16,17,13,18,17,19,18,18,17,12,14,20,15],"number_of_frames":121,"aperture_center_x":683,"aperture_center_y":384,"fixation_cross":true,"fixation_cross_width":15,"fixation_cross_height":15,"fixation_cross_color":"#111","fixation_cross_thickness":1,"border":true,"border_thickness":2,"border_color":"transparent","canvas_width":1366,"canvas_height":768,"trial_type":"rdk","trial_index":104,"plugin_version":"2.0.0","time_elapsed":525469},{"rt":7920,"stimulus":"\n        <div class=\"response-container\">\n          <div class=\"response-instruction\">\n            <p>rotate the bar by using the left and right arrow keys.</p>\n            <p>when you are determined, press the Enter key.</p>\n          </div>\n          <div class=\"response-circle\">\n            <div class=\"response-fixation\"></div>\n            <div id=\"bar\" class=\"rotating-bar\"></div>\n          </div>\n        </div>\n      ","response":"Enter","trial_type":"html-keyboard-response","trial_index":105,"plugin_version":"2.1.0","time_elapsed":533391,"random_initial_angle":54,"response_angle_css":59,"response_angle_rdk":31,"angular_error_target":-42,"angular_error_distractor":-169,"target_direction":73,"target_group":"black","reward_points":1},{"rt":null,"stimulus":"\n          <p style=\"color: #FF3333;\">Your reward: 1 points</p>\n        ","response":null,"trial_type":"html-keyboard-response","trial_index":106,"plugin_version":"2.1.0","time_elapsed":535405},{"rt":null,"stimulus":"<div class=\"fixation\" style=\"font-size: 60px;\">+</div>","response":null,"trial_type":"html-keyboard-response","trial_index":107,"plugin_version":"2.1.0","time_elapsed":536423},{"target_group":"black","condition_label":"B_H_vs_W_L_rep14","target_direction":77,"distractor_direction":171,"session_rotation":342,"rt":-1,"response":"","correct":false,"choices":"ALL_KEYS","correct_choice":["a"],"trial_duration":2000,"flip_timestamps":[],"response_ends_trial":false,"number_of_apertures":200,"number_of_dots":[1,1,1,1,1,1,1,1,1,1,1,1,1,1,1,1,1,1,1,1,1,1,1,1,1,1,1,1,1,1,1,1,1,1,1,1,1,1,1,1,1,1,1,1,1,1,1,1,1,1,1,1,1,1,1,1,1,1,1,1,1,1,1,1,1,1,1,1,1,1,1,1,1,1,1,1,1,1,1,1,1,1,1,1,1,1,1,1,1,1,1,1,1,1,1,1,1,1,1,1,1,1,1,1,1,1,1,1,1,1,1,1,1,1,1,1,1,1,1,1,1,1,1,1,1,1,1,1,1,1,1,1,1,1,1,1,1,1,1,1,1,1,1,1,1,1,1,1,1,1,1,1,1,1,1,1,1,1,1,1,1,1,1,1,1,1,1,1,1,1,1,1,1,1,1,1,1,1,1,1,1,1,1,1,1,1,1,1,1,1,1,1,1,1,1,1,1,1,1,1],"number_of_sets":1,"coherent_direction":[77,77,77,77,77,77,77,171,171,77,171,77,171,171,77,77,77,77,77,171,171,77,77,171,77,77,77,171,171,77,171,77,77,77,77,171,7