[{"rt":614205,"stimulus":"Welcome to the experiment. Press any key to begin.","response":" ","trial_type":"html-keyboard-response","trial_index":0,"plugin_version":"2.1.0","time_elapsed":614211},{"rt":40519,"stimulus":"\n        <div class=\"instructions-container\">\n          <h2>Instructions</h2>\n\n          <p>\n          In this experiment, you will see <strong>two Random Dot Kinematograms (RDKs)</strong> displayed simultaneously.\n          </p>\n\n          <p>\n          An RDK is a visual stimulus consisting of many small dots that move coherently in a single direction. \n          In this experiment, the dots will be either <strong>white</strong> or <strong>black</strong> \n          (see the short demo below for an example of an RDK stimulus).\n          </p>\n\n          <p>\n          On each trial, the two RDKs will move in different directions. \n          Your task is to decide <strong>which RDK appears to contain more dots</strong>.\n          </p>\n\n          <p>\n          The RDK that you judge to have more dots is called the <strong>target RDK</strong>. \n          For example, if the white RDK appears to have more dots than the black RDK, \n          you should report the motion direction of the white RDK.\n          </p>\n\n          <p>\n          After viewing the RDKs, you will rotate a bar to indicate the perceived direction of the target RDK \n          using the <strong>left</strong> and <strong>right arrow keys</strong>. \n          Press <strong>Enter</strong> when you are satisfied with your response.\n          When the bar is held down, the rotation speed increases.\n          </p>\n\n          <p>\n          You will receive points based on the <strong>accuracy of your response</strong>, \n          and your final <strong>bonus reward</strong> may depend on your overall performance. \n          Please try to respond as accurately as possible.\n          </p>\n\n          <p>\n          You will first complete <strong>16 practice trials</strong>. \n          Press the <strong>Enter</strong> key to start the practice phase.\n          </p>\n\n          <canvas id=\"instruction-demo-rdk\" width=\"200\" height=\"200\"style=\"display:block;margin:12px auto; border-radius: 50%;\"></canvas>\n        </div>\n      ","response":"Enter","trial_type":"html-keyboard-response","trial_index":1,"plugin_version":"2.1.0","time_elapsed":654736},{"rt":null,"stimulus":"<div class=\"fixation\" style=\"font-size: 60px;\">+</div>","response":null,"trial_type":"html-keyboard-response","trial_index":2,"plugin_version":"2.1.0","time_elapsed":655740},{"target_group":"black","target_index":1,"condition_label":"practice","rt":-1,"response":"","correct":false,"choices":"ALL_KEYS","correct_choice":["a"],"trial_duration":2000,"flip_timestamps":[],"response_ends_trial":false,"number_of_apertures":2,"number_of_dots":[98,100],"number_of_sets":1,"coherent_direction":[138,289],"coherence":1,"opposite_coherence":0,"dot_radius":2,"dot_side_length":1,"dot_life":-1,"move_distance":1,"aperture_width":300,"aperture_height":300,"dot_color":["white","black"],"dot_shape":"circle","background_color":"#AAA","RDK_type":3,"aperture_type":2,"reinsert_type":2,"frame_rate":16.708333333333332,"frame_rate_array":[5,13,16,17,17,17,17,17,17,17,17,16,17,19,15,16,17,17,16,16,17,17,17,17,17,17,17,16,17,17,16,17,17,17,17,17,17,17,17,16,17,16,17,17,17,17,17,17,17,17,16,17,17,16,17,17,17,17,17,17,17,17,17,16,17,17,17,17,17,17,17,17,17,17,17,17,17,16,17,17,17,16,17,17,17,17,17,17,17,16,17,17,17,17,17,16,17,17,16,17,17,17,17,17,17,17,17,17,17,17,17,17,16,17,17,17,16,17,17,17],"number_of_frames":120,"aperture_center_x":800.5,"aperture_center_y":450,"fixation_cross":true,"fixation_cross_width":15,"fixation_cross_height":15,"fixation_cross_color":"#111","fixation_cross_thickness":1,"border":true,"border_thickness":2,"border_color":"transparent","canvas_width":1601,"canvas_height":900,"trial_type":"rdk","trial_index":3,"plugin_version":"2.0.0","time_elapsed":657750,"phase":"practice","target_direction":289,"distractor_direction":138},{"rt":6968,"stimulus":"\n        <div class=\"response-container\">\n          <div class=\"response-instruction\">\n            <p>rotate the bar by using the left and right arrow keys.</p>\n            <p>when you are determined, press the Enter key.</p>\n          </div>\n          <div class=\"response-circle\">\n            <div class=\"response-fixation\"></div>\n            <div id=\"bar\" class=\"rotating-bar\"></div>\n          </div>\n        </div>\n      ","response":"Enter","trial_type":"html-keyboard-response","trial_index":4,"plugin_version":"2.1.0","time_elapsed":664722,"random_initial_angle":121,"response_angle_css":-44,"response_angle_rdk":134,"angular_error_target":-155,"angular_error_distractor":-4,"target_direction":289,"target_group":"black","reward_points":0},{"rt":null,"stimulus":"\n          <p style=\"color: #FF3333;\">Your reward: 0 points</p>\n        ","response":null,"trial_type":"html-keyboard-response","trial_index":5,"plugin_version":"2.1.0","time_elapsed":666726},{"rt":null,"stimulus":"<div class=\"fixation\" style=\"font-size: 60px;\">+</div>","response":null,"trial_type":"html-keyboard-response","trial_index":6,"plugin_version":"2.1.0","time_elapsed":667729},{"target_group":"white","target_index":0,"condition_label":"practice","rt":-1,"response":"","correct":false,"choices":"ALL_KEYS","correct_choice":["a"],"trial_duration":2000,"flip_timestamps":[],"response_ends_trial":false,"number_of_apertures":2,"number_of_dots":[100,99],"number_of_sets":1,"coherent_direction":[64,269],"coherence":1,"opposite_coherence":0,"dot_radius":2,"dot_side_length":1,"dot_life":-1,"move_distance":1,"aperture_width":300,"aperture_height":300,"dot_color":["white","black"],"dot_shape":"circle","background_color":"#AAA","RDK_type":3,"aperture_type":2,"reinsert_type":2,"frame_rate":16.683333333333334,"frame_rate_array":[3,18,13,17,17,17,17,17,17,16,17,17,17,16,17,17,17,17,17,17,17,17,17,16,17,17,16,19,15,17,16,17,17,17,17,17,16,17,17,16,17,16,17,17,17,17,17,16,17,17,17,17,17,17,17,17,17,17,17,17,17,17,16,17,17,17,16,17,18,16,17,17,17,17,17,16,17,16,17,17,17,17,17,17,17,17,17,17,17,17,16,17,17,16,17,16,17,17,17,17,17,17,17,17,17,17,17,16,17,17,16,17,16,17,17,16,17,17,17,16],"number_of_frames":120,"aperture_center_x":800.5,"aperture_center_y":450,"fixation_cross":true,"fixation_cross_width":15,"fixation_cross_height":15,"fixation_cross_color":"#111","fixation_cross_thickness":1,"border":true,"border_thickness":2,"border_color":"transparent","canvas_width":1601,"canvas_height":900,"trial_type":"rdk","trial_index":7,"plugin_version":"2.0.0","time_elapsed":669735,"phase":"practice","target_direction":64,"distractor_direction":269},{"rt":1857,"stimulus":"\n        <div class=\"response-container\">\n          <div class=\"response-instruction\">\n            <p>rotate the bar by using the left and right arrow keys.</p>\n            <p>when you are determined, press the Enter key.</p>\n          </div>\n          <div class=\"response-circle\">\n            <div class=\"response-fixation\"></div>\n            <div id=\"bar\" class=\"rotating-bar\"></div>\n          </div>\n        </div>\n      ","response":"Enter","trial_type":"html-keyboard-response","trial_index":8,"plugin_version":"2.1.0","time_elapsed":671596,"random_initial_angle":328,"response_angle_css":379,"response_angle_rdk":71,"angular_error_target":7,"angular_error_distractor":162,"target_direction":64,"target_group":"white","reward_points":8},{"rt":null,"stimulus":"\n          <p style=\"color: #00FF00;\">Your reward: 8 points</p>\n        ","response":null,"trial_type":"html-keyboard-response","trial_index":9,"plugin_version":"2.1.0","time_elapsed":673599},{"rt":null,"stimulus":"<div class=\"fixation\" style=\"font-size: 60px;\">+</div>","response":null,"trial_type":"html-keyboard-response","trial_index":10,"plugin_version":"2.1.0","time_elapsed":674602},{"target_group":"white","target_index":0,"condition_label":"practice","rt":-1,"response":"","correct":false,"choices":"ALL_KEYS","correct_choice":["a"],"trial_duration":2000,"flip_timestamps":[],"response_ends_trial":false,"number_of_apertures":2,"number_of_dots":[100,92],"number_of_sets":1,"coherent_direction":[44,288],"coherence":1,"opposite_coherence":0,"dot_radius":2,"dot_side_length":1,"dot_life":-1,"move_distance":1,"aperture_width":300,"aperture_height":300,"dot_color":["white","black"],"dot_shape":"circle","background_color":"#AAA","RDK_type":3,"aperture_type":2,"reinsert_type":2,"frame_rate":16.75,"frame_rate_array":[6,14,16,17,17,16,17,17,17,17,16,16,17,17,17,17,17,17,17,17,17,16,17,17,17,17,17,17,17,17,17,17,17,17,17,17,17,17,17,17,17,17,17,17,17,17,17,17,17,17,17,17,17,16,17,17,17,15,17,17,17,16,17,16,17,16,17,17,17,17,16,17,17,17,17,23,11,18,15,16,17,17,17,17,17,17,17,17,17,16,17,17,17,17,17,17,17,17,17,17,17,17,17,17,17,17,17,17,17,17,17,17,24,11,15,17,17,17,17,17],"number_of_frames":120,"aperture_center_x":800.5,"aperture_center_y":450,"fixation_cross":true,"fixation_cross_width":15,"fixation_cross_height":15,"fixation_cross_color":"#111","fixation_cross_thickness":1,"border":true,"border_thickness":2,"border_color":"transparent","canvas_width":1601,"canvas_height":900,"trial_type":"rdk","trial_index":11,"plugin_version":"2.0.0","time_elapsed":676607,"phase":"practice","target_direction":44,"distractor_direction":288},{"rt":5390,"stimulus":"\n        <div class=\"response-container\">\n          <div class=\"response-instruction\">\n            <p>rotate the bar by using the left and right arrow keys.</p>\n            <p>when you are determined, press the Enter key.</p>\n          </div>\n          <div class=\"response-circle\">\n            <div class=\"response-fixation\"></div>\n            <div id=\"bar\" class=\"rotating-bar\"></div>\n          </div>\n        </div>\n      ","response":"Enter","trial_type":"html-keyboard-response","trial_index":12,"plugin_version":"2.1.0","time_elapsed":682000,"random_initial_angle":281,"response_angle_css":176,"response_angle_rdk":274,"angular_error_target":-130,"angular_error_distractor":-14,"target_direction":44,"target_group":"white","reward_points":0},{"rt":null,"stimulus":"\n          <p style=\"color: #FF3333;\">Your reward: 0 points</p>\n        ","response":null,"trial_type":"html-keyboard-response","trial_index":13,"plugin_version":"2.1.0","time_elapsed":684001},{"rt":null,"stimulus":"<div class=\"fixation\" style=\"font-size: 60px;\">+</div>","response":null,"trial_type":"html-keyboard-response","trial_index":14,"plugin_version":"2.1.0","time_elapsed":685003},{"target_group":"black","target_index":1,"condition_label":"practice","rt":-1,"response":"","correct":false,"choices":"ALL_KEYS","correct_choice":["a"],"trial_duration":2000,"flip_timestamps":[],"response_ends_trial":false,"number_of_apertures":2,"number_of_dots":[58,100],"number_of_sets":1,"coherent_direction":[135,274],"coherence":1,"opposite_coherence":0,"dot_radius":2,"dot_side_length":1,"dot_life":-1,"move_distance":1,"aperture_width":300,"aperture_height":300,"dot_color":["white","black"],"dot_shape":"circle","background_color":"#AAA","RDK_type":3,"aperture_type":2,"reinsert_type":2,"frame_rate":16.841666666666665,"frame_rate_array":[12,16,17,16,17,17,17,16,17,17,16,17,17,16,17,17,17,17,17,16,17,16,17,17,17,17,17,17,17,17,17,17,17,17,17,17,17,17,17,17,17,17,17,16,16,17,17,17,18,16,17,17,17,17,17,17,17,16,17,17,17,17,17,17,17,17,17,17,17,17,17,17,17,17,17,17,17,17,17,17,17,17,17,17,17,17,23,10,17,17,17,17,17,16,17,17,16,17,17,17,17,17,17,17,17,17,17,17,16,17,17,17,17,17,17,17,17,17,17,17],"number_of_frames":120,"aperture_center_x":800.5,"aperture_center_y":450,"fixation_cross":true,"fixation_cross_width":15,"fixation_cross_height":15,"fixation_cross_color":"#111","fixation_cross_thickness":1,"border":true,"border_thickness":2,"border_color":"transparent","canvas_width":1601,"canvas_height":900,"trial_type":"rdk","trial_index":15,"plugin_version":"2.0.0","time_elapsed":687009,"phase":"practice","target_direction":274,"distractor_direction":135},{"rt":2847,"stimulus":"\n        <div class=\"response-container\">\n          <div class=\"response-instruction\">\n            <p>rotate the bar by using the left and right arrow keys.</p>\n            <p>when you are determined, press the Enter key.</p>\n          </div>\n          <div class=\"response-circle\">\n            <div class=\"response-fixation\"></div>\n            <div id=\"bar\" class=\"rotating-bar\"></div>\n          </div>\n        </div>\n      ","response":"Enter","trial_type":"html-keyboard-response","trial_index":16,"plugin_version":"2.1.0","time_elapsed":689858,"random_initial_angle":71,"response_angle_css":147,"response_angle_rdk":303,"angular_error_target":29,"angular_error_distractor":168,"target_direction":274,"target_group":"black","reward_points":4},{"rt":null,"stimulus":"\n          <p style=\"color: #00FF00;\">Your reward: 4 points</p>\n        ","response":null,"trial_type":"html-keyboard-response","trial_index":17,"plugin_version":"2.1.0","time_elapsed":691861},{"rt":null,"stimulus":"<div class=\"fixation\" style=\"font-size: 60px;\">+</div>","response":null,"trial_type":"html-keyboard-response","trial_index":18,"plugin_version":"2.1.0","time_elapsed":692863},{"target_group":"white","target_index":0,"condition_label":"practice","rt":-1,"response":"","correct":false,"choices":"ALL_KEYS","correct_choice":["a"],"trial_duration":2000,"flip_timestamps":[],"response_ends_trial":false,"number_of_apertures":2,"number_of_dots":[100,99],"number_of_sets":1,"coherent_direction":[181,34],"coherence":1,"opposite_coherence":0,"dot_radius":2,"dot_side_length":1,"dot_life":-1,"move_distance":1,"aperture_width":300,"aperture_height":300,"dot_color":["white","black"],"dot_shape":"circle","background_color":"#AAA","RDK_type":3,"aperture_type":2,"reinsert_type":2,"frame_rate":16.841666666666665,"frame_rate_array":[11,16,17,17,17,17,17,17,16,17,17,17,17,17,17,17,17,17,16,17,17,16,17,17,16,17,17,17,17,17,17,17,17,17,17,17,17,23,11,17,17,17,16,17,17,17,17,17,17,17,17,17,17,17,17,17,17,17,17,17,17,17,17,17,17,17,17,17,17,17,17,17,17,17,16,17,17,17,17,17,17,17,16,17,17,16,17,17,17,17,17,17,17,17,17,17,17,17,17,17,16,17,17,17,17,17,17,16,17,17,17,17,17,17,16,17,17,17,16,17],"number_of_frames":120,"aperture_center_x":800.5,"aperture_center_y":450,"fixation_cross":true,"fixation_cross_width":15,"fixation_cross_height":15,"fixation_cross_color":"#111","fixation_cross_thickness":1,"border":true,"border_thickness":2,"border_color":"transparent","canvas_width":1601,"canvas_height":900,"trial_type":"rdk","trial_index":19,"plugin_version":"2.0.0","time_elapsed":694867,"phase":"practice","target_direction":181,"distractor_direction":34},{"rt":5270,"stimulus":"\n        <div class=\"response-container\">\n          <div class=\"response-instruction\">\n            <p>rotate the bar by using the left and right arrow keys.</p>\n            <p>when you are determined, press the Enter key.</p>\n          </div>\n          <div class=\"response-circle\">\n            <div class=\"response-fixation\"></div>\n            <div id=\"bar\" class=\"rotating-bar\"></div>\n          </div>\n        </div>\n      ","response":"Enter","trial_type":"html-keyboard-response","trial_index":20,"plugin_version":"2.1.0","time_elapsed":700140,"random_initial_angle":159,"response_angle_css":248,"response_angle_rdk":202,"angular_error_target":21,"angular_error_distractor":168,"target_direction":181,"target_group":"white","reward_points":5},{"rt":null,"stimulus":"\n          <p style=\"color: #00FF00;\">Your reward: 5 points</p>\n        ","response":null,"trial_type":"html-keyboard-response","trial_index":21,"plugin_version":"2.1.0","time_elapsed":702142},{"rt":null,"stimulus":"<div class=\"fixation\" style=\"font-size: 60px;\">+</div>","response":null,"trial_type":"html-keyboard-response","trial_index":22,"plugin_version":"2.1.0","time_elapsed":703144},{"target_group":"black","target_index":1,"condition_label":"practice","rt":-1,"response":"","correct":false,"choices":"ALL_KEYS","correct_choice":["a"],"trial_duration":2000,"flip_timestamps":[],"response_ends_trial":false,"number_of_apertures":2,"number_of_dots":[91,100],"number_of_sets":1,"coherent_direction":[117,246],"coherence":1,"opposite_coherence":0,"dot_radius":2,"dot_side_length":1,"dot_life":-1,"move_distance":1,"aperture_width":300,"aperture_height":300,"dot_color":["white","black"],"dot_shape":"circle","background_color":"#AAA","RDK_type":3,"aperture_type":2,"reinsert_type":2,"frame_rate":16.75,"frame_rate_array":[4,17,17,17,17,17,17,17,16,17,17,17,17,17,16,17,17,17,17,17,17,17,17,16,17,16,17,18,16,16,16,17,17,17,17,16,17,17,17,16,17,17,16,17,17,18,15,17,17,17,17,17,17,17,17,17,17,17,17,17,17,16,17,17,18,16,17,17,17,17,17,16,17,17,16,17,17,17,17,17,17,17,17,16,17,17,17,16,17,17,17,17,17,17,17,17,17,17,17,17,17,17,17,16,17,17,17,17,17,17,17,17,17,17,17,16,17,17,17,17],"number_of_frames":120,"aperture_center_x":800.5,"aperture_center_y":450,"fixation_cross":true,"fixation_cross_width":15,"fixation_cross_height":15,"fixation_cross_color":"#111","fixation_cross_thickness":1,"border":true,"border_thickness":2,"border_color":"transparent","canvas_width":1601,"canvas_height":900,"trial_type":"rdk","trial_index":23,"plugin_version":"2.0.0","time_elapsed":705148,"phase":"practice","target_direction":246,"distractor_direction":117},{"rt":3863,"stimulus":"\n        <div class=\"response-container\">\n          <div class=\"response-instruction\">\n            <p>rotate the bar by using the left and right arrow keys.</p>\n            <p>when you are determined, press the Enter key.</p>\n          </div>\n          <div class=\"response-circle\">\n            <div class=\"response-fixation\"></div>\n            <div id=\"bar\" class=\"rotating-bar\"></div>\n          </div>\n        </div>\n      ","response":"Enter","trial_type":"html-keyboard-response","trial_index":24,"plugin_version":"2.1.0","time_elapsed":709013,"random_initial_angle":53,"response_angle_css":-22,"response_angle_rdk":112,"angular_error_target":-134,"angular_error_distractor":-5,"target_direction":246,"target_group":"black","reward_points":0},{"rt":null,"stimulus":"\n          <p style=\"color: #FF3333;\">Your reward: 0 points</p>\n        ","response":null,"trial_type":"html-keyboard-response","trial_index":25,"plugin_version":"2.1.0","time_elapsed":711015},{"rt":null,"stimulus":"<div class=\"fixation\" style=\"font-size: 60px;\">+</div>","response":null,"trial_type":"html-keyboard-response","trial_index":26,"plugin_version":"2.1.0","time_elapsed":712017},{"target_group":"black","target_index":1,"condition_label":"practice","rt":-1,"response":"","correct":false,"choices":"ALL_KEYS","correct_choice":["a"],"trial_duration":2000,"flip_timestamps":[],"response_ends_trial":false,"number_of_apertures":2,"number_of_dots":[65,100],"number_of_sets":1,"coherent_direction":[67,278],"coherence":1,"opposite_coherence":0,"dot_radius":2,"dot_side_length":1,"dot_life":-1,"move_distance":1,"aperture_width":300,"aperture_height":300,"dot_color":["white","black"],"dot_shape":"circle","background_color":"#AAA","RDK_type":3,"aperture_type":2,"reinsert_type":2,"frame_rate":16.875,"frame_rate_array":[12,17,17,17,17,17,17,16,17,17,17,17,16,17,17,17,17,17,17,17,17,17,17,17,17,17,17,17,17,17,17,17,17,17,17,17,17,17,17,17,17,17,17,17,16,17,17,17,17,17,17,17,17,17,17,16,17,17,17,17,17,17,17,17,16,17,17,17,16,17,17,17,17,17,17,17,17,17,17,17,16,17,17,17,17,17,17,17,16,17,17,17,17,17,17,17,17,17,17,17,17,17,17,17,17,17,17,17,17,17,16,17,17,17,17,17,16,17,17,17],"number_of_frames":120,"aperture_center_x":800.5,"aperture_center_y":450,"fixation_cross":true,"fixation_cross_width":15,"fixation_cross_height":15,"fixation_cross_color":"#111","fixation_cross_thickness":1,"border":true,"border_thickness":2,"border_color":"transparent","canvas_width":1601,"canvas_height":900,"trial_type":"rdk","trial_index":27,"plugin_version":"2.0.0","time_elapsed":714022,"phase":"practice","target_direction":278,"distractor_direction":67},{"rt":3640,"stimulus":"\n        <div class=\"response-container\">\n          <div class=\"response-instruction\">\n            <p>rotate the bar by using the left and right arrow keys.</p>\n            <p>when you are determined, press the Enter key.</p>\n          </div>\n          <div class=\"response-circle\">\n            <div class=\"response-fixation\"></div>\n            <div id=\"bar\" class=\"rotating-bar\"></div>\n          </div>\n        </div>\n      ","response":"Enter","trial_type":"html-keyboard-response","trial_index":28,"plugin_version":"2.1.0","time_elapsed":717663,"random_initial_angle":7,"response_angle_css":15,"response_angle_rdk":75,"angular_error_target":157,"angular_error_distractor":8,"target_direction":278,"target_group":"black","reward_points":0},{"rt":null,"stimulus":"\n          <p style=\"color: #FF3333;\">Your reward: 0 points</p>\n        ","response":null,"trial_type":"html-keyboard-response","trial_index":29,"plugin_version":"2.1.0","time_elapsed":719665},{"rt":null,"stimulus":"<div class=\"fixation\" style=\"font-size: 60px;\">+</div>","response":null,"trial_type":"html-keyboard-response","trial_index":30,"plugin_version":"2.1.0","time_elapsed":720666},{"target_group":"white","target_index":0,"condition_label":"practice","rt":-1,"response":"","correct":false,"choices":"ALL_KEYS","correct_choice":["a"],"trial_duration":2000,"flip_timestamps":[],"response_ends_trial":false,"number_of_apertures":2,"number_of_dots":[100,55],"number_of_sets":1,"coherent_direction":[202,27],"coherence":1,"opposite_coherence":0,"dot_radius":2,"dot_side_length":1,"dot_life":-1,"move_distance":1,"aperture_width":300,"aperture_height":300,"dot_color":["white","black"],"dot_shape":"circle","background_color":"#AAA","RDK_type":3,"aperture_type":2,"reinsert_type":2,"frame_rate":16.658333333333335,"frame_rate_array":[12,10,17,17,17,17,17,17,17,17,16,17,17,18,15,16,17,17,17,17,17,17,17,17,17,17,17,16,17,17,16,17,17,17,16,17,17,17,17,17,17,16,17,16,17,17,16,17,16,17,17,16,17,16,17,17,17,17,17,17,17,16,16,17,17,17,17,17,17,17,16,16,17,17,17,17,17,17,17,17,16,17,17,17,16,16,17,16,17,17,17,17,16,17,16,17,17,17,17,16,17,16,17,17,17,17,17,16,16,16,17,17,16,17,17,17,17,16,17,17],"number_of_frames":120,"aperture_center_x":800.5,"aperture_center_y":450,"fixation_cross":true,"fixation_cross_width":15,"fixation_cross_height":15,"fixation_cross_color":"#111","fixation_cross_thickness":1,"border":true,"border_thickness":2,"border_color":"transparent","canvas_width":1601,"canvas_height":900,"trial_type":"rdk","trial_index":31,"plugin_version":"2.0.0","time_elapsed":722670,"phase":"practice","target_direction":202,"distractor_direction":27},{"rt":5056,"stimulus":"\n        <div class=\"response-container\">\n          <div class=\"response-instruction\">\n            <p>rotate the bar by using the left and right arrow keys.</p>\n            <p>when you are determined, press the Enter key.</p>\n          </div>\n          <div class=\"response-circle\">\n            <div class=\"response-fixation\"></div>\n            <div id=\"bar\" class=\"rotating-bar\"></div>\n          </div>\n        </div>\n      ","response":"Enter","trial_type":"html-keyboard-response","trial_index":32,"plugin_version":"2.1.0","time_elapsed":727728,"random_initial_angle":210,"response_angle_css":249,"response_angle_rdk":201,"angular_error_target":-1,"angular_error_distractor":174,"target_direction":202,"target_group":"white","reward_points":9},{"rt":null,"stimulus":"\n          <p style=\"color: #00FF00;\">Your reward: 9 points</p>\n        ","response":null,"trial_type":"html-keyboard-response","trial_index":33,"plugin_version":"2.1.0","time_elapsed":729730},{"rt":null,"stimulus":"<div class=\"fixation\" style=\"font-size: 60px;\">+</div>","response":null,"trial_type":"html-keyboard-response","trial_index":34,"plugin_version":"2.1.0","time_elapsed":730732},{"target_group":"white","target_index":0,"condition_label":"practice","rt":-1,"response":"","correct":false,"choices":"ALL_KEYS","correct_choice":["a"],"trial_duration":2000,"flip_timestamps":[],"response_ends_trial":false,"number_of_apertures":2,"number_of_dots":[100,99],"number_of_sets":1,"coherent_direction":[143,273],"coherence":1,"opposite_coherence":0,"dot_radius":2,"dot_side_length":1,"dot_life":-1,"move_distance":1,"aperture_width":300,"aperture_height":300,"dot_color":["white","black"],"dot_shape":"circle","background_color":"#AAA","RDK_type":3,"aperture_type":2,"reinsert_type":2,"frame_rate":16.866666666666667,"frame_rate_array":[13,17,16,17,17,17,17,16,16,17,17,16,17,17,17,17,17,17,17,16,17,17,17,17,17,16,17,17,16,17,17,16,17,17,17,17,17,17,17,17,17,17,17,17,17,17,17,17,17,17,17,17,17,17,17,17,17,17,17,17,17,17,17,16,17,17,17,17,17,17,17,17,17,17,17,17,17,17,17,17,17,17,17,17,17,17,17,17,17,17,17,17,17,17,17,17,16,17,17,17,17,16,17,17,17,16,17,17,17,17,17,17,17,17,17,17,17,17,17,17],"number_of_frames":120,"aperture_center_x":800.5,"aperture_center_y":450,"fixation_cross":true,"fixation_cross_width":15,"fixation_cross_height":15,"fixation_cross_color":"#111","fixation_cross_thickness":1,"border":true,"border_thickness":2,"border_color":"transparent","canvas_width":1601,"canvas_height":900,"trial_type":"rdk","trial_index":35,"plugin_version":"2.0.0","time_elapsed":732735,"phase":"practice","target_direction":143,"distractor_direction":273},{"rt":5181,"stimulus":"\n        <div class=\"response-container\">\n          <div class=\"response-instruction\">\n            <p>rotate the bar by using the left and right arrow keys.</p>\n            <p>when you are determined, press the Enter key.</p>\n          </div>\n          <div class=\"response-circle\">\n            <div class=\"response-fixation\"></div>\n            <div id=\"bar\" class=\"rotating-bar\"></div>\n          </div>\n        </div>\n      ","response":"Enter","trial_type":"html-keyboard-response","trial_index":36,"plugin_version":"2.1.0","time_elapsed":737918,"random_initial_angle":158,"response_angle_css":338,"response_angle_rdk":112,"angular_error_target":-31,"angular_error_distractor":-161,"target_direction":143,"target_group":"white","reward_points":3},{"rt":null,"stimulus":"\n          <p style=\"color: #00FF00;\">Your reward: 3 points</p>\n        ","response":null,"trial_type":"html-keyboard-response","trial_index":37,"plugin_version":"2.1.0","time_elapsed":739921},{"rt":null,"stimulus":"<div class=\"fixation\" style=\"font-size: 60px;\">+</div>","response":null,"trial_type":"html-keyboard-response","trial_index":38,"plugin_version":"2.1.0","time_elapsed":740923},{"target_group":"black","target_index":1,"condition_label":"practice","rt":-1,"response":"","correct":false,"choices":"ALL_KEYS","correct_choice":["a"],"trial_duration":2000,"flip_timestamps":[],"response_ends_trial":false,"number_of_apertures":2,"number_of_dots":[91,100],"number_of_sets":1,"coherent_direction":[226,24],"coherence":1,"opposite_coherence":0,"dot_radius":2,"dot_side_length":1,"dot_life":-1,"move_distance":1,"aperture_width":300,"aperture_height":300,"dot_color":["white","black"],"dot_shape":"circle","background_color":"#AAA","RDK_type":3,"aperture_type":2,"reinsert_type":2,"frame_rate":16.891666666666666,"frame_rate_array":[13,16,17,17,17,17,17,17,17,17,17,17,17,17,17,17,17,17,17,16,17,17,17,17,17,17,17,17,17,17,17,17,17,17,17,17,17,17,16,17,17,16,17,17,17,16,17,17,17,17,17,17,17,17,17,17,17,17,17,17,17,17,17,17,17,17,17,17,17,17,17,17,17,17,17,17,17,17,16,17,17,17,17,17,17,17,17,17,17,16,17,17,17,17,17,17,17,17,17,17,17,17,17,16,17,17,17,17,17,17,17,17,17,17,17,17,17,17,16,17],"number_of_frames":120,"aperture_center_x":800.5,"aperture_center_y":450,"fixation_cross":true,"fixation_cross_width":15,"fixation_cross_height":15,"fixation_cross_color":"#111","fixation_cross_thickness":1,"border":true,"border_thickness":2,"border_color":"transparent","canvas_width":1601,"canvas_height":900,"trial_type":"rdk","trial_index":39,"plugin_version":"2.0.0","time_elapsed":742927,"phase":"practice","target_direction":24,"distractor_direction":226},{"rt":4628,"stimulus":"\n        <div class=\"response-container\">\n          <div class=\"response-instruction\">\n            <p>rotate the bar by using the left and right arrow keys.</p>\n            <p>when you are determined, press the Enter key.</p>\n          </div>\n          <div class=\"response-circle\">\n            <div class=\"response-fixation\"></div>\n            <div id=\"bar\" class=\"rotating-bar\"></div>\n          </div>\n        </div>\n      ","response":"Enter","trial_type":"html-keyboard-response","trial_index":40,"plugin_version":"2.1.0","time_elapsed":747556,"random_initial_angle":94,"response_angle_css":247,"response_angle_rdk":203,"angular_error_target":179,"angular_error_distractor":-23,"target_direction":24,"target_group":"black","reward_points":0},{"rt":null,"stimulus":"\n          <p style=\"color: #FF3333;\">Your reward: 0 points</p>\n        ","response":null,"trial_type":"html-keyboard-response","trial_index":41,"plugin_version":"2.1.0","time_elapsed":749558},{"rt":null,"stimulus":"<div class=\"fixation\" style=\"font-size: 60px;\">+</div>","response":null,"trial_type":"html-keyboard-response","trial_index":42,"plugin_version":"2.1.0","time_elapsed":750560},{"target_group":"white","target_index":0,"condition_label":"practice","rt":-1,"response":"","correct":false,"choices":"ALL_KEYS","correct_choice":["a"],"trial_duration":2000,"flip_timestamps":[],"response_ends_trial":false,"number_of_apertures":2,"number_of_dots":[100,85],"number_of_sets":1,"coherent_direction":[195,98],"coherence":1,"opposite_coherence":0,"dot_radius":2,"dot_side_length":1,"dot_life":-1,"move_distance":1,"aperture_width":300,"aperture_height":300,"dot_color":["white","black"],"dot_shape":"circle","background_color":"#AAA","RDK_type":3,"aperture_type":2,"reinsert_type":2,"frame_rate":16.9,"frame_rate_array":[13,17,17,17,17,17,17,17,17,16,17,17,17,17,17,17,17,16,17,17,17,17,17,17,17,17,17,17,17,17,17,17,17,17,17,17,17,17,17,17,17,17,17,17,17,16,17,17,17,17,17,17,17,17,17,17,17,17,17,17,17,17,17,17,17,17,17,17,16,17,17,17,17,17,17,17,17,17,17,17,17,17,17,17,17,17,17,17,17,17,17,17,17,17,17,17,17,17,17,17,17,16,17,17,17,17,17,17,17,17,16,19,15,15,17,17,17,17,17,17],"number_of_frames":120,"aperture_center_x":800.5,"aperture_center_y":450,"fixation_cross":true,"fixation_cross_width":15,"fixation_cross_height":15,"fixation_cross_color":"#111","fixation_cross_thickness":1,"border":true,"border_thickness":2,"border_color":"transparent","canvas_width":1601,"canvas_height":900,"trial_type":"rdk","trial_index":43,"plugin_version":"2.0.0","time_elapsed":752561,"phase":"practice","target_direction":195,"distractor_direction":98},{"rt":4120,"stimulus":"\n        <div class=\"response-container\">\n          <div class=\"response-instruction\">\n            <p>rotate the bar by using the left and right arrow keys.</p>\n            <p>when you are determined, press the Enter key.</p>\n          </div>\n          <div class=\"response-circle\">\n            <div class=\"response-fixation\"></div>\n            <div id=\"bar\" class=\"rotating-bar\"></div>\n          </div>\n        </div>\n      ","response":"Enter","trial_type":"html-keyboard-response","trial_index":44,"plugin_version":"2.1.0","time_elapsed":756682,"random_initial_angle":226,"response_angle_css":247,"response_angle_rdk":203,"angular_error_target":8,"angular_error_distractor":105,"target_direction":195,"target_group":"white","reward_points":8},{"rt":null,"stimulus":"\n          <p style=\"color: #00FF00;\">Your reward: 8 points</p>\n        ","response":null,"trial_type":"html-keyboard-response","trial_index":45,"plugin_version":"2.1.0","time_elapsed":758684},{"rt":null,"stimulus":"<div class=\"fixation\" style=\"font-size: 60px;\">+</div>","response":null,"trial_type":"html-keyboard-response","trial_index":46,"plugin_version":"2.1.0","time_elapsed":759686},{"target_group":"black","target_index":1,"condition_label":"practice","rt":-1,"response":"","correct":false,"choices":"ALL_KEYS","correct_choice":["a"],"trial_duration":2000,"flip_timestamps":[],"response_ends_trial":false,"number_of_apertures":2,"number_of_dots":[73,100],"number_of_sets":1,"coherent_direction":[48,169],"coherence":1,"opposite_coherence":0,"dot_radius":2,"dot_side_length":1,"dot_life":-1,"move_distance":1,"aperture_width":300,"aperture_height":300,"dot_color":["white","black"],"dot_shape":"circle","background_color":"#AAA","RDK_type":3,"aperture_type":2,"reinsert_type":2,"frame_rate":16.708333333333332,"frame_rate_array":[2,16,17,17,17,16,17,17,17,17,16,17,17,17,17,17,17,16,16,17,17,17,17,17,17,17,17,17,17,16,16,17,17,17,17,16,17,17,16,17,17,16,17,16,18,16,17,17,17,17,17,17,17,16,17,16,17,16,17,17,16,17,17,17,17,17,17,17,17,17,17,17,17,17,17,17,17,16,17,17,17,17,17,16,17,17,17,17,17,17,17,17,17,17,17,17,17,17,17,17,17,17,16,17,17,17,17,17,16,17,16,17,17,17,17,17,17,17,17,17],"number_of_frames":120,"aperture_center_x":800.5,"aperture_center_y":450,"fixation_cross":true,"fixation_cross_width":15,"fixation_cross_height":15,"fixation_cross_color":"#111","fixation_cross_thickness":1,"border":true,"border_thickness":2,"border_color":"transparent","canvas_width":1601,"canvas_height":900,"trial_type":"rdk","trial_index":47,"plugin_version":"2.0.0","time_elapsed":761689,"phase":"practice","target_direction":169,"distractor_direction":48},{"rt":3033,"stimulus":"\n        <div class=\"response-container\">\n          <div class=\"response-instruction\">\n            <p>rotate the bar by using the left and right arrow keys.</p>\n            <p>when you are determined, press the Enter key.</p>\n          </div>\n          <div class=\"response-circle\">\n            <div class=\"response-fixation\"></div>\n            <div id=\"bar\" class=\"rotating-bar\"></div>\n          </div>\n        </div>\n      ","response":"Enter","trial_type":"html-keyboard-response","trial_index":48,"plugin_version":"2.1.0","time_elapsed":764724,"random_initial_angle":110,"response_angle_css":65,"response_angle_rdk":25,"angular_error_target":-144,"angular_error_distractor":-23,"target_direction":169,"target_group":"black","reward_points":0},{"rt":null,"stimulus":"\n          <p style=\"color: #FF3333;\">Your reward: 0 points</p>\n        ","response":null,"trial_type":"html-keyboard-response","trial_index":49,"plugin_version":"2.1.0","time_elapsed":766726},{"rt":null,"stimulus":"<div class=\"fixation\" style=\"font-size: 60px;\">+</div>","response":null,"trial_type":"html-keyboard-response","trial_index":50,"plugin_version":"2.1.0","time_elapsed":767729},{"target_group":"black","target_index":1,"condition_label":"practice","rt":-1,"response":"","correct":false,"choices":"ALL_KEYS","correct_choice":["a"],"trial_duration":2000,"flip_timestamps":[],"response_ends_trial":false,"number_of_apertures":2,"number_of_dots":[51,100],"number_of_sets":1,"coherent_direction":[218,53],"coherence":1,"opposite_coherence":0,"dot_radius":2,"dot_side_length":1,"dot_life":-1,"move_distance":1,"aperture_width":300,"aperture_height":300,"dot_color":["white","black"],"dot_shape":"circle","background_color":"#AAA","RDK_type":3,"aperture_type":2,"reinsert_type":2,"frame_rate":16.785123966942148,"frame_rate_array":[1,17,16,17,17,17,17,17,17,17,16,17,16,17,17,17,17,17,16,17,17,17,17,17,17,17,17,17,17,20,14,17,17,17,17,17,17,17,17,17,17,17,17,17,17,17,17,17,17,17,17,17,17,17,17,17,17,17,16,17,17,16,17,17,17,17,17,17,17,17,17,17,17,17,17,17,17,17,17,17,17,17,17,17,17,17,17,17,17,17,17,17,17,17,17,17,17,17,17,17,17,17,16,17,17,17,16,17,17,16,17,18,15,17,17,17,17,17,17,17,17],"number_of_frames":121,"aperture_center_x":800.5,"aperture_center_y":450,"fixation_cross":true,"fixation_cross_width":15,"fixation_cross_height":15,"fixation_cross_color":"#111","fixation_cross_thickness":1,"border":true,"border_thickness":2,"border_color":"transparent","canvas_width":1601,"canvas_height":900,"trial_type":"rdk","trial_index":51,"plugin_version":"2.0.0","time_elapsed":769733,"phase":"practice","target_direction":53,"distractor_direction":218},{"rt":3469,"stimulus":"\n        <div class=\"response-container\">\n          <div class=\"response-instruction\">\n            <p>rotate the bar by using the left and right arrow keys.</p>\n            <p>when you are determined, press the Enter key.</p>\n          </div>\n          <div class=\"response-circle\">\n            <div class=\"response-fixation\"></div>\n            <div id=\"bar\" class=\"rotating-bar\"></div>\n          </div>\n        </div>\n      ","response":"Enter","trial_type":"html-keyboard-response","trial_index":52,"plugin_version":"2.1.0","time_elapsed":773203,"random_initial_angle":117,"response_angle_css":233,"response_angle_rdk":217,"angular_error_target":164,"angular_error_distractor":-1,"target_direction":53,"target_group":"black","reward_points":0},{"rt":null,"stimulus":"\n          <p style=\"color: #FF3333;\">Your reward: 0 points</p>\n        ","response":null,"trial_type":"html-keyboard-response","trial_index":53,"plugin_version":"2.1.0","time_elapsed":775205},{"rt":null,"stimulus":"<div class=\"fixation\" style=\"font-size: 60px;\">+</div>","response":null,"trial_type":"html-keyboard-response","trial_index":54,"plugin_version":"2.1.0","time_elapsed":776207},{"target_group":"white","target_index":0,"condition_label":"practice","rt":-1,"response":"","correct":false,"choices":"ALL_KEYS","correct_choice":["a"],"trial_duration":2000,"flip_timestamps":[],"response_ends_trial":false,"number_of_apertures":2,"number_of_dots":[100,57],"number_of_sets":1,"coherent_direction":[126,26],"coherence":1,"opposite_coherence":0,"dot_radius":2,"dot_side_length":1,"dot_life":-1,"move_distance":1,"aperture_width":300,"aperture_height":300,"dot_color":["white","black"],"dot_shape":"circle","background_color":"#AAA","RDK_type":3,"aperture_type":2,"reinsert_type":2,"frame_rate":16.727272727272727,"frame_rate_array":[2,15,17,17,17,17,17,17,16,17,17,17,17,17,17,17,17,17,17,17,17,17,17,16,17,16,17,17,16,17,17,17,17,17,17,17,17,17,17,17,17,17,17,17,17,16,17,17,17,17,16,17,17,17,16,17,17,17,17,17,17,17,17,17,16,17,17,17,17,17,17,17,17,16,17,17,16,17,17,17,16,17,17,17,17,17,17,17,17,17,17,16,17,17,17,16,17,17,17,17,17,17,16,17,17,16,17,17,17,16,17,17,17,17,17,17,17,17,17,17,17],"number_of_frames":121,"aperture_center_x":800.5,"aperture_center_y":450,"fixation_cross":true,"fixation_cross_width":15,"fixation_cross_height":15,"fixation_cross_color":"#111","fixation_cross_thickness":1,"border":true,"border_thickness":2,"border_color":"transparent","canvas_width":1601,"canvas_height":900,"trial_type":"rdk","trial_index":55,"plugin_version":"2.0.0","time_elapsed":778211,"phase":"practice","target_direction":126,"distractor_direction":26},{"rt":2459,"stimulus":"\n        <div class=\"response-container\">\n          <div class=\"response-instruction\">\n            <p>rotate the bar by using the left and right arrow keys.</p>\n            <p>when you are determined, press the Enter key.</p>\n          </div>\n          <div class=\"response-circle\">\n            <div class=\"response-fixation\"></div>\n            <div id=\"bar\" class=\"rotating-bar\"></div>\n          </div>\n        </div>\n      ","response":"Enter","trial_type":"html-keyboard-response","trial_index":56,"plugin_version":"2.1.0","time_elapsed":780672,"random_initial_angle":7,"response_angle_css":-62,"response_angle_rdk":152,"angular_error_target":26,"angular_error_distractor":126,"target_direction":126,"target_group":"white","reward_points":4},{"rt":null,"stimulus":"\n          <p style=\"color: #00FF00;\">Your reward: 4 points</p>\n        ","response":null,"trial_type":"html-keyboard-response","trial_index":57,"plugin_version":"2.1.0","time_elapsed":782675},{"rt":null,"stimulus":"<div class=\"fixation\" style=\"font-size: 60px;\">+</div>","response":null,"trial_type":"html-keyboard-response","trial_index":58,"plugin_version":"2.1.0","time_elapsed":783677},{"target_group":"black","target_index":1,"condition_label":"practice","rt":-1,"response":"","correct":false,"choices":"ALL_KEYS","correct_choice":["a"],"trial_duration":2000,"flip_timestamps":[],"response_ends_trial":false,"number_of_apertures":2,"number_of_dots":[72,100],"number_of_sets":1,"coherent_direction":[75,188],"coherence":1,"opposite_coherence":0,"dot_radius":2,"dot_side_length":1,"dot_life":-1,"move_distance":1,"aperture_width":300,"aperture_height":300,"dot_color":["white","black"],"dot_shape":"circle","background_color":"#AAA","RDK_type":3,"aperture_type":2,"reinsert_type":2,"frame_rate":16.75,"frame_rate_array":[8,16,17,17,17,17,17,17,17,18,16,17,17,17,17,16,17,17,17,16,17,17,17,17,17,17,17,16,17,17,17,17,16,17,17,17,16,17,17,17,17,17,17,17,17,16,17,17,17,17,17,17,17,17,17,17,17,17,17,17,17,16,17,17,17,16,17,17,16,17,16,17,17,17,16,17,17,17,17,17,17,17,17,17,16,17,16,17,17,17,18,16,16,17,16,17,17,17,17,17,17,17,16,20,13,17,17,17,16,17,17,24,16,10,16,17,18,16,17,17],"number_of_frames":120,"aperture_center_x":800.5,"aperture_center_y":450,"fixation_cross":true,"fixation_cross_width":15,"fixation_cross_height":15,"fixation_cross_color":"#111","fixation_cross_thickness":1,"border":true,"border_thickness":2,"border_color":"transparent","canvas_width":1601,"canvas_height":900,"trial_type":"rdk","trial_index":59,"plugin_version":"2.0.0","time_elapsed":785680,"phase":"practice","target_direction":188,"distractor_direction":75},{"rt":3504,"stimulus":"\n        <div class=\"response-container\">\n          <div class=\"response-instruction\">\n            <p>rotate the bar by using the left and right arrow keys.</p>\n            <p>when you are determined, press the Enter key.</p>\n          </div>\n          <div class=\"response-circle\">\n            <div class=\"response-fixation\"></div>\n            <div id=\"bar\" class=\"rotating-bar\"></div>\n          </div>\n        </div>\n      ","response":"Enter","trial_type":"html-keyboard-response","trial_index":60,"plugin_version":"2.1.0","time_elapsed":789185,"random_initial_angle":197,"response_angle_css":395,"response_angle_rdk":55,"angular_error_target":-133,"angular_error_distractor":-20,"target_direction":188,"target_group":"black","reward_points":0},{"rt":null,"stimulus":"\n          <p style=\"color: #FF3333;\">Your reward: 0 points</p>\n        ","response":null,"trial_type":"html-keyboard-response","trial_index":61,"plugin_version":"2.1.0","time_elapsed":791187},{"rt":null,"stimulus":"<div class=\"fixation\" style=\"font-size: 60px;\">+</div>","response":null,"trial_type":"html-keyboard-response","trial_index":62,"plugin_version":"2.1.0","time_elapsed":792189},{"target_group":"white","target_index":0,"condition_label":"practice","rt":-1,"response":"","correct":false,"choices":"ALL_KEYS","correct_choice":["a"],"trial_duration":2000,"flip_timestamps":[],"response_ends_trial":false,"number_of_apertures":2,"number_of_dots":[100,55],"number_of_sets":1,"coherent_direction":[286,163],"coherence":1,"opposite_coherence":0,"dot_radius":2,"dot_side_length":1,"dot_life":-1,"move_distance":1,"aperture_width":300,"aperture_height":300,"dot_color":["white","black"],"dot_shape":"circle","background_color":"#AAA","RDK_type":3,"aperture_type":2,"reinsert_type":2,"frame_rate":16.808333333333334,"frame_rate_array":[7,17,16,17,17,17,17,16,17,17,17,17,17,17,17,17,17,17,17,17,17,16,17,17,17,17,17,17,16,17,17,17,17,17,16,17,17,17,17,17,16,17,17,17,17,17,17,17,17,17,17,17,17,17,17,17,17,16,17,17,17,17,17,17,16,17,17,17,17,17,16,17,17,17,17,17,17,17,17,17,17,17,17,17,16,17,17,17,16,17,17,17,17,17,17,17,17,16,17,17,17,17,17,17,17,17,17,17,16,17,17,17,17,17,17,17,17,17,17,17],"number_of_frames":120,"aperture_center_x":800.5,"aperture_center_y":450,"fixation_cross":true,"fixation_cross_width":15,"fixation_cross_height":15,"fixation_cross_color":"#111","fixation_cross_thickness":1,"border":true,"border_thickness":2,"border_color":"transparent","canvas_width":1601,"canvas_height":900,"trial_type":"rdk","trial_index":63,"plugin_version":"2.0.0","time_elapsed":794192,"phase":"practice","target_direction":286,"distractor_direction":163},{"rt":2752,"stimulus":"\n        <div class=\"response-container\">\n          <div class=\"response-instruction\">\n            <p>rotate the bar by using the left and right arrow keys.</p>\n            <p>when you are determined, press the Enter key.</p>\n          </div>\n          <div class=\"response-circle\">\n            <div class=\"response-fixation\"></div>\n            <div id=\"bar\" class=\"rotating-bar\"></div>\n          </div>\n        </div>\n      ","response":"Enter","trial_type":"html-keyboard-response","trial_index":64,"plugin_version":"2.1.0","time_elapsed":796946,"random_initial_angle":12,"response_angle_css":147,"response_angle_rdk":303,"angular_error_target":17,"angular_error_distractor":140,"target_direction":286,"target_group":"white","reward_points":6},{"rt":null,"stimulus":"\n          <p style=\"color: #00FF00;\">Your reward: 6 points</p>\n        ","response":null,"trial_type":"html-keyboard-response","trial_index":65,"plugin_version":"2.1.0","time_elapsed":798948},{"rt":1400,"stimulus":"\n        <div class=\"instructions-container\">\n          <h2>End of Practice</h2>\n          <p>You have completed the practice trials.</p>\n          <p>Press <strong>Enter</strong> key to begin the main experiment.</p>\n        </div>\n      ","response":"Enter","trial_type":"html-keyboard-response","trial_index":66,"plugin_version":"2.1.0","time_elapsed":800350},{"rt":null,"stimulus":"<div class=\"fixation\" style=\"font-size: 60px;\">+</div>","response":null,"trial_type":"html-keyboard-response","trial_index":67,"plugin_version":"2.1.0","time_elapsed":801353},{"phase":"learning-awareness","target_group":"black","condition_label":"B_H_vs_W_L_rep12","target_direction":63,"distractor_direction":158,"session_rotation":319,"rt":-1,"response":"","correct":false,"choices":"ALL_KEYS","correct_choice":["a"],"trial_duration":2000,"flip_timestamps":[],"response_ends_trial":false,"number_of_apertures":200,"number_of_dots":[1,1,1,1,1,1,1,1,1,1,1,1,1,1,1,1,1,1,1,1,1,1,1,1,1,1,1,1,1,1,1,1,1,1,1,1,1,1,1,1,1,1,1,1,1,1,1,1,1,1,1,1,1,1,1,1,1,1,1,1,1,1,1,1,1,1,1,1,1,1,1,1,1,1,1,1,1,1,1,1,1,1,1,1,1,1,1,1,1,1,1,1,1,1,1,1,1,1,1,1,1,1,1,1,1,1,1,1,1,1,1,1,1,1,1,1,1,1,1,1,1,1,1,1,1,1,1,1,1,1,1,1,1,1,1,1,1,1,1,1,1,1,1,1,1,1,1,1,1,1,1,1,1,1,1,1,1,1,1,1,1,1,1,1,1,1,1,1,1,1,1,1,1,1,1,1,1,1,1,1,1,1,1,1,1,1,1,1,1,1,1,1,1,1,1,1,1,1,1,1],"number_of_sets":1,"coherent_direction":[63,158,63,158,63,158,63,63,63,63,158,158,158,158,63,63,158,158,63,63,158,63,63,158,63,63,158,158,158,63,63,63,158,63,63,158,63,63,63,63,63,158,158,63,63,158,158,158,63,158,63,158,63,158,158,63,63,158,158,63,63,158,158,158,158,63,63,63,63,158,63,63,158,158,63,158,158,158,63,158,158,158,63,63,63,63,63,63,158,63,158,158,63,158,158,158,158,158,63,158,158,158,63,63,158,158,63,158,63,63,63,63,158,63,63,63,63,63,63,158,158,158,158,158,63,158,158,63,158,158,158,63,63,158,158,63,158,63,158,158,63,158,63,158,158,158,158,63,158,63,158,158,158,63,158,63,63,63,158,63,63,63,63,63,158,63,63,158,158,63,158,63,63,158,158,158,63,158,158,63,63,63,158,158,63,158,63,158,63,63,158,63,63,158,63,158,158,158,63,158],"coherence":1,"opposite_coherence":0,"dot_radius":2,"dot_side_length":1,"dot_life":-1,"move_distance":1,"aperture_width":300,"aperture_height":300,"dot_color":["black","white","black","white","black","white","black","black","black","black","white","white","white","white","black","black","white","white","black","black","white","black","black","white","black","black","white","white","white","black","black","black","white","black","black","white","black","black","black","black","black","white","white","black","black","white","white","white","black","white","black","white","black","white","white","black","black","white","white","black","black","white","white","white","white","black","black","black","black","white","black","black","white","white","black","white","white","white","black","white","white","white","black","black","black","black","black","black","white","black","white","white","black","white","white","white","white","white","black","white","white","white","black","black","white","white","black","white","black","black","black","black","white","black","black","black","black","black","black","white","white","white","white","white","black","white","white","black","white","white","white","black","black","white","white","black","white","black","white","white","black","white","black","white","white","white","white","black","white","black","white","white","white","black","white","black","black","black","white","black","black","black","black","black","white","black","black","white","white","black","white","black","black","white","white","white","black","white","white","black","black","black","white","white","black","white","black","white","black","black","white","black","black","white","black","white","white","white","black","white"],"dot_shape":"circle","background_color":"#AAA","RDK_type":3,"aperture_type":2,"reinsert_type":2,"frame_rate":16.708333333333332,"frame_rate_array":[8,15,17,17,16,18,17,17,17,16,17,17,17,16,17,16,17,17,16,17,17,18,33,4,12,16,19,15,17,16,17,17,17,17,18,15,17,17,17,17,17,17,17,17,17,17,17,16,17,17,17,18,16,18,16,17,16,18,16,17,17,16,17,17,17,17,18,16,16,17,17,17,18,15,19,15,17,16,17,16,17,18,16,16,17,17,16,17,17,17,17,17,17,18,16,16,17,17,17,16,17,18,15,17,17,17,19,15,19,15,18,15,17,17,16,17,16,17,17,16],"number_of_frames":120,"aperture_center_x":800.5,"aperture_center_y":450,"fixation_cross":true,"fixation_cross_width":15,"fixation_cross_height":15,"fixation_cross_color":"#111","fixation_cross_thickness":1,"border":true,"border_thickness":2,"border_color":"transparent","canvas_width":1601,"canvas_height":900,"trial_type":"rdk","trial_index":68,"plugin_version":"2.0.0","time_elapsed":803358},{"rt":2814,"stimulus":"\n        <div class=\"response-container\">\n          <div class=\"response-instruction\">\n            <p>rotate the bar by using the left and right arrow keys.</p>\n            <p>when you are determined, press the Enter key.</p>\n          </div>\n          <div class=\"response-circle\">\n            <div class=\"response-fixation\"></div>\n            <div id=\"bar\" class=\"rotating-bar\"></div>\n          </div>\n        </div>\n      ","response":"Enter","trial_type":"html-keyboard-response","trial_index":69,"plugin_version":"2.1.0","time_elapsed":806175,"random_initial_angle":21,"response_angle_css":-98,"response_angle_rdk":188,"angular_error_target":125,"angular_error_distractor":30,"target_direction":63,"target_group":"black","reward_points":0},{"rt":null,"stimulus":"\n          <p style=\"color: #FF3333;\">Your reward: 0 points</p>\n        ","response":null,"trial_type":"html-keyboard-response","trial_index":70,"plugin_version":"2.1.0","time_elapsed":808177},{"rt":null,"stimulus":"<div class=\"fixation\" style=\"font-size: 60px;\">+</div>","response":null,"trial_type":"html-keyboard-response","trial_index":71,"plugin_version":"2.1.0","time_elapsed":809179},{"phase":"learning-awareness","target_group":"black","condition_label":"B_H_vs_W_L_rep6","target_direction":76,"distractor_direction":177,"session_rotation":319,"rt":1931,"response":"ArrowRight","correct":false,"choices":"ALL_KEYS","correct_choice":["a"],"trial_duration":2000,"flip_timestamps":[],"response_ends_trial":false,"number_of_apertures":200,"number_of_dots":[1,1,1,1,1,1,1,1,1,1,1,1,1,1,1,1,1,1,1,1,1,1,1,1,1,1,1,1,1,1,1,1,1,1,1,1,1,1,1,1,1,1,1,1,1,1,1,1,1,1,1,1,1,1,1,1,1,1,1,1,1,1,1,1,1,1,1,1,1,1,1,1,1,1,1,1,1,1,1,1,1,1,1,1,1,1,1,1,1,1,1,1,1,1,1,1,1,1,1,1,1,1,1,1,1,1,1,1,1,1,1,1,1,1,1,1,1,1,1,1,1,1,1,1,1,1,1,1,1,1,1,1,1,1,1,1,1,1,1,1,1,1,1,1,1,1,1,1,1,1,1,1,1,1,1,1,1,1,1,1,1,1,1,1,1,1,1,1,1,1,1,1,1,1,1,1,1,1,1,1,1,1,1,1,1,1,1,1,1,1,1,1,1,1,1,1,1,1,1,1],"number_of_sets":1,"coherent_direction":[177,177,177,177,177,76,177,76,76,76,76,76,177,76,76,177,177,177,177,76,76,177,177,76,177,76,177,177,177,76,76,76,177,177,76,177,177,177,177,76,76,76,76,76,177,177,177,76,76,177,177,177,76,76,76,177,177,177,76,177,76,76,177,177,177,76,76,76,177,177,76,76,76,76,76,177,177,177,177,76,76,76,177,76,177,76,76,177,76,76,177,177,76,76,177,76,177,76,76,177,76,177,177,177,76,177,177,177,177,76,76,76,177,76,76,177,177,76,177,177,177,177,76,177,76,76,76,177,177,76,177,76,177,177,76,76,177,76,177,76,76,76,76,76,177,76,177,177,177,177,76,177,76,177,76,76,76,177,177,76,177,177,177,76,177,76,177,177,76,177,76,177,76,76,76,177,177,76,76,76,76,76,76,177,76,76,76,177,76,76,177,76,177,177,177,177,177,76,76,177],"coherence":1,"opposite_coherence":0,"dot_radius":2,"dot_side_length":1,"dot_life":-1,"move_distance":1,"aperture_width":300,"aperture_height":300,"dot_color":["white","white","white","white","white","black","white","black","black","black","black","black","white","black","black","white","white","white","white","black","black","white","white","black","white","black","white","white","white","black","black","black","white","white","black","white","white","white","white","black","black","black","black","black","white","white","white","black","black","white","white","white","black","black","black","white","white","white","black","white","black","black","white","white","white","black","black","black","white","white","black","black","black","black","black","white","white","white","white","black","black","black","white","black","white","black","black","white","black","black","white","white","black","black","white","black","white","black","black","white","black","white","white","white","black","white","white","white","white","black","black","black","white","black","black","white","white","black","white","white","white","white","black","white","black","black","black","white","white","black","white","black","white","white","black","black","white","black","white","black","black","black","black","black","white","black","white","white","white","white","black","white","black","white","black","black","black","white","white","black","white","white","white","black","white","black","white","white","black","white","black","white","black","black","black","white","white","black","black","black","black","black","black","white","black","black","black","white","black","black","white","black","white","white","white","white","white","black","black","white"],"dot_shape":"circle","background_color":"#AAA","RDK_type":3,"aperture_type":2,"reinsert_type":2,"frame_rate":16.741666666666667,"frame_rate_array":[2,18,15,17,17,17,17,17,17,17,17,17,17,17,17,18,15,17,17,17,17,17,17,18,15,17,17,17,17,17,17,17,17,17,17,17,17,17,16,17,17,17,17,17,17,17,17,17,17,17,17,17,16,17,16,17,17,16,17,17,18,17,15,16,17,17,17,17,17,17,17,17,17,17,17,16,17,17,17,19,15,17,17,17,16,17,17,17,16,17,17,17,17,18,16,18,15,17,16,17,17,17,17,17,17,17,18,16,17,17,17,17,16,17,17,17,17,17,16,17],"number_of_frames":120,"aperture_center_x":800.5,"aperture_center_y":450,"fixation_cross":true,"fixation_cross_width":15,"fixation_cross_height":15,"fixation_cross_color":"#111","fixation_cross_thickness":1,"border":true,"border_thickness":2,"border_color":"transparent","canvas_width":1601,"canvas_height":900,"trial_type":"rdk","trial_index":72,"plugin_version":"2.0.0","time_elapsed":811183},{"rt":2199,"stimulus":"\n        <div class=\"response-container\">\n          <div class=\"response-instruction\">\n            <p>rotate the bar by using the left and right arrow keys.</p>\n            <p>when you are determined, press the Enter key.</p>\n          </div>\n          <div class=\"response-circle\">\n            <div class=\"response-fixation\"></div>\n            <div id=\"bar\" class=\"rotating-bar\"></div>\n          </div>\n        </div>\n      ","response":"Enter","trial_type":"html-keyboard-response","trial_index":73,"plugin_version":"2.1.0","time_elapsed":813383,"random_initial_angle":64,"response_angle_css":27,"response_angle_rdk":63,"angular_error_target":-13,"angular_error_distractor":-114,"target_direction":76,"target_group":"black","reward_points":7},{"rt":null,"stimulus":"\n          <p style=\"color: #00FF00;\">Your reward: 7 points</p>\n        ","response":null,"trial_type":"html-keyboard-response","trial_index":74,"plugin_version":"2.1.0","time_elapsed":815385},{"rt":null,"stimulus":"<div class=\"fixation\" style=\"font-size: 60px;\">+</div>","response":null,"trial_type":"html-keyboard-response","trial_index":75,"plugin_version":"2.1.0","time_elapsed":816387},{"phase":"learning-awareness","target_group":"white","condition_label":"W_H_vs_B_L_rep7","target_direction":342,"distractor_direction":247,"session_rotation":319,"rt":-1,"response":"","correct":false,"choices":"ALL_KEYS","correct_choice":["a"],"trial_duration":2000,"flip_timestamps":[],"response_ends_trial":false,"number_of_apertures":200,"number_of_dots":[1,1,1,1,1,1,1,1,1,1,1,1,1,1,1,1,1,1,1,1,1,1,1,1,1,1,1,1,1,1,1,1,1,1,1,1,1,1,1,1,1,1,1,1,1,1,1,1,1,1,1,1,1,1,1,1,1,1,1,1,1,1,1,1,1,1,1,1,1,1,1,1,1,1,1,1,1,1,1,1,1,1,1,1,1,1,1,1,1,1,1,1,1,1,1,1,1,1,1,1,1,1,1,1,1,1,1,1,1,1,1,1,1,1,1,1,1,1,1,1,1,1,1,1,1,1,1,1,1,1,1,1,1,1,1,1,1,1,1,1,1,1,1,1,1,1,1,1,1,1,1,1,1,1,1,1,1,1,1,1,1,1,1,1,1,1,1,1,1,1,1,1,1,1,1,1,1,1,1,1,1,1,1,1,1,1,1,1,1,1,1,1,1,1,1,1,1,1,1,1],"number_of_sets":1,"coherent_direction":[247,247,342,342,247,247,342,342,247,247,247,342,342,247,342,342,342,342,247,247,247,247,342,342,342,247,342,342,247,247,247,247,247,247,342,247,342,247,247,247,342,247,342,247,247,342,247,342,342,342,342,247,342,247,342,247,247,342,247,342,342,342,342,247,342,342,247,342,342,342,342,247,342,247,247,247,247,342,247,342,342,247,247,342,342,247,247,247,247,342,342,342,247,247,342,342,247,247,342,247,247,342,247,247,342,247,247,247,342,342,247,342,342,247,342,247,342,247,342,342,342,247,342,247,247,247,247,247,247,342,247,247,247,342,342,247,342,342,247,247,342,342,247,342,342,247,247,247,342,247,342,342,247,247,342,342,342,342,247,342,342,342,342,247,247,247,342,247,247,247,342,342,342,342,247,247,342,342,342,247,342,342,247,342,247,247,342,247,342,342,247,342,247,247,342,342,342,247,247,342],"coherence":1,"opposite_coherence":0,"dot_radius":2,"dot_side_length":1,"dot_life":-1,"move_distance":1,"aperture_width":300,"aperture_height":300,"dot_color":["black","black","white","white","black","black","white","white","black","black","black","white","white","black","white","white","white","white","black","black","black","black","white","white","white","black","white","white","black","black","black","black","black","black","white","black","white","black","black","black","white","black","white","black","black","white","black","white","white","white","white","black","white","black","white","black","black","white","black","white","white","white","white","black","white","white","black","white","white","white","white","black","white","black","black","black","black","white","black","white","white","black","black","white","white","black","black","black","black","white","white","white","black","black","white","white","black","black","white","black","black","white","black","black","white","black","black","black","white","white","black","white","white","black","white","black","white","black","white","white","white","black","white","black","black","black","black","black","black","white","black","black","black","white","white","black","white","white","black","black","white","white","black","white","white","black","black","black","white","black","white","white","black","black","white","white","white","white","black","white","white","white","white","black","black","black","white","black","black","black","white","white","white","white","black","black","white","white","white","black","white","white","black","white","black","black","white","black","white","white","black","white","black","black","white","white","white","black","black","white"],"dot_shape":"circle","background_color":"#AAA","RDK_type":3,"aperture_type":2,"reinsert_type":2,"frame_rate":16.658333333333335,"frame_rate_array":[7,14,17,19,16,16,17,18,16,17,18,16,17,17,16,17,16,17,18,16,16,16,17,16,17,16,17,16,16,16,18,16,17,17,17,17,16,17,16,18,16,16,17,17,17,17,16,18,17,17,17,17,16,16,16,16,17,17,18,16,17,17,16,16,17,17,17,17,17,17,17,16,17,16,17,17,16,17,17,17,16,17,16,17,17,17,17,18,17,17,17,17,16,17,17,16,18,17,17,16,17,17,17,17,17,17,17,16,17,16,17,17,16,17,17,17,16,17,17,17],"number_of_frames":120,"aperture_center_x":800.5,"aperture_center_y":450,"fixation_cross":true,"fixation_cross_width":15,"fixation_cross_height":15,"fixation_cross_color":"#111","fixation_cross_thickness":1,"border":true,"border_thickness":2,"border_color":"transparent","canvas_width":1601,"canvas_height":900,"trial_type":"rdk","trial_index":76,"plugin_version":"2.0.0","time_elapsed":818390},{"rt":3755,"stimulus":"\n        <div class=\"response-container\">\n          <div class=\"response-instruction\">\n            <p>rotate the bar by using the left and right arrow keys.</p>\n            <p>when you are determined, press the Enter key.</p>\n          </div>\n          <div class=\"response-circle\">\n            <div class=\"response-fixation\"></div>\n            <div id=\"bar\" class=\"rotating-bar\"></div>\n          </div>\n        </div>\n      ","response":"Enter","trial_type":"html-keyboard-response","trial_index":77,"plugin_version":"2.1.0","time_elapsed":822147,"random_initial_angle":236,"response_angle_css":465,"response_angle_rdk":345,"angular_error_target":3,"angular_error_distractor":98,"target_direction":342,"target_group":"white","reward_points":9},{"rt":null,"stimulus":"\n          <p style=\"color: #00FF00;\">Your reward: 9 points</p>\n        ","response":null,"trial_type":"html-keyboard-response","trial_index":78,"plugin_version":"2.1.0","time_elapsed":824149},{"rt":null,"stimulus":"<div class=\"fixation\" style=\"font-size: 60px;\">+</div>","response":null,"trial_type":"html-keyboard-response","trial_index":79,"plugin_version":"2.1.0","time_elapsed":825150},{"phase":"learning-awareness","target_group":"white","condition_label":"W_H_vs_B_L_rep6","target_direction":352,"distractor_direction":245,"session_rotation":319,"rt":-1,"response":"","correct":false,"choices":"ALL_KEYS","correct_choice":["a"],"trial_duration":2000,"flip_timestamps":[],"response_ends_trial":false,"number_of_apertures":200,"number_of_dots":[1,1,1,1,1,1,1,1,1,1,1,1,1,1,1,1,1,1,1,1,1,1,1,1,1,1,1,1,1,1,1,1,1,1,1,1,1,1,1,1,1,1,1,1,1,1,1,1,1,1,1,1,1,1,1,1,1,1,1,1,1,1,1,1,1,1,1,1,1,1,1,1,1,1,1,1,1,1,1,1,1,1,1,1,1,1,1,1,1,1,1,1,1,1,1,1,1,1,1,1,1,1,1,1,1,1,1,1,1,1,1,1,1,1,1,1,1,1,1,1,1,1,1,1,1,1,1,1,1,1,1,1,1,1,1,1,1,1,1,1,1,1,1,1,1,1,1,1,1,1,1,1,1,1,1,1,1,1,1,1,1,1,1,1,1,1,1,1,1,1,1,1,1,1,1,1,1,1,1,1,1,1,1,1,1,1,1,1,1,1,1,1,1,1,1,1,1,1,1,1],"number_of_sets":1,"coherent_direction":[352,245,352,245,352,352,352,245,352,245,352,245,245,245,245,245,245,245,352,352,352,352,245,352,245,352,352,245,352,352,245,245,245,245,352,245,352,245,245,245,352,245,245,352,352,245,245,352,245,245,245,352,352,245,352,352,352,352,245,245,352,352,245,245,245,245,352,352,245,245,245,352,352,352,352,352,352,352,352,352,352,352,352,245,352,352,245,352,352,245,352,245,245,245,352,352,245,245,245,245,352,352,245,352,352,245,245,245,245,245,245,245,352,352,352,245,245,245,245,245,245,352,352,245,352,352,352,245,245,352,245,245,352,245,352,245,352,352,352,352,352,245,245,352,352,245,245,352,245,352,245,245,245,352,245,352,352,245,245,352,245,245,245,352,245,245,245,352,245,352,352,352,352,245,245,245,352,352,352,245,352,352,352,352,245,245,352,245,352,245,352,245,352,245,245,352,245,352,352,352],"coherence":1,"opposite_coherence":0,"dot_radius":2,"dot_side_length":1,"dot_life":-1,"move_distance":1,"aperture_width":300,"aperture_height":300,"dot_color":["white","black","white","black","white","white","white","black","white","black","white","black","black","black","black","black","black","black","white","white","white","white","black","white","black","white","white","black","white","white","black","black","black","black","white","black","white","black","black","black","white","black","black","white","white","black","black","white","black","black","black","white","white","black","white","white","white","white","black","black","white","white","black","black","black","black","white","white","black","black","black","white","white","white","white","white","white","white","white","white","white","white","white","black","white","white","black","white","white","black","white","black","black","black","white","white","black","black","black","black","white","white","black","white","white","black","black","black","black","black","black","black","white","white","white","black","black","black","black","black","black","white","white","black","white","white","white","black","black","white","black","black","white","black","white","black","white","white","white","white","white","black","black","white","white","black","black","white","black","white","black","black","black","white","black","white","white","black","black","white","black","black","black","white","black","black","black","white","black","white","white","white","white","black","black","black","white","white","white","black","white","white","white","white","black","black","white","black","white","black","white","black","white","black","black","white","black","white","white","white"],"dot_shape":"circle","background_color":"#AAA","RDK_type":3,"aperture_type":2,"reinsert_type":2,"frame_rate":16.716666666666665,"frame_rate_array":[7,14,16,17,18,16,16,17,17,17,17,17,17,17,17,17,17,17,17,17,18,15,17,17,17,17,17,16,17,17,18,16,16,17,17,17,17,17,17,17,17,17,17,17,17,19,17,14,17,15,18,16,17,17,17,17,17,17,16,17,17,16,18,17,17,16,17,16,17,18,16,16,17,16,16,18,16,17,17,17,17,17,17,17,17,17,17,16,18,16,17,17,17,17,17,16,17,17,17,17,17,17,17,17,17,17,17,17,16,19,15,16,17,16,16,17,17,16,17,17],"number_of_frames":120,"aperture_center_x":800.5,"aperture_center_y":450,"fixation_cross":true,"fixation_cross_width":15,"fixation_cross_height":15,"fixation_cross_color":"#111","fixation_cross_thickness":1,"border":true,"border_thickness":2,"border_color":"transparent","canvas_width":1601,"canvas_height":900,"trial_type":"rdk","trial_index":80,"plugin_version":"2.0.0","time_elapsed":827154},{"rt":3192,"stimulus":"\n        <div class=\"response-container\">\n          <div class=\"response-instruction\">\n            <p>rotate the bar by using the left and right arrow keys.</p>\n            <p>when you are determined, press the Enter key.</p>\n          </div>\n          <div class=\"response-circle\">\n            <div class=\"response-fixation\"></div>\n            <div id=\"bar\" class=\"rotating-bar\"></div>\n          </div>\n        </div>\n      ","response":"Enter","trial_type":"html-keyboard-response","trial_index":81,"plugin_version":"2.1.0","time_elapsed":830348,"random_initial_angle":288,"response_angle_css":461,"response_angle_rdk":349,"angular_error_target":-3,"angular_error_distractor":104,"target_direction":352,"target_group":"white","reward_points":9},{"rt":null,"stimulus":"\n          <p style=\"color: #00FF00;\">Your reward: 9 points</p>\n        ","response":null,"trial_type":"html-keyboard-response","trial_index":82,"plugin_version":"2.1.0","time_elapsed":832350},{"rt":null,"stimulus":"<div class=\"fixation\" style=\"font-size: 60px;\">+</div>","response":null,"trial_type":"html-keyboard-response","trial_index":83,"plugin_version":"2.1.0","time_elapsed":833352},{"phase":"learning-awareness","target_group":"white","condition_label":"W_H_vs_B_L_rep21","target_direction":345,"distractor_direction":229,"session_rotation":319,"rt":1680,"response":"ArrowRight","correct":false,"choices":"ALL_KEYS","correct_choice":["a"],"trial_duration":2000,"flip_timestamps":[],"response_ends_trial":false,"number_of_apertures":200,"number_of_dots":[1,1,1,1,1,1,1,1,1,1,1,1,1,1,1,1,1,1,1,1,1,1,1,1,1,1,1,1,1,1,1,1,1,1,1,1,1,1,1,1,1,1,1,1,1,1,1,1,1,1,1,1,1,1,1,1,1,1,1,1,1,1,1,1,1,1,1,1,1,1,1,1,1,1,1,1,1,1,1,1,1,1,1,1,1,1,1,1,1,1,1,1,1,1,1,1,1,1,1,1,1,1,1,1,1,1,1,1,1,1,1,1,1,1,1,1,1,1,1,1,1,1,1,1,1,1,1,1,1,1,1,1,1,1,1,1,1,1,1,1,1,1,1,1,1,1,1,1,1,1,1,1,1,1,1,1,1,1,1,1,1,1,1,1,1,1,1,1,1,1,1,1,1,1,1,1,1,1,1,1,1,1,1,1,1,1,1,1,1,1,1,1,1,1,1,1,1,1,1,1],"number_of_sets":1,"coherent_direction":[229,345,229,229,345,229,345,345,229,229,229,345,345,345,229,345,345,229,229,345,229,345,229,229,345,345,345,345,345,345,345,229,345,229,345,345,229,229,345,345,345,229,345,345,229,229,345,345,345,345,345,229,229,229,229,345,345,229,345,345,229,345,229,345,345,229,345,345,229,229,229,229,229,345,229,229,229,229,229,229,229,345,345,229,345,345,229,345,229,229,345,229,345,345,345,229,229,345,229,345,345,229,229,345,345,345,345,345,229,229,345,345,229,345,345,229,229,345,345,229,345,345,229,229,229,345,229,345,345,345,229,229,345,345,345,229,229,345,229,229,345,345,345,345,229,345,229,229,345,229,229,229,229,345,345,345,229,345,345,345,229,345,229,229,229,345,345,345,229,345,345,229,229,345,345,345,345,229,229,229,229,229,229,229,229,229,229,345,229,345,345,229,229,229,229,229,229,345,229,229],"coherence":1,"opposite_coherence":0,"dot_radius":2,"dot_side_length":1,"dot_life":-1,"move_distance":1,"aperture_width":300,"aperture_height":300,"dot_color":["black","white","black","black","white","black","white","white","black","black","black","white","white","white","black","white","white","black","black","white","black","white","black","black","white","white","white","white","white","white","white","black","white","black","white","white","black","black","white","white","white","black","white","white","black","black","white","white","white","white","white","black","black","black","black","white","white","black","white","white","black","white","black","white","white","black","white","white","black","black","black","black","black","white","black","black","black","black","black","black","black","white","white","black","white","white","black","white","black","black","white","black","white","white","white","black","black","white","black","white","white","black","black","white","white","white","white","white","black","black","white","white","black","white","white","black","black","white","white","black","white","white","black","black","black","white","black","white","white","white","black","black","white","white","white","black","black","white","black","black","white","white","white","white","black","white","black","black","white","black","black","black","black","white","white","white","black","white","white","white","black","white","black","black","black","white","white","white","black","white","white","black","black","white","white","white","white","black","black","black","black","black","black","black","black","black","black","white","black","white","white","black","black","black","black","black","black","white","black","black"],"dot_shape":"circle","background_color":"#AAA","RDK_type":3,"aperture_type":2,"reinsert_type":2,"frame_rate":16.791666666666668,"frame_rate_array":[14,12,17,17,17,17,17,17,17,17,17,17,17,17,17,16,17,17,17,17,17,17,17,17,17,17,17,17,16,17,17,17,17,17,17,17,17,17,17,17,18,15,17,17,17,17,17,17,18,15,18,17,15,17,17,18,16,17,17,17,17,17,19,15,16,18,16,17,18,15,17,17,17,17,17,17,17,17,16,17,17,17,17,16,17,17,17,17,17,17,16,16,16,17,17,18,16,17,17,17,18,15,17,18,16,16,17,16,17,18,16,17,17,17,17,17,17,17,18,14],"number_of_frames":120,"aperture_center_x":800.5,"aperture_center_y":450,"fixation_cross":true,"fixation_cross_width":15,"fixation_cross_height":15,"fixation_cross_color":"#111","fixation_cross_thickness":1,"border":true,"border_thickness":2,"border_color":"transparent","canvas_width":1601,"canvas_height":900,"trial_type":"rdk","trial_index":84,"plugin_version":"2.0.0","time_elapsed":835357},{"rt":2874,"stimulus":"\n        <div class=\"response-container\">\n          <div class=\"response-instruction\">\n            <p>rotate the bar by using the left and right arrow keys.</p>\n            <p>when you are determined, press the Enter key.</p>\n          </div>\n          <div class=\"response-circle\">\n            <div class=\"response-fixation\"></div>\n            <div id=\"bar\" class=\"rotating-bar\"></div>\n          </div>\n        </div>\n      ","response":"Enter","trial_type":"html-keyboard-response","trial_index":85,"plugin_version":"2.1.0","time_elapsed":838232,"random_initial_angle":293,"response_angle_css":469,"response_angle_rdk":341,"angular_error_target":-4,"angular_error_distractor":112,"target_direction":345,"target_group":"white","reward_points":9},{"rt":null,"stimulus":"\n          <p style=\"color: #00FF00;\">Your reward: 9 points</p>\n        ","response":null,"trial_type":"html-keyboard-response","trial_index":86,"plugin_version":"2.1.0","time_elapsed":840234},{"rt":null,"stimulus":"<div class=\"fixation\" style=\"font-size: 60px;\">+</div>","response":null,"trial_type":"html-keyboard-response","trial_index":87,"plugin_version":"2.1.0","time_elapsed":841236},{"phase":"learning-awareness","target_group":"black","condition_label":"B_H_vs_W_L_rep13","target_direction":58,"distractor_direction":174,"session_rotation":319,"rt":-1,"response":"","correct":false,"choices":"ALL_KEYS","correct_choice":["a"],"trial_duration":2000,"flip_timestamps":[],"response_ends_trial":false,"number_of_apertures":200,"number_of_dots":[1,1,1,1,1,1,1,1,1,1,1,1,1,1,1,1,1,1,1,1,1,1,1,1,1,1,1,1,1,1,1,1,1,1,1,1,1,1,1,1,1,1,1,1,1,1,1,1,1,1,1,1,1,1,1,1,1,1,1,1,1,1,1,1,1,1,1,1,1,1,1,1,1,1,1,1,1,1,1,1,1,1,1,1,1,1,1,1,1,1,1,1,1,1,1,1,1,1,1,1,1,1,1,1,1,1,1,1,1,1,1,1,1,1,1,1,1,1,1,1,1,1,1,1,1,1,1,1,1,1,1,1,1,1,1,1,1,1,1,1,1,1,1,1,1,1,1,1,1,1,1,1,1,1,1,1,1,1,1,1,1,1,1,1,1,1,1,1,1,1,1,1,1,1,1,1,1,1,1,1,1,1,1,1,1,1,1,1,1,1,1,1,1,1,1,1,1,1,1,1],"number_of_sets":1,"coherent_direction":[58,174,174,174,58,58,174,58,58,58,58,58,58,174,174,174,58,174,58,174,58,58,58,174,58,58,58,58,58,174,58,174,174,174,174,58,58,174,174,174,174,58,174,174,174,58,58,174,58,174,174,174,58,58,58,174,174,58,58,58,58,174,58,174,174,58,174,174,58,174,174,58,174,174,174,174,58,174,58,58,174,58,58,58,58,174,174,58,58,58,58,174,174,58,58,58,174,58,174,174,58,174,174,174,58,58,174,174,58,58,174,58,58,174,174,58,58,58,174,174,174,58,58,174,174,58,174,174,174,174,174,174,174,174,174,58,174,58,58,58,58,174,58,58,174,58,58,58,58,58,174,58,58,174,174,174,174,174,58,58,174,174,174,58,174,58,58,58,58,58,174,174,174,174,58,58,58,174,174,174,58,58,174,58,174,58,174,174,174,58,174,58,174,58,174,174,58,58,58,174],"coherence":1,"opposite_coherence":0,"dot_radius":2,"dot_side_length":1,"dot_life":-1,"move_distance":1,"aperture_width":300,"aperture_height":300,"dot_color":["black","white","white","white","black","black","white","black","black","black","black","black","black","white","white","white","black","white","black","white","black","black","black","white","black","black","black","black","black","white","black","white","white","white","white","black","black","white","white","white","white","black","white","white","white","black","black","white","black","white","white","white","black","black","black","white","white","black","black","black","black","white","black","white","white","black","white","white","black","white","white","black","white","white","white","white","black","white","black","black","white","black","black","black","black","white","white","black","black","black","black","white","white","black","black","black","white","black","white","white","black","white","white","white","black","black","white","white","black","black","white","black","black","white","white","black","black","black","white","white","white","black","black","white","white","black","white","white","white","white","white","white","white","white","white","black","white","black","black","black","black","white","black","black","white","black","black","black","black","black","white","black","black","white","white","white","white","white","black","black","white","white","white","black","white","black","black","black","black","black","white","white","white","white","black","black","black","white","white","white","black","black","white","black","white","black","white","white","white","black","white","black","white","black","white","white","black","black","black","white"],"dot_shape":"circle","background_color":"#AAA","RDK_type":3,"aperture_type":2,"reinsert_type":2,"frame_rate":16.758333333333333,"frame_rate_array":[14,16,17,17,18,17,16,18,16,16,17,17,17,16,17,16,17,16,17,16,18,16,17,17,17,16,16,17,17,17,17,16,17,18,16,17,17,17,18,16,17,18,16,16,17,17,17,17,17,17,17,17,16,17,17,17,18,16,17,17,16,18,16,18,16,17,17,17,17,17,17,16,16,16,18,17,16,17,16,17,17,16,16,16,18,17,17,17,17,17,16,17,17,17,17,17,16,17,17,17,16,17,17,17,16,17,17,16,17,17,17,17,16,17,16,17,17,17,17,16],"number_of_frames":120,"aperture_center_x":800.5,"aperture_center_y":450,"fixation_cross":true,"fixation_cross_width":15,"fixation_cross_height":15,"fixation_cross_color":"#111","fixation_cross_thickness":1,"border":true,"border_thickness":2,"border_color":"transparent","canvas_width":1601,"canvas_height":900,"trial_type":"rdk","trial_index":88,"plugin_version":"2.0.0","time_elapsed":843239},{"rt":3245,"stimulus":"\n        <div class=\"response-container\">\n          <div class=\"response-instruction\">\n            <p>rotate the bar by using the left and right arrow keys.</p>\n            <p>when you are determined, press the Enter key.</p>\n          </div>\n          <div class=\"response-circle\">\n            <div class=\"response-fixation\"></div>\n            <div id=\"bar\" class=\"rotating-bar\"></div>\n          </div>\n        </div>\n      ","response":"Enter","trial_type":"html-keyboard-response","trial_index":89,"plugin_version":"2.1.0","time_elapsed":846486,"random_initial_angle":139,"response_angle_css":252,"response_angle_rdk":198,"angular_error_target":140,"angular_error_distractor":24,"target_direction":58,"target_group":"black","reward_points":0},{"rt":null,"stimulus":"\n          <p style=\"color: #FF3333;\">Your reward: 0 points</p>\n        ","response":null,"trial_type":"html-keyboard-response","trial_index":90,"plugin_version":"2.1.0","time_elapsed":848488},{"rt":null,"stimulus":"<div class=\"fixation\" style=\"font-size: 60px;\">+</div>","response":null,"trial_type":"html-keyboard-response","trial_index":91,"plugin_version":"2.1.0","time_elapsed":849491},{"phase":"learning-awareness","target_group":"black","condition_label":"B_H_vs_W_L_rep17","target_direction":83,"distractor_direction":176,"session_rotation":319,"rt":-1,"response":"","correct":false,"choices":"ALL_KEYS","correct_choice":["a"],"trial_duration":2000,"flip_timestamps":[],"response_ends_trial":false,"number_of_apertures":200,"number_of_dots":[1,1,1,1,1,1,1,1,1,1,1,1,1,1,1,1,1,1,1,1,1,1,1,1,1,1,1,1,1,1,1,1,1,1,1,1,1,1,1,1,1,1,1,1,1,1,1,1,1,1,1,1,1,1,1,1,1,1,1,1,1,1,1,1,1,1,1,1,1,1,1,1,1,1,1,1,1,1,1,1,1,1,1,1,1,1,1,1,1,1,1,1,1,1,1,1,1,1,1,1,1,1,1,1,1,1,1,1,1,1,1,1,1,1,1,1,1,1,1,1,1,1,1,1,1,1,1,1,1,1,1,1,1,1,1,1,1,1,1,1,1,1,1,1,1,1,1,1,1,1,1,1,1,1,1,1,1,1,1,1,1,1,1,1,1,1,1,1,1,1,1,1,1,1,1,1,1,1,1,1,1,1,1,1,1,1,1,1,1,1,1,1,1,1,1,1,1,1,1,1],"number_of_sets":1,"coherent_direction":[176,83,83,176,83,176,83,83,83,176,83,176,176,176,176,83,83,176,83,83,83,176,83,176,176,176,176,176,83,176,176,176,176,83,176,176,83,83,83,83,83,83,83,176,176,176,176,83,83,83,83,176,176,83,176,176,176,176,176,176,83,83,176,83,83,176,83,83,176,83,176,176,176,176,176,83,176,176,176,83,83,83,176,176,176,176,176,83,176,83,83,83,176,176,83,176,83,176,83,83,176,83,83,83,83,176,83,83,83,176,176,176,83,176,83,176,176,176,83,83,176,83,176,176,83,83,83,176,176,176,83,83,176,83,176,176,83,83,83,83,176,176,83,83,83,83,83,176,83,83,83,176,176,176,83,83,176,83,83,176,83,176,176,83,83,83,83,83,176,176,83,83,83,176,83,176,83,83,176,176,83,83,83,176,176,83,176,176,83,176,83,176,176,176,83,176,176,176,176,83],"coherence":1,"opposite_coherence":0,"dot_radius":2,"dot_side_length":1,"dot_life":-1,"move_distance":1,"aperture_width":300,"aperture_height":300,"dot_color":["white","black","black","white","black","white","black","black","black","white","black","white","white","white","white","black","black","white","black","black","black","white","black","white","white","white","white","white","black","white","white","white","white","black","white","white","black","black","black","black","black","black","black","white","white","white","white","black","black","black","black","white","white","black","white","white","white","white","white","white","black","black","white","black","black","white","black","black","white","black","white","white","white","white","white","black","white","white","white","black","black","black","white","white","white","white","white","black","white","black","black","black","white","white","black","white","black","white","black","black","white","black","black","black","black","white","black","black","black","white","white","white","black","white","black","white","white","white","black","black","white","black","white","white","black","black","black","white","white","white","black","black","white","black","white","white","black","black","black","black","white","white","black","black","black","black","black","white","black","black","black","white","white","white","black","black","white","black","black","white","black","white","white","black","black","black","black","black","white","white","black","black","black","white","black","white","black","black","white","white","black","black","black","white","white","black","white","white","black","white","black","white","white","white","black","white","white","white","white","black"],"dot_shape":"circle","background_color":"#AAA","RDK_type":3,"aperture_type":2,"reinsert_type":2,"frame_rate":16.658333333333335,"frame_rate_array":[5,14,16,17,17,16,19,16,17,17,17,18,17,17,15,18,15,16,17,18,15,17,17,19,15,18,16,17,16,16,17,17,17,17,17,16,17,17,17,17,17,16,18,15,17,19,16,15,17,17,16,17,17,17,17,17,17,17,17,17,18,16,18,15,17,17,19,15,16,17,17,16,17,16,17,17,17,17,16,19,14,19,15,17,17,17,17,17,17,17,17,18,15,17,19,14,16,18,18,16,15,17,18,16,16,18,17,16,16,17,17,18,15,17,17,17,17,17,17,16],"number_of_frames":120,"aperture_center_x":800.5,"aperture_center_y":450,"fixation_cross":true,"fixation_cross_width":15,"fixation_cross_height":15,"fixation_cross_color":"#111","fixation_cross_thickness":1,"border":true,"border_thickness":2,"border_color":"transparent","canvas_width":1601,"canvas_height":900,"trial_type":"rdk","trial_index":92,"plugin_version":"2.0.0","time_elapsed":851494},{"rt":2245,"stimulus":"\n        <div class=\"response-container\">\n          <div class=\"response-instruction\">\n            <p>rotate the bar by using the left and right arrow keys.</p>\n            <p>when you are determined, press the Enter key.</p>\n          </div>\n          <div class=\"response-circle\">\n            <div class=\"response-fixation\"></div>\n            <div id=\"bar\" class=\"rotating-bar\"></div>\n          </div>\n        </div>\n      ","response":"Enter","trial_type":"html-keyboard-response","trial_index":93,"plugin_version":"2.1.0","time_elapsed":853741,"random_initial_angle":351,"response_angle_css":248,"response_angle_rdk":202,"angular_error_target":119,"angular_error_distractor":26,"target_direction":83,"target_group":"black","reward_points":0},{"rt":null,"stimulus":"\n          <p style=\"color: #FF3333;\">Your reward: 0 points</p>\n        ","response":null,"trial_type":"html-keyboard-response","trial_index":94,"plugin_version":"2.1.0","time_elapsed":855743},{"rt":null,"stimulus":"<div class=\"fixation\" style=\"font-size: 60px;\">+</div>","response":null,"trial_type":"html-keyboard-response","trial_index":95,"plugin_version":"2.1.0","time_elapsed":856746},{"phase":"learning-awareness","target_group":"white","condition_label":"W_H_vs_B_L_rep5","target_direction":329,"distractor_direction":235,"session_rotation":319,"rt":1842,"response":"ArrowRight","correct":false,"choices":"ALL_KEYS","correct_choice":["a"],"trial_duration":2000,"flip_timestamps":[],"response_ends_trial":false,"number_of_apertures":200,"number_of_dots":[1,1,1,1,1,1,1,1,1,1,1,1,1,1,1,1,1,1,1,1,1,1,1,1,1,1,1,1,1,1,1,1,1,1,1,1,1,1,1,1,1,1,1,1,1,1,1,1,1,1,1,1,1,1,1,1,1,1,1,1,1,1,1,1,1,1,1,1,1,1,1,1,1,1,1,1,1,1,1,1,1,1,1,1,1,1,1,1,1,1,1,1,1,1,1,1,1,1,1,1,1,1,1,1,1,1,1,1,1,1,1,1,1,1,1,1,1,1,1,1,1,1,1,1,1,1,1,1,1,1,1,1,1,1,1,1,1,1,1,1,1,1,1,1,1,1,1,1,1,1,1,1,1,1,1,1,1,1,1,1,1,1,1,1,1,1,1,1,1,1,1,1,1,1,1,1,1,1,1,1,1,1,1,1,1,1,1,1,1,1,1,1,1,1,1,1,1,1,1,1],"number_of_sets":1,"coherent_direction":[329,329,329,235,235,235,329,329,235,235,235,329,235,235,235,235,235,235,235,235,329,329,329,235,235,329,329,329,235,235,329,329,235,235,235,235,235,329,329,235,329,329,235,329,329,235,329,329,329,235,329,329,329,235,329,235,329,235,235,235,235,329,329,235,329,235,235,329,235,235,235,329,235,329,235,329,235,235,329,329,235,329,329,329,235,329,235,235,329,329,235,329,329,235,329,235,329,235,329,329,329,329,235,329,329,235,235,329,329,235,235,235,329,235,235,235,329,235,235,329,329,329,235,329,235,329,235,235,235,329,329,329,329,329,235,329,329,329,329,329,329,235,329,329,329,235,329,329,329,235,235,235,329,235,329,235,235,329,235,329,329,329,235,235,329,235,235,329,235,329,235,329,329,235,235,235,235,235,235,235,235,235,235,329,329,235,329,329,235,329,329,235,235,235,329,329,329,235,235,329],"coherence":1,"opposite_coherence":0,"dot_radius":2,"dot_side_length":1,"dot_life":-1,"move_distance":1,"aperture_width":300,"aperture_height":300,"dot_color":["white","white","white","black","black","black","white","white","black","black","black","white","black","black","black","black","black","black","black","black","white","white","white","black","black","white","white","white","black","black","white","white","black","black","black","black","black","white","white","black","white","white","black","white","white","black","white","white","white","black","white","white","white","black","white","black","white","black","black","black","black","white","white","black","white","black","black","white","black","black","black","white","black","white","black","white","black","black","white","white","black","white","white","white","black","white","black","black","white","white","black","white","white","black","white","black","white","black","white","white","white","white","black","white","white","black","black","white","white","black","black","black","white","black","black","black","white","black","black","white","white","white","black","white","black","white","black","black","black","white","white","white","white","white","black","white","white","white","white","white","white","black","white","white","white","black","white","white","white","black","black","black","white","black","white","black","black","white","black","white","white","white","black","black","white","black","black","white","black","white","black","white","white","black","black","black","black","black","black","black","black","black","black","white","white","black","white","white","black","white","white","black","black","black","white","white","white","black","black","white"],"dot_shape":"circle","background_color":"#AAA","RDK_type":3,"aperture_type":2,"reinsert_type":2,"frame_rate":16.616666666666667,"frame_rate_array":[1,19,15,17,17,17,18,16,17,17,17,17,17,18,15,17,17,17,19,13,17,18,17,18,16,18,15,17,19,15,17,17,16,17,17,17,17,17,18,17,15,17,16,17,17,17,18,15,17,17,17,16,18,15,17,16,17,16,18,15,17,17,18,16,18,17,15,17,18,15,18,16,16,17,18,17,15,18,15,18,15,17,18,16,17,18,16,17,15,17,17,17,16,17,17,17,18,15,17,18,15,18,15,18,15,17,18,15,17,19,15,16,18,15,17,17,18,15,17,16],"number_of_frames":120,"aperture_center_x":800.5,"aperture_center_y":450,"fixation_cross":true,"fixation_cross_width":15,"fixation_cross_height":15,"fixation_cross_color":"#111","fixation_cross_thickness":1,"border":true,"border_thickness":2,"border_color":"transparent","canvas_width":1601,"canvas_height":900,"trial_type":"rdk","trial_index":96,"plugin_version":"2.0.0","time_elapsed":858752},{"rt":1679,"stimulus":"\n        <div class=\"response-container\">\n          <div class=\"response-instruction\">\n            <p>rotate the bar by using the left and right arrow keys.</p>\n            <p>when you are determined, press the Enter key.</p>\n          </div>\n          <div class=\"response-circle\">\n            <div class=\"response-fixation\"></div>\n            <div id=\"bar\" class=\"rotating-bar\"></div>\n          </div>\n        </div>\n      ","response":"Enter","trial_type":"html-keyboard-response","trial_index":97,"plugin_version":"2.1.0","time_elapsed":860433,"random_initial_angle":108,"response_angle_css":107,"response_angle_rdk":343,"angular_error_target":14,"angular_error_distractor":108,"target_direction":329,"target_group":"white","reward_points":7},{"rt":null,"stimulus":"\n          <p style=\"color: #00FF00;\">Your reward: 7 points</p>\n        ","response":null,"trial_type":"html-keyboard-response","trial_index":98,"plugin_version":"2.1.0","time_elapsed":862435},{"rt":null,"stimulus":"<div class=\"fixation\" style=\"font-size: 60px;\">+</div>","response":null,"trial_type":"html-keyboard-response","trial_index":99,"plugin_version":"2.1.0","time_elapsed":863437},{"phase":"learning-awareness","target_group":"black","condition_label":"B_H_vs_W_L_rep4","target_direction":49,"distractor_direction":150,"session_rotation":319,"rt":-1,"response":"","correct":false,"choices":"ALL_KEYS","correct_choice":["a"],"trial_duration":2000,"flip_timestamps":[],"response_ends_trial":false,"number_of_apertures":200,"number_of_dots":[1,1,1,1,1,1,1,1,1,1,1,1,1,1,1,1,1,1,1,1,1,1,1,1,1,1,1,1,1,1,1,1,1,1,1,1,1,1,1,1,1,1,1,1,1,1,1,1,1,1,1,1,1,1,1,1,1,1,1,1,1,1,1,1,1,1,1,1,1,1,1,1,1,1,1,1,1,1,1,1,1,1,1,1,1,1,1,1,1,1,1,1,1,1,1,1,1,1,1,1,1,1,1,1,1,1,1,1,1,1,1,1,1,1,1,1,1,1,1,1,1,1,1,1,1,1,1,1,1,1,1,1,1,1,1,1,1,1,1,1,1,1,1,1,1,1,1,1,1,1,1,1,1,1,1,1,1,1,1,1,1,1,1,1,1,1,1,1,1,1,1,1,1,1,1,1,1,1,1,1,1,1,1,1,1,1,1,1,1,1,1,1,1,1,1,1,1,1,1,1],"number_of_sets":1,"coherent_direction":[150,49,49,49,49,49,49,150,150,49,49,49,150,49,150,49,150,150,49,49,49,49,150,49,150,150,150,49,150,150,150,150,150,150,49,49,150,150,150,150,49,150,49,150,150,150,49,150,49,150,49,49,49,150,49,49,49,49,150,49,150,49,150,150,49,49,150,49,150,49,49,150,150,49,150,49,49,150,49,49,49,49,49,49,150,150,150,150,150,49,150,150,150,49,150,49,49,49,49,49,49,150,49,49,150,150,150,49,150,49,49,150,150,150,150,49,49,49,150,150,150,49,49,49,49,150,150,150,150,49,150,49,150,150,150,150,150,49,150,49,49,150,49,150,49,49,150,150,150,49,49,49,49,49,49,150,49,49,49,150,150,49,150,49,49,150,49,49,150,150,49,49,150,150,150,150,150,49,49,150,49,150,150,150,49,150,49,49,49,150,150,150,49,49,150,150,150,150,49,150],"coherence":1,"opposite_coherence":0,"dot_radius":2,"dot_side_length":1,"dot_life":-1,"move_distance":1,"aperture_width":300,"aperture_height":300,"dot_color":["white","black","black","black","black","black","black","white","white","black","black","black","white","black","white","black","white","white","black","black","black","black","white","black","white","white","white","black","white","white","white","white","white","white","black","black","white","white","white","white","black","white","black","white","white","white","black","white","black","white","black","black","black","white","black","black","black","black","white","black","white","black","white","white","black","black","white","black","white","black","black","white","white","black","white","black","black","white","black","black","black","black","black","black","white","white","white","white","white","black","white","white","white","black","white","black","black","black","black","black","black","white","black","black","white","white","white","black","white","black","black","white","white","white","white","black","black","black","white","white","white","black","black","black","black","white","white","white","white","black","white","black","white","white","white","white","white","black","white","black","black","white","black","white","black","black","white","white","white","black","black","black","black","black","black","white","black","black","black","white","white","black","white","black","black","white","black","black","white","white","black","black","white","white","white","white","white","black","black","white","black","white","white","white","black","white","black","black","black","white","white","white","black","black","white","white","white","white","black","white"],"dot_shape":"circle","background_color":"#AAA","RDK_type":3,"aperture_type":2,"reinsert_type":2,"frame_rate":16.683333333333334,"frame_rate_array":[8,17,17,17,17,16,17,16,18,16,16,17,16,17,17,18,16,17,17,16,17,17,16,17,16,17,16,17,16,17,17,16,17,17,17,17,16,17,17,16,17,16,17,17,16,17,17,16,17,16,18,15,18,16,17,17,17,17,17,16,17,17,17,17,17,16,17,18,16,18,16,17,16,16,17,17,17,18,17,17,17,16,17,17,16,17,15,18,18,17,16,16,17,17,17,16,17,16,17,17,16,18,17,16,17,17,17,16,18,16,16,17,18,17,16,17,16,18,17,17],"number_of_frames":120,"aperture_center_x":800.5,"aperture_center_y":450,"fixation_cross":true,"fixation_cross_width":15,"fixation_cross_height":15,"fixation_cross_color":"#111","fixation_cross_thickness":1,"border":true,"border_thickness":2,"border_color":"transparent","canvas_width":1601,"canvas_height":900,"trial_type":"rdk","trial_index":100,"plugin_version":"2.0.0","time_elapsed":865441},{"rt":3414,"stimulus":"\n        <div class=\"response-container\">\n          <div class=\"response-instruction\">\n            <p>rotate the bar by using the left and right arrow keys.</p>\n            <p>when you are determined, press the Enter key.</p>\n          </div>\n          <div class=\"response-circle\">\n            <div class=\"response-fixation\"></div>\n            <div id=\"bar\" class=\"rotating-bar\"></div>\n          </div>\n        </div>\n      ","response":"Enter","trial_type":"html-keyboard-response","trial_index":101,"plugin_version":"2.1.0","time_elapsed":868857,"random_initial_angle":124,"response_angle_css":-59,"response_angle_rdk":149,"angular_error_target":100,"angular_error_distractor":-1,"target_direction":49,"target_group":"black","reward_points":0},{"rt":null,"stimulus":"\n          <p style=\"color: #FF3333;\">Your reward: 0 points</p>\n        ","response":null,"trial_type":"html-keyboard-response","trial_index":102,"plugin_version":"2.1.0","time_elapsed":870859},{"rt":null,"stimulus":"<div class=\"fixation\" style=\"font-size: 60px;\">+</div>","response":null,"trial_type":"html-keyboard-response","trial_index":103,"plugin_version":"2.1.0","time_elapsed":871861},{"phase":"learning-awareness","target_group":"black","condition_label":"B_H_vs_W_L_rep21","target_direction":61,"distractor_direction":168,"session_rotation":319,"rt":-1,"response":"","correct":false,"choices":"ALL_KEYS","correct_choice":["a"],"trial_duration":2000,"flip_timestamps":[],"response_ends_trial":false,"number_of_apertures":200,"number_of_dots":[1,1,1,1,1,1,1,1,1,1,1,1,1,1,1,1,1,1,1,1,1,1,1,1,1,1,1,1,1,1,1,1,1,1,1,1,1,1,1,1,1,1,1,1,1,1,1,1,1,1,1,1,1,1,1,1,1,1,1,1,1,1,1,1,1,1,1,1,1,1,1,1,1,1,1,1,1,1,1,1,1,1,1,1,1,1,1,1,1,1,1,1,1,1,1,1,1,1,1,1,1,1,1,1,1,1,1,1,1,1,1,1,1,1,1,1,1,1,1,1,1,1,1,1,1,1,1,1,1,1,1,1,1,1,1,1,1,1,1,1,1,1,1,1,1,1,1,1,1,1,1,1,1,1,1,1,1,1,1,1,1,1,1,1,1,1,1,1,1,1,1,1,1,1,1,1,1,1,1,1,1,1,1,1,1,1,1,1,1,1,1,1,1,1,1,1,1,1,1,1],"number_of_sets":1,"coherent_direction":[61,168,61,61,61,61,61,61,61,61,168,61,61,168,61,61,61,168,61,61,168,61,168,61,61,168,61,168,168,61,168,61,61,61,168,168,168,168,168,168,168,168,61,168,61,168,168,61,61,168,168,168,168,168,168,61,61,61,168,61,168,61,168,61,61,61,61,61,61,61,168,168,168,168,168,168,168,168,168,168,61,61,168,61,168,168,61,168,168,168,61,168,61,61,61,168,61,168,168,168,168,61,61,61,168,168,61,61,61,61,168,168,61,61,61,61,168,168,168,61,168,168,168,168,61,168,168,168,168,168,61,168,168,61,61,61,61,61,168,61,168,61,61,168,61,168,168,168,61,168,168,61,61,168,61,61,168,168,61,168,168,168,61,168,168,61,168,61,61,61,168,168,61,61,61,168,61,61,61,168,61,61,61,61,61,168,61,168,61,61,168,61,168,168,168,61,168,168,168,61],"coherence":1,"opposite_coherence":0,"dot_radius":2,"dot_side_length":1,"dot_life":-1,"move_distance":1,"aperture_width":300,"aperture_height":300,"dot_color":["black","white","black","black","black","black","black","black","black","black","white","black","black","white","black","black","black","white","black","black","white","black","white","black","black","white","black","white","white","black","white","black","black","black","white","white","white","white","white","white","white","white","black","white","black","white","white","black","black","white","white","white","white","white","white","black","black","black","white","black","white","black","white","black","black","black","black","black","black","black","white","white","white","white","white","white","white","white","white","white","black","black","white","black","white","white","black","white","white","white","black","white","black","black","black","white","black","white","white","white","white","black","black","black","white","white","black","black","black","black","white","white","black","black","black","black","white","white","white","black","white","white","white","white","black","white","white","white","white","white","black","white","white","black","black","black","black","black","white","black","white","black","black","white","black","white","white","white","black","white","white","black","black","white","black","black","white","white","black","white","white","white","black","white","white","black","white","black","black","black","white","white","black","black","black","white","black","black","black","white","black","black","black","black","black","white","black","white","black","black","white","black","white","white","white","black","white","white","white","black"],"dot_shape":"circle","background_color":"#AAA","RDK_type":3,"aperture_type":2,"reinsert_type":2,"frame_rate":16.758333333333333,"frame_rate_array":[16,14,18,16,17,16,17,17,17,17,17,16,18,16,16,18,16,17,17,16,17,16,17,17,17,18,16,17,17,16,17,17,17,15,26,8,17,17,17,17,21,12,17,17,17,18,16,17,17,17,17,16,17,16,17,17,17,17,17,17,17,16,17,17,16,16,16,17,18,17,16,16,18,16,17,17,17,17,18,16,16,17,17,16,16,17,17,18,16,17,17,16,17,16,18,17,17,17,17,16,17,16,17,16,17,16,17,17,17,17,17,17,17,16,16,18,17,17,17,17],"number_of_frames":120,"aperture_center_x":800.5,"aperture_center_y":450,"fixation_cross":true,"fixation_cross_width":15,"fixation_cross_height":15,"fixation_cross_color":"#111","fixation_cross_thickness":1,"border":true,"border_thickness":2,"border_color":"transparent","canvas_width":1601,"canvas_height":900,"trial_type":"rdk","trial_index":104,"plugin_version":"2.0.0","time_elapsed":873865},{"rt":2388,"stimulus":"\n        <div class=\"response-container\">\n          <div class=\"response-instruction\">\n            <p>rotate the bar by using the left and right arrow keys.</p>\n            <p>when you are determined, press the Enter key.</p>\n          </div>\n          <div class=\"response-circle\">\n            <div class=\"response-fixation\"></div>\n            <div id=\"bar\" class=\"rotating-bar\"></div>\n          </div>\n        </div>\n      ","response":"Enter","trial_type":"html-keyboard-response","trial_index":105,"plugin_version":"2.1.0","time_elapsed":876255,"random_initial_angle":28,"response_angle_css":-95,"response_angle_rdk":185,"angular_error_target":124,"angular_error_distractor":17,"target_direction":61,"target_group":"black","reward_points":0},{"rt":null,"stimulus":"\n          <p style=\"color: #FF3333;\">Your reward: 0 points</p>\n        ","response":null,"trial_type":"html-keyboard-response","trial_index":106,"plugin_version":"2.1.0","time_elapsed":878256},{"rt":null,"stimulus":"<div class=\"fixation\" style=\"fon