[{"rt":9265,"stimulus":"Welcome to the experiment. Press any key to begin.","response":"Enter","trial_type":"html-keyboard-response","trial_index":0,"plugin_version":"2.1.0","time_elapsed":9268},{"rt":78874,"stimulus":"\n        <div class=\"instructions-container\">\n          <h2>Instructions</h2>\n\n          <p>\n          In this experiment, you will see <strong>two Random Dot Kinematograms (RDKs)</strong> displayed simultaneously.\n          </p>\n\n          <p>\n          An RDK is a visual stimulus consisting of many small dots that move coherently in a single direction. \n          In this experiment, the dots will be either <strong>white</strong> or <strong>black</strong> \n          (see the short demo below for an example of an RDK stimulus).\n          </p>\n\n          <p>\n          On each trial, the two RDKs will move in different directions. \n          Your task is to decide <strong>which RDK appears to contain more dots</strong>.\n          </p>\n\n          <p>\n          The RDK that you judge to have more dots is called the <strong>target RDK</strong>. \n          For example, if the white RDK appears to have more dots than the black RDK, \n          you should report the motion direction of the white RDK.\n          </p>\n\n          <p>\n          After viewing the RDKs, you will rotate a bar to indicate the perceived direction of the target RDK \n          using the <strong>left</strong> and <strong>right arrow keys</strong>. \n          Press <strong>Enter</strong> when you are satisfied with your response.\n          When the bar is held down, the rotation speed increases.\n          </p>\n\n          <p>\n          You will receive points based on the <strong>accuracy of your response</strong>, \n          and your final <strong>bonus reward</strong> may depend on your overall performance. \n          Please try to respond as accurately as possible.\n          </p>\n\n          <p>\n          You will first complete <strong>16 practice trials</strong>. \n          Press the <strong>Enter</strong> key to start the practice phase.\n          </p>\n\n          <canvas id=\"instruction-demo-rdk\" width=\"200\" height=\"200\"style=\"display:block;margin:12px auto; border-radius: 50%;\"></canvas>\n        </div>\n      ","response":"Enter","trial_type":"html-keyboard-response","trial_index":1,"plugin_version":"2.1.0","time_elapsed":88142},{"rt":null,"stimulus":"<div class=\"fixation\" style=\"font-size: 60px;\">+</div>","response":null,"trial_type":"html-keyboard-response","trial_index":2,"plugin_version":"2.1.0","time_elapsed":89157},{"target_group":"black","target_index":1,"condition_label":"practice","rt":-1,"response":"","correct":false,"choices":"ALL_KEYS","correct_choice":["a"],"trial_duration":2000,"flip_timestamps":[],"response_ends_trial":false,"number_of_apertures":2,"number_of_dots":[57,100],"number_of_sets":1,"coherent_direction":[326,175],"coherence":1,"opposite_coherence":0,"dot_radius":2,"dot_side_length":1,"dot_life":-1,"move_distance":1,"aperture_width":300,"aperture_height":300,"dot_color":["white","black"],"dot_shape":"circle","background_color":"#AAA","RDK_type":3,"aperture_type":2,"reinsert_type":2,"frame_rate":16.95762711864407,"frame_rate_array":[10,17,17,16,17,17,17,17,34,16,17,17,17,17,17,17,17,16,17,17,17,17,17,17,17,17,17,17,17,17,17,17,17,17,17,17,17,17,17,17,17,16,17,17,17,17,17,17,17,16,17,16,17,17,17,17,17,17,17,17,17,17,17,17,17,17,17,17,17,16,17,16,16,17,17,17,17,17,17,17,17,17,17,17,17,17,17,16,17,17,17,17,17,17,17,17,17,17,17,16,17,16,17,16,17,17,17,17,17,16,18,16,16,17,17,17,17,17],"number_of_frames":118,"aperture_center_x":683,"aperture_center_y":384,"fixation_cross":true,"fixation_cross_width":15,"fixation_cross_height":15,"fixation_cross_color":"#111","fixation_cross_thickness":1,"border":true,"border_thickness":2,"border_color":"transparent","canvas_width":1366,"canvas_height":768,"trial_type":"rdk","trial_index":3,"plugin_version":"2.0.0","time_elapsed":91166,"phase":"practice","target_direction":175,"distractor_direction":326},{"rt":31208,"stimulus":"\n        <div class=\"response-container\">\n          <div class=\"response-instruction\">\n            <p>rotate the bar by using the left and right arrow keys.</p>\n            <p>when you are determined, press the Enter key.</p>\n          </div>\n          <div class=\"response-circle\">\n            <div class=\"response-fixation\"></div>\n            <div id=\"bar\" class=\"rotating-bar\"></div>\n          </div>\n        </div>\n      ","response":"Enter","trial_type":"html-keyboard-response","trial_index":4,"plugin_version":"2.1.0","time_elapsed":122375,"random_initial_angle":22,"response_angle_css":36,"response_angle_rdk":54,"angular_error_target":-121,"angular_error_distractor":88,"target_direction":175,"target_group":"black","reward_points":0},{"rt":null,"stimulus":"\n          <p style=\"color: #FF3333;\">Your reward: 0 points</p>\n        ","response":null,"trial_type":"html-keyboard-response","trial_index":5,"plugin_version":"2.1.0","time_elapsed":124381},{"rt":null,"stimulus":"<div class=\"fixation\" style=\"font-size: 60px;\">+</div>","response":null,"trial_type":"html-keyboard-response","trial_index":6,"plugin_version":"2.1.0","time_elapsed":125384},{"target_group":"black","target_index":1,"condition_label":"practice","rt":-1,"response":"","correct":false,"choices":"ALL_KEYS","correct_choice":["a"],"trial_duration":2000,"flip_timestamps":[],"response_ends_trial":false,"number_of_apertures":2,"number_of_dots":[59,100],"number_of_sets":1,"coherent_direction":[200,13],"coherence":1,"opposite_coherence":0,"dot_radius":2,"dot_side_length":1,"dot_life":-1,"move_distance":1,"aperture_width":300,"aperture_height":300,"dot_color":["white","black"],"dot_shape":"circle","background_color":"#AAA","RDK_type":3,"aperture_type":2,"reinsert_type":2,"frame_rate":16.908333333333335,"frame_rate_array":[12,17,17,17,17,17,17,17,17,17,17,17,17,17,16,17,17,17,17,17,17,17,16,17,17,17,17,17,17,17,17,17,17,17,17,17,17,17,17,17,17,17,16,17,17,17,17,17,17,17,17,17,17,17,17,17,17,17,17,17,17,17,16,17,17,17,17,17,17,17,17,17,17,17,16,17,17,17,17,17,17,17,17,17,17,17,17,17,17,17,17,17,17,17,17,17,17,17,17,17,17,17,17,17,17,17,16,17,17,17,17,17,17,17,17,17,17,17,17,17],"number_of_frames":120,"aperture_center_x":683,"aperture_center_y":384,"fixation_cross":true,"fixation_cross_width":15,"fixation_cross_height":15,"fixation_cross_color":"#111","fixation_cross_thickness":1,"border":true,"border_thickness":2,"border_color":"transparent","canvas_width":1366,"canvas_height":768,"trial_type":"rdk","trial_index":7,"plugin_version":"2.0.0","time_elapsed":127393,"phase":"practice","target_direction":13,"distractor_direction":200},{"rt":7260,"stimulus":"\n        <div class=\"response-container\">\n          <div class=\"response-instruction\">\n            <p>rotate the bar by using the left and right arrow keys.</p>\n            <p>when you are determined, press the Enter key.</p>\n          </div>\n          <div class=\"response-circle\">\n            <div class=\"response-fixation\"></div>\n            <div id=\"bar\" class=\"rotating-bar\"></div>\n          </div>\n        </div>\n      ","response":"Enter","trial_type":"html-keyboard-response","trial_index":8,"plugin_version":"2.1.0","time_elapsed":134654,"random_initial_angle":199,"response_angle_css":40,"response_angle_rdk":50,"angular_error_target":37,"angular_error_distractor":-150,"target_direction":13,"target_group":"black","reward_points":2},{"rt":null,"stimulus":"\n          <p style=\"color: #FF3333;\">Your reward: 2 points</p>\n        ","response":null,"trial_type":"html-keyboard-response","trial_index":9,"plugin_version":"2.1.0","time_elapsed":136657},{"rt":null,"stimulus":"<div class=\"fixation\" style=\"font-size: 60px;\">+</div>","response":null,"trial_type":"html-keyboard-response","trial_index":10,"plugin_version":"2.1.0","time_elapsed":137659},{"target_group":"white","target_index":0,"condition_label":"practice","rt":-1,"response":"","correct":false,"choices":"ALL_KEYS","correct_choice":["a"],"trial_duration":2000,"flip_timestamps":[],"response_ends_trial":false,"number_of_apertures":2,"number_of_dots":[100,57],"number_of_sets":1,"coherent_direction":[322,106],"coherence":1,"opposite_coherence":0,"dot_radius":2,"dot_side_length":1,"dot_life":-1,"move_distance":1,"aperture_width":300,"aperture_height":300,"dot_color":["white","black"],"dot_shape":"circle","background_color":"#AAA","RDK_type":3,"aperture_type":2,"reinsert_type":2,"frame_rate":16.915966386554622,"frame_rate_array":[18,16,17,17,17,17,17,17,17,17,17,18,15,17,17,17,17,17,17,17,16,17,17,17,17,16,17,17,17,17,17,17,17,17,17,17,17,17,17,17,17,17,17,17,16,17,17,17,16,17,17,17,17,17,17,17,16,17,17,17,17,17,17,17,17,17,17,17,17,17,17,17,17,16,17,17,17,17,17,17,17,17,17,17,17,17,17,16,17,17,17,17,17,17,17,17,17,17,17,17,17,17,17,17,17,17,17,17,17,16,17,17,17,17,17,17,17,17,16],"number_of_frames":119,"aperture_center_x":683,"aperture_center_y":384,"fixation_cross":true,"fixation_cross_width":15,"fixation_cross_height":15,"fixation_cross_color":"#111","fixation_cross_thickness":1,"border":true,"border_thickness":2,"border_color":"transparent","canvas_width":1366,"canvas_height":768,"trial_type":"rdk","trial_index":11,"plugin_version":"2.0.0","time_elapsed":139667,"phase":"practice","target_direction":322,"distractor_direction":106},{"rt":6459,"stimulus":"\n        <div class=\"response-container\">\n          <div class=\"response-instruction\">\n            <p>rotate the bar by using the left and right arrow keys.</p>\n            <p>when you are determined, press the Enter key.</p>\n          </div>\n          <div class=\"response-circle\">\n            <div class=\"response-fixation\"></div>\n            <div id=\"bar\" class=\"rotating-bar\"></div>\n          </div>\n        </div>\n      ","response":"Enter","trial_type":"html-keyboard-response","trial_index":12,"plugin_version":"2.1.0","time_elapsed":146127,"random_initial_angle":259,"response_angle_css":140,"response_angle_rdk":310,"angular_error_target":-12,"angular_error_distractor":-156,"target_direction":322,"target_group":"white","reward_points":7},{"rt":null,"stimulus":"\n          <p style=\"color: #00FF00;\">Your reward: 7 points</p>\n        ","response":null,"trial_type":"html-keyboard-response","trial_index":13,"plugin_version":"2.1.0","time_elapsed":148131},{"rt":null,"stimulus":"<div class=\"fixation\" style=\"font-size: 60px;\">+</div>","response":null,"trial_type":"html-keyboard-response","trial_index":14,"plugin_version":"2.1.0","time_elapsed":149134},{"target_group":"white","target_index":0,"condition_label":"practice","rt":-1,"response":"","correct":false,"choices":"ALL_KEYS","correct_choice":["a"],"trial_duration":2000,"flip_timestamps":[],"response_ends_trial":false,"number_of_apertures":2,"number_of_dots":[100,100],"number_of_sets":1,"coherent_direction":[246,39],"coherence":1,"opposite_coherence":0,"dot_radius":2,"dot_side_length":1,"dot_life":-1,"move_distance":1,"aperture_width":300,"aperture_height":300,"dot_color":["white","black"],"dot_shape":"circle","background_color":"#AAA","RDK_type":3,"aperture_type":2,"reinsert_type":2,"frame_rate":16.899159663865547,"frame_rate_array":[14,17,17,17,17,17,17,16,17,17,17,16,17,17,17,17,17,17,17,17,17,16,17,17,17,17,17,17,17,17,17,17,17,17,17,17,17,17,17,17,17,17,17,17,17,16,17,17,17,17,17,17,16,17,17,17,17,17,17,17,17,17,17,17,17,17,17,17,17,17,17,16,17,17,17,17,17,17,17,16,17,17,17,17,17,17,17,17,17,17,17,17,17,17,17,17,17,16,17,17,17,17,17,17,17,17,17,17,17,17,17,17,17,17,16,17,17,17,17],"number_of_frames":119,"aperture_center_x":683,"aperture_center_y":384,"fixation_cross":true,"fixation_cross_width":15,"fixation_cross_height":15,"fixation_cross_color":"#111","fixation_cross_thickness":1,"border":true,"border_thickness":2,"border_color":"transparent","canvas_width":1366,"canvas_height":768,"trial_type":"rdk","trial_index":15,"plugin_version":"2.0.0","time_elapsed":151141,"phase":"practice","target_direction":246,"distractor_direction":39},{"rt":5513,"stimulus":"\n        <div class=\"response-container\">\n          <div class=\"response-instruction\">\n            <p>rotate the bar by using the left and right arrow keys.</p>\n            <p>when you are determined, press the Enter key.</p>\n          </div>\n          <div class=\"response-circle\">\n            <div class=\"response-fixation\"></div>\n            <div id=\"bar\" class=\"rotating-bar\"></div>\n          </div>\n        </div>\n      ","response":"Enter","trial_type":"html-keyboard-response","trial_index":16,"plugin_version":"2.1.0","time_elapsed":156655,"random_initial_angle":112,"response_angle_css":23,"response_angle_rdk":67,"angular_error_target":-179,"angular_error_distractor":28,"target_direction":246,"target_group":"white","reward_points":0},{"rt":null,"stimulus":"\n          <p style=\"color: #FF3333;\">Your reward: 0 points</p>\n        ","response":null,"trial_type":"html-keyboard-response","trial_index":17,"plugin_version":"2.1.0","time_elapsed":158667},{"rt":null,"stimulus":"<div class=\"fixation\" style=\"font-size: 60px;\">+</div>","response":null,"trial_type":"html-keyboard-response","trial_index":18,"plugin_version":"2.1.0","time_elapsed":159671},{"target_group":"white","target_index":0,"condition_label":"practice","rt":-1,"response":"","correct":false,"choices":"ALL_KEYS","correct_choice":["a"],"trial_duration":2000,"flip_timestamps":[],"response_ends_trial":false,"number_of_apertures":2,"number_of_dots":[100,70],"number_of_sets":1,"coherent_direction":[14,267],"coherence":1,"opposite_coherence":0,"dot_radius":2,"dot_side_length":1,"dot_life":-1,"move_distance":1,"aperture_width":300,"aperture_height":300,"dot_color":["white","black"],"dot_shape":"circle","background_color":"#AAA","RDK_type":3,"aperture_type":2,"reinsert_type":2,"frame_rate":16.907563025210084,"frame_rate_array":[13,17,17,17,17,17,17,16,17,17,17,17,17,17,17,17,17,17,17,17,16,17,17,17,17,17,17,17,17,17,17,17,17,17,17,17,17,17,17,17,17,17,16,17,17,17,17,17,17,17,17,17,17,17,16,17,17,17,17,17,17,17,17,17,17,17,17,17,17,17,17,17,17,16,17,17,17,17,17,17,16,17,17,17,17,17,17,17,17,17,17,17,17,17,17,17,17,17,17,17,17,17,17,17,16,17,17,17,17,17,17,17,17,17,17,17,17,17,17],"number_of_frames":119,"aperture_center_x":683,"aperture_center_y":384,"fixation_cross":true,"fixation_cross_width":15,"fixation_cross_height":15,"fixation_cross_color":"#111","fixation_cross_thickness":1,"border":true,"border_thickness":2,"border_color":"transparent","canvas_width":1366,"canvas_height":768,"trial_type":"rdk","trial_index":19,"plugin_version":"2.0.0","time_elapsed":161679,"phase":"practice","target_direction":14,"distractor_direction":267},{"rt":1623,"stimulus":"\n        <div class=\"response-container\">\n          <div class=\"response-instruction\">\n            <p>rotate the bar by using the left and right arrow keys.</p>\n            <p>when you are determined, press the Enter key.</p>\n          </div>\n          <div class=\"response-circle\">\n            <div class=\"response-fixation\"></div>\n            <div id=\"bar\" class=\"rotating-bar\"></div>\n          </div>\n        </div>\n      ","response":"Enter","trial_type":"html-keyboard-response","trial_index":20,"plugin_version":"2.1.0","time_elapsed":163302,"random_initial_angle":41,"response_angle_css":41,"response_angle_rdk":49,"angular_error_target":35,"angular_error_distractor":142,"target_direction":14,"target_group":"white","reward_points":3},{"rt":null,"stimulus":"\n          <p style=\"color: #00FF00;\">Your reward: 3 points</p>\n        ","response":null,"trial_type":"html-keyboard-response","trial_index":21,"plugin_version":"2.1.0","time_elapsed":165308},{"rt":null,"stimulus":"<div class=\"fixation\" style=\"font-size: 60px;\">+</div>","response":null,"trial_type":"html-keyboard-response","trial_index":22,"plugin_version":"2.1.0","time_elapsed":166311},{"target_group":"white","target_index":0,"condition_label":"practice","rt":-1,"response":"","correct":false,"choices":"ALL_KEYS","correct_choice":["a"],"trial_duration":2000,"flip_timestamps":[],"response_ends_trial":false,"number_of_apertures":2,"number_of_dots":[100,59],"number_of_sets":1,"coherent_direction":[212,99],"coherence":1,"opposite_coherence":0,"dot_radius":2,"dot_side_length":1,"dot_life":-1,"move_distance":1,"aperture_width":300,"aperture_height":300,"dot_color":["white","black"],"dot_shape":"circle","background_color":"#AAA","RDK_type":3,"aperture_type":2,"reinsert_type":2,"frame_rate":16.908333333333335,"frame_rate_array":[15,17,16,17,17,17,17,17,17,17,17,17,17,17,17,17,17,16,17,17,17,17,17,17,17,17,17,17,17,17,16,17,17,17,17,17,17,16,17,17,17,17,17,17,17,16,17,17,17,17,17,17,17,17,17,17,17,17,17,17,17,17,17,17,17,17,16,17,17,17,17,17,17,17,17,17,17,17,17,16,17,17,17,17,17,17,17,17,17,17,17,17,17,17,17,17,17,17,16,17,17,17,17,17,17,17,17,17,17,16,17,17,17,17,17,17,17,17,17,17],"number_of_frames":120,"aperture_center_x":683,"aperture_center_y":384,"fixation_cross":true,"fixation_cross_width":15,"fixation_cross_height":15,"fixation_cross_color":"#111","fixation_cross_thickness":1,"border":true,"border_thickness":2,"border_color":"transparent","canvas_width":1366,"canvas_height":768,"trial_type":"rdk","trial_index":23,"plugin_version":"2.0.0","time_elapsed":168320,"phase":"practice","target_direction":212,"distractor_direction":99},{"rt":4982,"stimulus":"\n        <div class=\"response-container\">\n          <div class=\"response-instruction\">\n            <p>rotate the bar by using the left and right arrow keys.</p>\n            <p>when you are determined, press the Enter key.</p>\n          </div>\n          <div class=\"response-circle\">\n            <div class=\"response-fixation\"></div>\n            <div id=\"bar\" class=\"rotating-bar\"></div>\n          </div>\n        </div>\n      ","response":"Enter","trial_type":"html-keyboard-response","trial_index":24,"plugin_version":"2.1.0","time_elapsed":173303,"random_initial_angle":83,"response_angle_css":-13,"response_angle_rdk":103,"angular_error_target":-109,"angular_error_distractor":4,"target_direction":212,"target_group":"white","reward_points":0},{"rt":null,"stimulus":"\n          <p style=\"color: #FF3333;\">Your reward: 0 points</p>\n        ","response":null,"trial_type":"html-keyboard-response","trial_index":25,"plugin_version":"2.1.0","time_elapsed":175310},{"rt":null,"stimulus":"<div class=\"fixation\" style=\"font-size: 60px;\">+</div>","response":null,"trial_type":"html-keyboard-response","trial_index":26,"plugin_version":"2.1.0","time_elapsed":176313},{"target_group":"white","target_index":0,"condition_label":"practice","rt":-1,"response":"","correct":false,"choices":"ALL_KEYS","correct_choice":["a"],"trial_duration":2000,"flip_timestamps":[],"response_ends_trial":false,"number_of_apertures":2,"number_of_dots":[100,71],"number_of_sets":1,"coherent_direction":[104,246],"coherence":1,"opposite_coherence":0,"dot_radius":2,"dot_side_length":1,"dot_life":-1,"move_distance":1,"aperture_width":300,"aperture_height":300,"dot_color":["white","black"],"dot_shape":"circle","background_color":"#AAA","RDK_type":3,"aperture_type":2,"reinsert_type":2,"frame_rate":16.89075630252101,"frame_rate_array":[14,17,17,17,17,17,17,17,16,17,17,16,17,17,17,17,17,17,17,17,17,17,17,17,16,17,17,17,17,17,17,17,17,17,17,17,16,17,17,16,17,17,17,17,17,18,16,17,17,17,17,17,17,17,17,17,17,17,17,16,17,17,17,17,17,17,17,17,17,17,16,17,17,17,17,17,17,17,17,17,17,17,17,16,17,17,17,17,17,17,17,17,17,17,17,17,17,17,17,17,17,16,17,17,17,17,17,17,17,17,17,17,17,17,17,16,17,17,17],"number_of_frames":119,"aperture_center_x":683,"aperture_center_y":384,"fixation_cross":true,"fixation_cross_width":15,"fixation_cross_height":15,"fixation_cross_color":"#111","fixation_cross_thickness":1,"border":true,"border_thickness":2,"border_color":"transparent","canvas_width":1366,"canvas_height":768,"trial_type":"rdk","trial_index":27,"plugin_version":"2.0.0","time_elapsed":178321,"phase":"practice","target_direction":104,"distractor_direction":246},{"rt":4717,"stimulus":"\n        <div class=\"response-container\">\n          <div class=\"response-instruction\">\n            <p>rotate the bar by using the left and right arrow keys.</p>\n            <p>when you are determined, press the Enter key.</p>\n          </div>\n          <div class=\"response-circle\">\n            <div class=\"response-fixation\"></div>\n            <div id=\"bar\" class=\"rotating-bar\"></div>\n          </div>\n        </div>\n      ","response":"Enter","trial_type":"html-keyboard-response","trial_index":28,"plugin_version":"2.1.0","time_elapsed":183038,"random_initial_angle":78,"response_angle_css":-5,"response_angle_rdk":95,"angular_error_target":-9,"angular_error_distractor":-151,"target_direction":104,"target_group":"white","reward_points":8},{"rt":null,"stimulus":"\n          <p style=\"color: #00FF00;\">Your reward: 8 points</p>\n        ","response":null,"trial_type":"html-keyboard-response","trial_index":29,"plugin_version":"2.1.0","time_elapsed":185044},{"rt":null,"stimulus":"<div class=\"fixation\" style=\"font-size: 60px;\">+</div>","response":null,"trial_type":"html-keyboard-response","trial_index":30,"plugin_version":"2.1.0","time_elapsed":186047},{"target_group":"white","target_index":0,"condition_label":"practice","rt":-1,"response":"","correct":false,"choices":"ALL_KEYS","correct_choice":["a"],"trial_duration":2000,"flip_timestamps":[],"response_ends_trial":false,"number_of_apertures":2,"number_of_dots":[100,53],"number_of_sets":1,"coherent_direction":[260,166],"coherence":1,"opposite_coherence":0,"dot_radius":2,"dot_side_length":1,"dot_life":-1,"move_distance":1,"aperture_width":300,"aperture_height":300,"dot_color":["white","black"],"dot_shape":"circle","background_color":"#AAA","RDK_type":3,"aperture_type":2,"reinsert_type":2,"frame_rate":16.88235294117647,"frame_rate_array":[13,17,17,17,16,17,17,17,17,17,17,17,17,17,17,16,17,17,17,17,17,17,17,17,17,17,17,16,16,17,17,17,17,17,16,17,17,17,17,17,16,17,17,17,17,17,16,17,17,17,17,17,17,17,17,17,17,17,17,17,17,17,17,17,16,17,17,17,17,17,17,17,17,17,17,17,17,17,17,17,17,17,17,17,17,17,17,17,17,17,17,17,17,17,17,17,17,17,17,17,16,17,17,17,17,17,17,17,16,17,17,17,17,17,17,17,17,17,17],"number_of_frames":119,"aperture_center_x":683,"aperture_center_y":384,"fixation_cross":true,"fixation_cross_width":15,"fixation_cross_height":15,"fixation_cross_color":"#111","fixation_cross_thickness":1,"border":true,"border_thickness":2,"border_color":"transparent","canvas_width":1366,"canvas_height":768,"trial_type":"rdk","trial_index":31,"plugin_version":"2.0.0","time_elapsed":188055,"phase":"practice","target_direction":260,"distractor_direction":166},{"rt":8119,"stimulus":"\n        <div class=\"response-container\">\n          <div class=\"response-instruction\">\n            <p>rotate the bar by using the left and right arrow keys.</p>\n            <p>when you are determined, press the Enter key.</p>\n          </div>\n          <div class=\"response-circle\">\n            <div class=\"response-fixation\"></div>\n            <div id=\"bar\" class=\"rotating-bar\"></div>\n          </div>\n        </div>\n      ","response":"Enter","trial_type":"html-keyboard-response","trial_index":32,"plugin_version":"2.1.0","time_elapsed":196174,"random_initial_angle":253,"response_angle_css":179,"response_angle_rdk":271,"angular_error_target":11,"angular_error_distractor":105,"target_direction":260,"target_group":"white","reward_points":7},{"rt":null,"stimulus":"\n          <p style=\"color: #00FF00;\">Your reward: 7 points</p>\n        ","response":null,"trial_type":"html-keyboard-response","trial_index":33,"plugin_version":"2.1.0","time_elapsed":198189},{"rt":null,"stimulus":"<div class=\"fixation\" style=\"font-size: 60px;\">+</div>","response":null,"trial_type":"html-keyboard-response","trial_index":34,"plugin_version":"2.1.0","time_elapsed":199192},{"target_group":"white","target_index":0,"condition_label":"practice","rt":-1,"response":"","correct":false,"choices":"ALL_KEYS","correct_choice":["a"],"trial_duration":2000,"flip_timestamps":[],"response_ends_trial":false,"number_of_apertures":2,"number_of_dots":[100,83],"number_of_sets":1,"coherent_direction":[308,125],"coherence":1,"opposite_coherence":0,"dot_radius":2,"dot_side_length":1,"dot_life":-1,"move_distance":1,"aperture_width":300,"aperture_height":300,"dot_color":["white","black"],"dot_shape":"circle","background_color":"#AAA","RDK_type":3,"aperture_type":2,"reinsert_type":2,"frame_rate":16.941176470588236,"frame_rate_array":[17,17,17,16,17,17,17,17,17,17,17,17,17,17,17,17,16,17,17,17,17,17,17,17,17,17,17,17,17,17,17,17,17,16,17,17,17,17,17,17,17,17,17,17,16,17,17,17,17,17,17,17,17,17,17,17,17,17,17,17,17,17,17,17,16,17,17,17,17,17,17,17,17,17,17,17,17,17,17,17,17,17,17,17,17,17,17,17,17,17,17,17,17,17,17,17,17,17,17,17,17,17,17,16,17,17,17,17,17,17,17,17,17,17,17,16,17,17,17],"number_of_frames":119,"aperture_center_x":683,"aperture_center_y":384,"fixation_cross":true,"fixation_cross_width":15,"fixation_cross_height":15,"fixation_cross_color":"#111","fixation_cross_thickness":1,"border":true,"border_thickness":2,"border_color":"transparent","canvas_width":1366,"canvas_height":768,"trial_type":"rdk","trial_index":35,"plugin_version":"2.0.0","time_elapsed":201217,"phase":"practice","target_direction":308,"distractor_direction":125},{"rt":5493,"stimulus":"\n        <div class=\"response-container\">\n          <div class=\"response-instruction\">\n            <p>rotate the bar by using the left and right arrow keys.</p>\n            <p>when you are determined, press the Enter key.</p>\n          </div>\n          <div class=\"response-circle\">\n            <div class=\"response-fixation\"></div>\n            <div id=\"bar\" class=\"rotating-bar\"></div>\n          </div>\n        </div>\n      ","response":"Enter","trial_type":"html-keyboard-response","trial_index":36,"plugin_version":"2.1.0","time_elapsed":206711,"random_initial_angle":231,"response_angle_css":318,"response_angle_rdk":132,"angular_error_target":-176,"angular_error_distractor":7,"target_direction":308,"target_group":"white","reward_points":0},{"rt":null,"stimulus":"\n          <p style=\"color: #FF3333;\">Your reward: 0 points</p>\n        ","response":null,"trial_type":"html-keyboard-response","trial_index":37,"plugin_version":"2.1.0","time_elapsed":208726},{"rt":null,"stimulus":"<div class=\"fixation\" style=\"font-size: 60px;\">+</div>","response":null,"trial_type":"html-keyboard-response","trial_index":38,"plugin_version":"2.1.0","time_elapsed":209729},{"target_group":"black","target_index":1,"condition_label":"practice","rt":-1,"response":"","correct":false,"choices":"ALL_KEYS","correct_choice":["a"],"trial_duration":2000,"flip_timestamps":[],"response_ends_trial":false,"number_of_apertures":2,"number_of_dots":[86,100],"number_of_sets":1,"coherent_direction":[305,138],"coherence":1,"opposite_coherence":0,"dot_radius":2,"dot_side_length":1,"dot_life":-1,"move_distance":1,"aperture_width":300,"aperture_height":300,"dot_color":["white","black"],"dot_shape":"circle","background_color":"#AAA","RDK_type":3,"aperture_type":2,"reinsert_type":2,"frame_rate":16.899159663865547,"frame_rate_array":[17,17,17,17,17,17,17,17,17,17,17,17,16,17,17,17,17,17,17,17,17,17,17,17,18,16,17,17,17,17,17,17,17,17,17,17,17,17,17,16,17,16,17,17,17,17,17,17,17,17,17,16,17,17,17,17,16,17,17,17,17,17,17,17,17,16,17,17,17,17,17,17,17,16,17,17,17,17,17,17,17,17,17,17,17,17,17,16,17,17,17,17,17,17,17,17,16,17,17,17,17,17,17,17,17,17,16,17,17,17,17,17,17,16,17,17,17,17,16],"number_of_frames":119,"aperture_center_x":683,"aperture_center_y":384,"fixation_cross":true,"fixation_cross_width":15,"fixation_cross_height":15,"fixation_cross_color":"#111","fixation_cross_thickness":1,"border":true,"border_thickness":2,"border_color":"transparent","canvas_width":1366,"canvas_height":768,"trial_type":"rdk","trial_index":39,"plugin_version":"2.0.0","time_elapsed":211737,"phase":"practice","target_direction":138,"distractor_direction":305},{"rt":3877,"stimulus":"\n        <div class=\"response-container\">\n          <div class=\"response-instruction\">\n            <p>rotate the bar by using the left and right arrow keys.</p>\n            <p>when you are determined, press the Enter key.</p>\n          </div>\n          <div class=\"response-circle\">\n            <div class=\"response-fixation\"></div>\n            <div id=\"bar\" class=\"rotating-bar\"></div>\n          </div>\n        </div>\n      ","response":"Enter","trial_type":"html-keyboard-response","trial_index":40,"plugin_version":"2.1.0","time_elapsed":215615,"random_initial_angle":247,"response_angle_css":306,"response_angle_rdk":144,"angular_error_target":6,"angular_error_distractor":-161,"target_direction":138,"target_group":"black","reward_points":8},{"rt":null,"stimulus":"\n          <p style=\"color: #00FF00;\">Your reward: 8 points</p>\n        ","response":null,"trial_type":"html-keyboard-response","trial_index":41,"plugin_version":"2.1.0","time_elapsed":217623},{"rt":null,"stimulus":"<div class=\"fixation\" style=\"font-size: 60px;\">+</div>","response":null,"trial_type":"html-keyboard-response","trial_index":42,"plugin_version":"2.1.0","time_elapsed":218628},{"target_group":"white","target_index":0,"condition_label":"practice","rt":-1,"response":"","correct":false,"choices":"ALL_KEYS","correct_choice":["a"],"trial_duration":2000,"flip_timestamps":[],"response_ends_trial":false,"number_of_apertures":2,"number_of_dots":[100,88],"number_of_sets":1,"coherent_direction":[56,275],"coherence":1,"opposite_coherence":0,"dot_radius":2,"dot_side_length":1,"dot_life":-1,"move_distance":1,"aperture_width":300,"aperture_height":300,"dot_color":["white","black"],"dot_shape":"circle","background_color":"#AAA","RDK_type":3,"aperture_type":2,"reinsert_type":2,"frame_rate":16.899159663865547,"frame_rate_array":[16,17,17,17,17,17,17,17,17,16,17,17,17,17,17,17,17,17,17,17,16,17,17,17,17,17,17,17,17,17,16,17,17,17,17,16,17,17,17,17,16,17,17,17,17,17,17,17,17,17,17,16,17,17,17,17,17,17,17,17,17,17,17,17,17,17,17,17,17,17,17,17,17,17,17,17,17,17,17,17,17,17,16,17,17,17,17,17,17,17,17,17,17,17,17,16,17,17,17,17,17,16,17,17,17,16,17,17,17,17,17,17,17,16,17,17,17,17,17],"number_of_frames":119,"aperture_center_x":683,"aperture_center_y":384,"fixation_cross":true,"fixation_cross_width":15,"fixation_cross_height":15,"fixation_cross_color":"#111","fixation_cross_thickness":1,"border":true,"border_thickness":2,"border_color":"transparent","canvas_width":1366,"canvas_height":768,"trial_type":"rdk","trial_index":43,"plugin_version":"2.0.0","time_elapsed":220636,"phase":"practice","target_direction":56,"distractor_direction":275},{"rt":4426,"stimulus":"\n        <div class=\"response-container\">\n          <div class=\"response-instruction\">\n            <p>rotate the bar by using the left and right arrow keys.</p>\n            <p>when you are determined, press the Enter key.</p>\n          </div>\n          <div class=\"response-circle\">\n            <div class=\"response-fixation\"></div>\n            <div id=\"bar\" class=\"rotating-bar\"></div>\n          </div>\n        </div>\n      ","response":"Enter","trial_type":"html-keyboard-response","trial_index":44,"plugin_version":"2.1.0","time_elapsed":225063,"random_initial_angle":333,"response_angle_css":361,"response_angle_rdk":89,"angular_error_target":33,"angular_error_distractor":174,"target_direction":56,"target_group":"white","reward_points":3},{"rt":null,"stimulus":"\n          <p style=\"color: #00FF00;\">Your reward: 3 points</p>\n        ","response":null,"trial_type":"html-keyboard-response","trial_index":45,"plugin_version":"2.1.0","time_elapsed":227074},{"rt":null,"stimulus":"<div class=\"fixation\" style=\"font-size: 60px;\">+</div>","response":null,"trial_type":"html-keyboard-response","trial_index":46,"plugin_version":"2.1.0","time_elapsed":228079},{"target_group":"black","target_index":1,"condition_label":"practice","rt":-1,"response":"","correct":false,"choices":"ALL_KEYS","correct_choice":["a"],"trial_duration":2000,"flip_timestamps":[],"response_ends_trial":false,"number_of_apertures":2,"number_of_dots":[57,100],"number_of_sets":1,"coherent_direction":[247,125],"coherence":1,"opposite_coherence":0,"dot_radius":2,"dot_side_length":1,"dot_life":-1,"move_distance":1,"aperture_width":300,"aperture_height":300,"dot_color":["white","black"],"dot_shape":"circle","background_color":"#AAA","RDK_type":3,"aperture_type":2,"reinsert_type":2,"frame_rate":16.89075630252101,"frame_rate_array":[13,17,17,17,17,17,17,17,17,17,17,17,17,16,17,17,17,17,17,17,17,17,17,17,17,17,17,17,17,17,17,17,17,17,17,16,17,16,17,17,17,17,17,17,16,17,17,17,17,17,17,17,17,17,17,17,17,17,17,16,17,17,17,17,17,17,17,17,17,17,17,17,17,17,17,16,17,17,17,17,17,17,17,17,17,17,17,17,17,17,17,17,17,17,17,17,17,16,17,17,17,17,17,17,17,17,16,17,17,17,17,17,17,17,17,17,17,16,17],"number_of_frames":119,"aperture_center_x":683,"aperture_center_y":384,"fixation_cross":true,"fixation_cross_width":15,"fixation_cross_height":15,"fixation_cross_color":"#111","fixation_cross_thickness":1,"border":true,"border_thickness":2,"border_color":"transparent","canvas_width":1366,"canvas_height":768,"trial_type":"rdk","trial_index":47,"plugin_version":"2.0.0","time_elapsed":230086,"phase":"practice","target_direction":125,"distractor_direction":247},{"rt":2792,"stimulus":"\n        <div class=\"response-container\">\n          <div class=\"response-instruction\">\n            <p>rotate the bar by using the left and right arrow keys.</p>\n            <p>when you are determined, press the Enter key.</p>\n          </div>\n          <div class=\"response-circle\">\n            <div class=\"response-fixation\"></div>\n            <div id=\"bar\" class=\"rotating-bar\"></div>\n          </div>\n        </div>\n      ","response":"Enter","trial_type":"html-keyboard-response","trial_index":48,"plugin_version":"2.1.0","time_elapsed":232879,"random_initial_angle":297,"response_angle_css":328,"response_angle_rdk":122,"angular_error_target":-3,"angular_error_distractor":-125,"target_direction":125,"target_group":"black","reward_points":9},{"rt":null,"stimulus":"\n          <p style=\"color: #00FF00;\">Your reward: 9 points</p>\n        ","response":null,"trial_type":"html-keyboard-response","trial_index":49,"plugin_version":"2.1.0","time_elapsed":234885},{"rt":null,"stimulus":"<div class=\"fixation\" style=\"font-size: 60px;\">+</div>","response":null,"trial_type":"html-keyboard-response","trial_index":50,"plugin_version":"2.1.0","time_elapsed":235889},{"target_group":"black","target_index":1,"condition_label":"practice","rt":-1,"response":"","correct":false,"choices":"ALL_KEYS","correct_choice":["a"],"trial_duration":2000,"flip_timestamps":[],"response_ends_trial":false,"number_of_apertures":2,"number_of_dots":[89,100],"number_of_sets":1,"coherent_direction":[81,254],"coherence":1,"opposite_coherence":0,"dot_radius":2,"dot_side_length":1,"dot_life":-1,"move_distance":1,"aperture_width":300,"aperture_height":300,"dot_color":["white","black"],"dot_shape":"circle","background_color":"#AAA","RDK_type":3,"aperture_type":2,"reinsert_type":2,"frame_rate":16.92436974789916,"frame_rate_array":[14,17,17,17,17,17,17,17,17,16,17,17,17,17,17,17,17,17,17,17,17,17,17,17,17,17,17,17,17,17,17,17,17,17,17,17,17,17,17,17,17,17,16,17,17,17,17,17,17,17,17,17,17,16,17,17,17,17,17,17,17,17,17,17,16,17,17,17,17,17,17,17,17,17,17,17,17,17,17,17,17,17,17,17,17,16,17,17,17,17,17,17,17,17,17,17,17,17,17,17,17,17,17,16,17,17,17,17,17,17,17,17,17,17,17,17,17,17,17],"number_of_frames":119,"aperture_center_x":683,"aperture_center_y":384,"fixation_cross":true,"fixation_cross_width":15,"fixation_cross_height":15,"fixation_cross_color":"#111","fixation_cross_thickness":1,"border":true,"border_thickness":2,"border_color":"transparent","canvas_width":1366,"canvas_height":768,"trial_type":"rdk","trial_index":51,"plugin_version":"2.0.0","time_elapsed":237896,"phase":"practice","target_direction":254,"distractor_direction":81},{"rt":5014,"stimulus":"\n        <div class=\"response-container\">\n          <div class=\"response-instruction\">\n            <p>rotate the bar by using the left and right arrow keys.</p>\n            <p>when you are determined, press the Enter key.</p>\n          </div>\n          <div class=\"response-circle\">\n            <div class=\"response-fixation\"></div>\n            <div id=\"bar\" class=\"rotating-bar\"></div>\n          </div>\n        </div>\n      ","response":"Enter","trial_type":"html-keyboard-response","trial_index":52,"plugin_version":"2.1.0","time_elapsed":242911,"random_initial_angle":175,"response_angle_css":201,"response_angle_rdk":249,"angular_error_target":-5,"angular_error_distractor":168,"target_direction":254,"target_group":"black","reward_points":9},{"rt":null,"stimulus":"\n          <p style=\"color: #00FF00;\">Your reward: 9 points</p>\n        ","response":null,"trial_type":"html-keyboard-response","trial_index":53,"plugin_version":"2.1.0","time_elapsed":244920},{"rt":null,"stimulus":"<div class=\"fixation\" style=\"font-size: 60px;\">+</div>","response":null,"trial_type":"html-keyboard-response","trial_index":54,"plugin_version":"2.1.0","time_elapsed":245925},{"target_group":"black","target_index":1,"condition_label":"practice","rt":-1,"response":"","correct":false,"choices":"ALL_KEYS","correct_choice":["a"],"trial_duration":2000,"flip_timestamps":[],"response_ends_trial":false,"number_of_apertures":2,"number_of_dots":[94,100],"number_of_sets":1,"coherent_direction":[256,350],"coherence":1,"opposite_coherence":0,"dot_radius":2,"dot_side_length":1,"dot_life":-1,"move_distance":1,"aperture_width":300,"aperture_height":300,"dot_color":["white","black"],"dot_shape":"circle","background_color":"#AAA","RDK_type":3,"aperture_type":2,"reinsert_type":2,"frame_rate":16.907563025210084,"frame_rate_array":[13,17,17,17,17,17,17,17,17,17,17,17,17,17,16,17,17,17,17,17,17,17,17,17,17,17,17,17,17,16,17,16,17,17,17,17,17,16,17,17,17,17,17,17,17,17,17,17,17,17,17,17,17,17,17,17,17,17,17,17,17,17,16,17,17,17,17,17,17,17,17,17,17,17,17,17,17,16,17,17,17,17,17,17,17,17,17,17,17,17,17,17,17,16,17,17,17,17,17,17,17,17,17,17,17,17,17,17,17,17,17,17,17,17,17,17,17,17,17],"number_of_frames":119,"aperture_center_x":683,"aperture_center_y":384,"fixation_cross":true,"fixation_cross_width":15,"fixation_cross_height":15,"fixation_cross_color":"#111","fixation_cross_thickness":1,"border":true,"border_thickness":2,"border_color":"transparent","canvas_width":1366,"canvas_height":768,"trial_type":"rdk","trial_index":55,"plugin_version":"2.0.0","time_elapsed":247932,"phase":"practice","target_direction":350,"distractor_direction":256},{"rt":7706,"stimulus":"\n        <div class=\"response-container\">\n          <div class=\"response-instruction\">\n            <p>rotate the bar by using the left and right arrow keys.</p>\n            <p>when you are determined, press the Enter key.</p>\n          </div>\n          <div class=\"response-circle\">\n            <div class=\"response-fixation\"></div>\n            <div id=\"bar\" class=\"rotating-bar\"></div>\n          </div>\n        </div>\n      ","response":"Enter","trial_type":"html-keyboard-response","trial_index":56,"plugin_version":"2.1.0","time_elapsed":255639,"random_initial_angle":265,"response_angle_css":450,"response_angle_rdk":0,"angular_error_target":10,"angular_error_distractor":104,"target_direction":350,"target_group":"black","reward_points":8},{"rt":null,"stimulus":"\n          <p style=\"color: #00FF00;\">Your reward: 8 points</p>\n        ","response":null,"trial_type":"html-keyboard-response","trial_index":57,"plugin_version":"2.1.0","time_elapsed":257649},{"rt":null,"stimulus":"<div class=\"fixation\" style=\"font-size: 60px;\">+</div>","response":null,"trial_type":"html-keyboard-response","trial_index":58,"plugin_version":"2.1.0","time_elapsed":258652},{"target_group":"black","target_index":1,"condition_label":"practice","rt":-1,"response":"","correct":false,"choices":"ALL_KEYS","correct_choice":["a"],"trial_duration":2000,"flip_timestamps":[],"response_ends_trial":false,"number_of_apertures":2,"number_of_dots":[50,100],"number_of_sets":1,"coherent_direction":[79,226],"coherence":1,"opposite_coherence":0,"dot_radius":2,"dot_side_length":1,"dot_life":-1,"move_distance":1,"aperture_width":300,"aperture_height":300,"dot_color":["white","black"],"dot_shape":"circle","background_color":"#AAA","RDK_type":3,"aperture_type":2,"reinsert_type":2,"frame_rate":16.932773109243698,"frame_rate_array":[17,17,17,17,17,17,17,16,17,17,17,17,17,17,17,17,17,16,17,17,17,17,17,17,17,17,17,17,18,16,17,17,17,17,17,17,17,17,17,17,17,17,17,17,16,17,17,17,17,17,17,17,17,17,17,17,17,17,17,17,17,17,17,17,17,17,17,16,17,17,17,17,17,17,17,16,17,17,17,17,17,17,17,17,17,17,17,17,16,17,17,17,17,17,17,17,17,16,17,17,17,17,17,17,17,17,16,17,17,17,17,17,17,17,17,17,17,17,17],"number_of_frames":119,"aperture_center_x":683,"aperture_center_y":384,"fixation_cross":true,"fixation_cross_width":15,"fixation_cross_height":15,"fixation_cross_color":"#111","fixation_cross_thickness":1,"border":true,"border_thickness":2,"border_color":"transparent","canvas_width":1366,"canvas_height":768,"trial_type":"rdk","trial_index":59,"plugin_version":"2.0.0","time_elapsed":260676,"phase":"practice","target_direction":226,"distractor_direction":79},{"rt":5433,"stimulus":"\n        <div class=\"response-container\">\n          <div class=\"response-instruction\">\n            <p>rotate the bar by using the left and right arrow keys.</p>\n            <p>when you are determined, press the Enter key.</p>\n          </div>\n          <div class=\"response-circle\">\n            <div class=\"response-fixation\"></div>\n            <div id=\"bar\" class=\"rotating-bar\"></div>\n          </div>\n        </div>\n      ","response":"Enter","trial_type":"html-keyboard-response","trial_index":60,"plugin_version":"2.1.0","time_elapsed":266110,"random_initial_angle":66,"response_angle_css":228,"response_angle_rdk":222,"angular_error_target":-4,"angular_error_distractor":143,"target_direction":226,"target_group":"black","reward_points":9},{"rt":null,"stimulus":"\n          <p style=\"color: #00FF00;\">Your reward: 9 points</p>\n        ","response":null,"trial_type":"html-keyboard-response","trial_index":61,"plugin_version":"2.1.0","time_elapsed":268119},{"rt":null,"stimulus":"<div class=\"fixation\" style=\"font-size: 60px;\">+</div>","response":null,"trial_type":"html-keyboard-response","trial_index":62,"plugin_version":"2.1.0","time_elapsed":269122},{"target_group":"white","target_index":0,"condition_label":"practice","rt":-1,"response":"","correct":false,"choices":"ALL_KEYS","correct_choice":["a"],"trial_duration":2000,"flip_timestamps":[],"response_ends_trial":false,"number_of_apertures":2,"number_of_dots":[100,93],"number_of_sets":1,"coherent_direction":[14,180],"coherence":1,"opposite_coherence":0,"dot_radius":2,"dot_side_length":1,"dot_life":-1,"move_distance":1,"aperture_width":300,"aperture_height":300,"dot_color":["white","black"],"dot_shape":"circle","background_color":"#AAA","RDK_type":3,"aperture_type":2,"reinsert_type":2,"frame_rate":16.925,"frame_rate_array":[14,17,17,17,17,17,17,17,17,17,17,17,17,17,17,17,17,17,17,17,17,17,17,17,17,17,17,17,17,17,17,16,17,17,17,17,17,17,16,17,17,17,17,17,17,17,17,17,17,17,17,17,17,17,17,17,17,17,17,17,17,17,16,17,17,17,17,17,17,16,17,17,17,17,17,17,17,17,17,17,17,17,17,17,17,17,17,17,17,17,17,17,17,17,17,17,17,17,17,17,17,16,17,17,17,17,17,17,17,17,17,17,16,17,17,17,17,17,17,17],"number_of_frames":120,"aperture_center_x":683,"aperture_center_y":384,"fixation_cross":true,"fixation_cross_width":15,"fixation_cross_height":15,"fixation_cross_color":"#111","fixation_cross_thickness":1,"border":true,"border_thickness":2,"border_color":"transparent","canvas_width":1366,"canvas_height":768,"trial_type":"rdk","trial_index":63,"plugin_version":"2.0.0","time_elapsed":271131,"phase":"practice","target_direction":14,"distractor_direction":180},{"rt":3155,"stimulus":"\n        <div class=\"response-container\">\n          <div class=\"response-instruction\">\n            <p>rotate the bar by using the left and right arrow keys.</p>\n            <p>when you are determined, press the Enter key.</p>\n          </div>\n          <div class=\"response-circle\">\n            <div class=\"response-fixation\"></div>\n            <div id=\"bar\" class=\"rotating-bar\"></div>\n          </div>\n        </div>\n      ","response":"Enter","trial_type":"html-keyboard-response","trial_index":64,"plugin_version":"2.1.0","time_elapsed":274287,"random_initial_angle":96,"response_angle_css":64,"response_angle_rdk":26,"angular_error_target":12,"angular_error_distractor":-154,"target_direction":14,"target_group":"white","reward_points":7},{"rt":null,"stimulus":"\n          <p style=\"color: #00FF00;\">Your reward: 7 points</p>\n        ","response":null,"trial_type":"html-keyboard-response","trial_index":65,"plugin_version":"2.1.0","time_elapsed":276288},{"rt":3253,"stimulus":"\n        <div class=\"instructions-container\">\n          <h2>End of Practice</h2>\n          <p>You have completed the practice trials.</p>\n          <p>Press <strong>Enter</strong> key to begin the main experiment.</p>\n        </div>\n      ","response":"Enter","trial_type":"html-keyboard-response","trial_index":66,"plugin_version":"2.1.0","time_elapsed":279543},{"rt":null,"stimulus":"<div class=\"fixation\" style=\"font-size: 60px;\">+</div>","response":null,"trial_type":"html-keyboard-response","trial_index":67,"plugin_version":"2.1.0","time_elapsed":280546},{"phase":"learning-awareness","target_group":"black","condition_label":"B_H_vs_W_L_rep20","target_direction":204,"distractor_direction":295,"session_rotation":90,"rt":-1,"response":"","correct":false,"choices":"ALL_KEYS","correct_choice":["a"],"trial_duration":2000,"flip_timestamps":[],"response_ends_trial":false,"number_of_apertures":200,"number_of_dots":[1,1,1,1,1,1,1,1,1,1,1,1,1,1,1,1,1,1,1,1,1,1,1,1,1,1,1,1,1,1,1,1,1,1,1,1,1,1,1,1,1,1,1,1,1,1,1,1,1,1,1,1,1,1,1,1,1,1,1,1,1,1,1,1,1,1,1,1,1,1,1,1,1,1,1,1,1,1,1,1,1,1,1,1,1,1,1,1,1,1,1,1,1,1,1,1,1,1,1,1,1,1,1,1,1,1,1,1,1,1,1,1,1,1,1,1,1,1,1,1,1,1,1,1,1,1,1,1,1,1,1,1,1,1,1,1,1,1,1,1,1,1,1,1,1,1,1,1,1,1,1,1,1,1,1,1,1,1,1,1,1,1,1,1,1,1,1,1,1,1,1,1,1,1,1,1,1,1,1,1,1,1,1,1,1,1,1,1,1,1,1,1,1,1,1,1,1,1,1,1],"number_of_sets":1,"coherent_direction":[295,295,295,295,204,295,204,295,204,204,204,295,295,295,295,204,204,295,204,204,204,295,295,204,204,295,204,204,295,295,295,295,204,204,295,295,295,204,295,204,204,295,295,295,204,204,204,204,295,295,204,295,204,204,295,295,295,204,204,204,204,204,295,295,204,295,204,295,204,295,295,295,204,204,295,295,295,204,295,204,204,295,295,295,204,204,295,204,295,204,295,204,204,295,204,295,295,204,295,295,295,204,204,204,204,204,204,204,204,204,295,204,295,295,204,204,204,295,295,295,204,295,295,295,204,295,295,295,204,204,295,295,295,204,295,295,204,204,204,204,295,204,204,295,295,204,204,295,295,295,295,295,204,295,204,204,204,204,204,204,295,295,295,295,295,204,204,295,295,204,295,295,204,204,204,204,295,204,204,295,204,295,204,295,204,204,295,204,204,295,295,295,204,204,204,295,295,295,204,204],"coherence":1,"opposite_coherence":0,"dot_radius":2,"dot_side_length":1,"dot_life":-1,"move_distance":1,"aperture_width":300,"aperture_height":300,"dot_color":["white","white","white","white","black","white","black","white","black","black","black","white","white","white","white","black","black","white","black","black","black","white","white","black","black","white","black","black","white","white","white","white","black","black","white","white","white","black","white","black","black","white","white","white","black","black","black","black","white","white","black","white","black","black","white","white","white","black","black","black","black","black","white","white","black","white","black","white","black","white","white","white","black","black","white","white","white","black","white","black","black","white","white","white","black","black","white","black","white","black","white","black","black","white","black","white","white","black","white","white","white","black","black","black","black","black","black","black","black","black","white","black","white","white","black","black","black","white","white","white","black","white","white","white","black","white","white","white","black","black","white","white","white","black","white","white","black","black","black","black","white","black","black","white","white","black","black","white","white","white","white","white","black","white","black","black","black","black","black","black","white","white","white","white","white","black","black","white","white","black","white","white","black","black","black","black","white","black","black","white","black","white","black","white","black","black","white","black","black","white","white","white","black","black","black","white","white","white","black","black"],"dot_shape":"circle","background_color":"#AAA","RDK_type":3,"aperture_type":2,"reinsert_type":2,"frame_rate":16.84873949579832,"frame_rate_array":[12,17,17,16,17,17,17,16,17,17,17,17,17,17,17,17,17,17,17,17,17,17,16,17,16,16,16,17,17,17,17,17,17,17,17,17,17,17,16,17,17,17,17,17,17,17,17,17,17,17,17,17,17,17,17,17,16,17,17,17,17,17,17,16,17,17,17,17,17,16,17,17,17,17,17,17,17,17,17,17,17,17,17,17,17,16,17,17,17,17,17,17,17,17,17,17,17,17,17,17,16,17,17,16,17,17,17,17,17,17,17,17,17,17,17,17,17,17,17],"number_of_frames":119,"aperture_center_x":683,"aperture_center_y":384,"fixation_cross":true,"fixation_cross_width":15,"fixation_cross_height":15,"fixation_cross_color":"#111","fixation_cross_thickness":1,"border":true,"border_thickness":2,"border_color":"transparent","canvas_width":1366,"canvas_height":768,"trial_type":"rdk","trial_index":68,"plugin_version":"2.0.0","time_elapsed":282553},{"rt":4005,"stimulus":"\n        <div class=\"response-container\">\n          <div class=\"response-instruction\">\n            <p>rotate the bar by using the left and right arrow keys.</p>\n            <p>when you are determined, press the Enter key.</p>\n          </div>\n          <div class=\"response-circle\">\n            <div class=\"response-fixation\"></div>\n            <div id=\"bar\" class=\"rotating-bar\"></div>\n          </div>\n        </div>\n      ","response":"Enter","trial_type":"html-keyboard-response","trial_index":69,"plugin_version":"2.1.0","time_elapsed":286559,"random_initial_angle":237,"response_angle_css":132,"response_angle_rdk":318,"angular_error_target":114,"angular_error_distractor":23,"target_direction":204,"target_group":"black","reward_points":0},{"rt":null,"stimulus":"\n          <p style=\"color: #FF3333;\">Your reward: 0 points</p>\n        ","response":null,"trial_type":"html-keyboard-response","trial_index":70,"plugin_version":"2.1.0","time_elapsed":288574},{"rt":null,"stimulus":"<div class=\"fixation\" style=\"font-size: 60px;\">+</div>","response":null,"trial_type":"html-keyboard-response","trial_index":71,"plugin_version":"2.1.0","time_elapsed":289577},{"phase":"learning-awareness","target_group":"white","condition_label":"W_H_vs_B_L_rep24","target_direction":111,"distractor_direction":13,"session_rotation":90,"rt":-1,"response":"","correct":false,"choices":"ALL_KEYS","correct_choice":["a"],"trial_duration":2000,"flip_timestamps":[],"response_ends_trial":false,"number_of_apertures":200,"number_of_dots":[1,1,1,1,1,1,1,1,1,1,1,1,1,1,1,1,1,1,1,1,1,1,1,1,1,1,1,1,1,1,1,1,1,1,1,1,1,1,1,1,1,1,1,1,1,1,1,1,1,1,1,1,1,1,1,1,1,1,1,1,1,1,1,1,1,1,1,1,1,1,1,1,1,1,1,1,1,1,1,1,1,1,1,1,1,1,1,1,1,1,1,1,1,1,1,1,1,1,1,1,1,1,1,1,1,1,1,1,1,1,1,1,1,1,1,1,1,1,1,1,1,1,1,1,1,1,1,1,1,1,1,1,1,1,1,1,1,1,1,1,1,1,1,1,1,1,1,1,1,1,1,1,1,1,1,1,1,1,1,1,1,1,1,1,1,1,1,1,1,1,1,1,1,1,1,1,1,1,1,1,1,1,1,1,1,1,1,1,1,1,1,1,1,1,1,1,1,1,1,1],"number_of_sets":1,"coherent_direction":[111,111,111,111,111,111,13,13,111,13,13,111,13,13,13,13,13,13,13,13,13,13,111,111,111,111,111,13,111,13,13,13,13,111,111,13,13,13,111,111,111,13,111,111,111,111,111,13,111,111,111,111,13,111,111,111,111,13,111,111,111,13,13,111,13,111,13,111,111,111,111,111,111,111,13,111,13,13,111,13,111,111,111,111,13,13,111,13,13,13,111,111,13,13,13,111,111,13,111,111,13,13,111,13,111,111,13,111,111,13,111,111,111,111,111,13,13,13,13,13,13,13,13,111,111,111,13,111,111,111,111,13,13,111,13,13,13,13,111,111,13,111,111,13,13,111,13,13,13,111,111,13,111,111,13,111,111,111,13,111,13,111,111,111,13,111,13,13,13,13,111,13,111,13,13,13,111,13,13,13,13,13,13,13,13,13,111,111,13,13,111,13,111,13,13,111,13,13,13,13],"coherence":1,"opposite_coherence":0,"dot_radius":2,"dot_side_length":1,"dot_life":-1,"move_distance":1,"aperture_width":300,"aperture_height":300,"dot_color":["white","white","white","white","white","white","black","black","white","black","black","white","black","black","black","black","black","black","black","black","black","black","white","white","white","white","white","black","white","black","black","black","black","white","white","black","black","black","white","white","white","black","white","white","white","white","white","black","white","white","white","white","black","white","white","white","white","black","white","white","white","black","black","white","black","white","black","white","white","white","white","white","white","white","black","white","black","black","white","black","white","white","white","white","black","black","white","black","black","black","white","white","black","black","black","white","white","black","white","white","black","black","white","black","white","white","black","white","white","black","white","white","white","white","white","black","black","black","black","black","black","black","black","white","white","white","black","white","white","white","white","black","black","white","black","black","black","black","white","white","black","white","white","black","black","white","black","black","black","white","white","black","white","white","black","white","white","white","black","white","black","white","white","white","black","white","black","black","black","black","white","black","white","black","black","black","white","black","black","black","black","black","black","black","black","black","white","white","black","black","white","black","white","black","black","white","black","black","black","black"],"dot_shape":"circle","background_color":"#AAA","RDK_type":3,"aperture_type":2,"reinsert_type":2,"frame_rate":16.81512605042017,"frame_rate_array":[16,17,15,17,17,17,17,17,17,17,17,16,17,17,17,16,17,17,17,17,18,15,17,17,17,16,17,17,17,17,17,18,17,17,17,17,16,17,17,15,17,17,17,17,17,17,17,17,17,17,16,17,17,17,17,17,15,17,17,17,17,17,17,17,17,17,17,16,17,17,17,17,17,17,17,17,17,17,17,17,17,15,17,16,17,17,17,16,17,16,17,17,17,17,17,17,17,17,17,17,16,16,17,17,17,17,17,17,17,17,17,17,16,17,17,17,17,18,15],"number_of_frames":119,"aperture_center_x":683,"aperture_center_y":384,"fixation_cross":true,"fixation_cross_width":15,"fixation_cross_height":15,"fixation_cross_color":"#111","fixation_cross_thickness":1,"border":true,"border_thickness":2,"border_color":"transparent","canvas_width":1366,"canvas_height":768,"trial_type":"rdk","trial_index":72,"plugin_version":"2.0.0","time_elapsed":291584},{"rt":4358,"stimulus":"\n        <div class=\"response-container\">\n          <div class=\"response-instruction\">\n            <p>rotate the bar by using the left and right arrow keys.</p>\n            <p>when you are determined, press the Enter key.</p>\n          </div>\n          <div class=\"response-circle\">\n            <div class=\"response-fixation\"></div>\n            <div id=\"bar\" class=\"rotating-bar\"></div>\n          </div>\n        </div>\n      ","response":"Enter","trial_type":"html-keyboard-response","trial_index":73,"plugin_version":"2.1.0","time_elapsed":295943,"random_initial_angle":269,"response_angle_css":452,"response_angle_rdk":358,"angular_error_target":-113,"angular_error_distractor":-15,"target_direction":111,"target_group":"white","reward_points":0},{"rt":null,"stimulus":"\n          <p style=\"color: #FF3333;\">Your reward: 0 points</p>\n        ","response":null,"trial_type":"html-keyboard-response","trial_index":74,"plugin_version":"2.1.0","time_elapsed":297957},{"rt":null,"stimulus":"<div class=\"fixation\" style=\"font-size: 60px;\">+</div>","response":null,"trial_type":"html-keyboard-response","trial_index":75,"plugin_version":"2.1.0","time_elapsed":298960},{"phase":"learning-awareness","target_group":"black","condition_label":"B_H_vs_W_L_rep24","target_direction":189,"distractor_direction":289,"session_rotation":90,"rt":-1,"response":"","correct":false,"choices":"ALL_KEYS","correct_choice":["a"],"trial_duration":2000,"flip_timestamps":[],"response_ends_trial":false,"number_of_apertures":200,"number_of_dots":[1,1,1,1,1,1,1,1,1,1,1,1,1,1,1,1,1,1,1,1,1,1,1,1,1,1,1,1,1,1,1,1,1,1,1,1,1,1,1,1,1,1,1,1,1,1,1,1,1,1,1,1,1,1,1,1,1,1,1,1,1,1,1,1,1,1,1,1,1,1,1,1,1,1,1,1,1,1,1,1,1,1,1,1,1,1,1,1,1,1,1,1,1,1,1,1,1,1,1,1,1,1,1,1,1,1,1,1,1,1,1,1,1,1,1,1,1,1,1,1,1,1,1,1,1,1,1,1,1,1,1,1,1,1,1,1,1,1,1,1,1,1,1,1,1,1,1,1,1,1,1,1,1,1,1,1,1,1,1,1,1,1,1,1,1,1,1,1,1,1,1,1,1,1,1,1,1,1,1,1,1,1,1,1,1,1,1,1,1,1,1,1,1,1,1,1,1,1,1,1],"number_of_sets":1,"coherent_direction":[189,189,189,289,189,189,289,289,189,289,189,289,289,189,189,289,289,289,189,289,189,289,289,189,189,289,189,189,289,189,289,189,289,289,289,289,289,289,189,289,189,289,289,289,289,189,189,289,189,289,289,189,289,289,189,189,289,289,289,189,289,189,189,189,289,289,189,189,189,189,289,189,289,289,189,189,189,289,189,289,289,289,189,289,289,289,189,189,189,289,189,189,189,289,289,189,289,289,289,189,289,189,289,289,289,189,189,189,189,189,189,189,189,189,189,189,189,189,189,189,289,289,189,189,189,189,189,189,289,289,289,289,289,189,289,289,289,189,289,189,289,189,289,189,189,289,289,289,189,289,189,189,189,289,189,289,189,189,289,289,289,189,189,189,289,189,289,289,189,289,189,189,289,189,289,289,189,189,289,289,289,289,289,189,289,289,189,189,189,289,189,289,289,289,189,189,289,289,289,189],"coherence":1,"opposite_coherence":0,"dot_radius":2,"dot_side_length":1,"dot_life":-1,"move_distance":1,"aperture_width":300,"aperture_height":300,"dot_color":["black","black","black","white","black","black","white","white","black","white","black","white","white","black","black","white","white","white","black","white","black","white","white","black","black","white","black","black","white","black","white","black","white","white","white","white","white","white","black","white","black","white","white","white","white","black","black","white","black","white","white","black","white","white","black","black","white","white","white","black","white","black","black","black","white","white","black","black","black","black","white","black","white","white","black","black","black","white","black","white","white","white","black","white","white","white","black","black","black","white","black","black","black","white","white","black","white","white","white","black","white","black","white","white","white","black","black","black","black","black","black","black","black","black","black","black","black","black","black","black","white","white","black","black","black","black","black","black","white","white","white","white","white","black","white","white","white","black","white","black","white","black","white","black","black","white","white","white","black","white","black","black","black","white","black","white","black","black","white","white","white","black","black","black","white","black","white","white","black","white","black","black","white","black","white","white","black","black","white","white","white","white","white","black","white","white","black","black","black","white","black","white","white","white","black","black","white","white","white","black"],"dot_shape":"circle","background_color":"#AAA","RDK_type":3,"aperture_type":2,"reinsert_type":2,"frame_rate":16.858333333333334,"frame_rate_array":[12,15,16,17,17,17,17,17,17,17,17,17,16,17,17,17,17,17,17,17,17,17,16,17,17,17,17,17,17,17,18,16,16,16,17,17,17,17,17,17,17,17,17,17,17,17,17,17,17,17,16,17,17,16,17,17,17,17,17,17,17,17,17,17,17,17,17,17,17,17,17,17,17,17,17,17,17,17,17,17,17,17,17,17,16,17,17,17,17,17,16,17,17,17,17,17,17,17,17,17,17,17,17,17,17,17,17,17,17,17,17,17,17,17,17,16,17,17,17,17],"number_of_frames":120,"aperture_center_x":683,"aperture_center_y":384,"fixation_cross":true,"fixation_cross_width":15,"fixation_cross_height":15,"fixation_cross_color":"#111","fixation_cross_thickness":1,"border":true,"border_thickness":2,"border_color":"transparent","canvas_width":1366,"canvas_height":768,"trial_type":"rdk","trial_index":76,"plugin_version":"2.0.0","time_elapsed":300968},{"rt":4534,"stimulus":"\n        <div class=\"response-container\">\n          <div class=\"response-instruction\">\n            <p>rotate the bar by using the left and right arrow keys.</p>\n            <p>when you are determined, press the Enter key.</p>\n          </div>\n          <div class=\"response-circle\">\n            <div class=\"response-fixation\"></div>\n            <div id=\"bar\" class=\"rotating-bar\"></div>\n          </div>\n        </div>\n      ","response":"Enter","trial_type":"html-keyboard-response","trial_index":77,"plugin_version":"2.1.0","time_elapsed":305503,"random_initial_angle":105,"response_angle_css":-63,"response_angle_rdk":153,"angular_error_target":-36,"angular_error_distractor":-136,"target_direction":189,"target_group":"black","reward_points":2},{"rt":null,"stimulus":"\n          <p style=\"color: #FF3333;\">Your reward: 2 points</p>\n        ","response":null,"trial_type":"html-keyboard-response","trial_index":78,"plugin_version":"2.1.0","time_elapsed":307507},{"rt":null,"stimulus":"<div class=\"fixation\" style=\"font-size: 60px;\">+</div>","response":null,"trial_type":"html-keyboard-response","trial_index":79,"plugin_version":"2.1.0","time_elapsed":308510},{"phase":"learning-awareness","target_group":"white","condition_label":"W_H_vs_B_L_rep5","target_direction":111,"distractor_direction":0,"session_rotation":90,"rt":-1,"response":"","correct":false,"choices":"ALL_KEYS","correct_choice":["a"],"trial_duration":2000,"flip_timestamps":[],"response_ends_trial":false,"number_of_apertures":200,"number_of_dots":[1,1,1,1,1,1,1,1,1,1,1,1,1,1,1,1,1,1,1,1,1,1,1,1,1,1,1,1,1,1,1,1,1,1,1,1,1,1,1,1,1,1,1,1,1,1,1,1,1,1,1,1,1,1,1,1,1,1,1,1,1,1,1,1,1,1,1,1,1,1,1,1,1,1,1,1,1,1,1,1,1,1,1,1,1,1,1,1,1,1,1,1,1,1,1,1,1,1,1,1,1,1,1,1,1,1,1,1,1,1,1,1,1,1,1,1,1,1,1,1,1,1,1,1,1,1,1,1,1,1,1,1,1,1,1,1,1,1,1,1,1,1,1,1,1,1,1,1,1,1,1,1,1,1,1,1,1,1,1,1,1,1,1,1,1,1,1,1,1,1,1,1,1,1,1,1,1,1,1,1,1,1,1,1,1,1,1,1,1,1,1,1,1,1,1,1,1,1,1,1],"number_of_sets":1,"coherent_direction":[111,0,111,111,111,111,0,0,111,0,0,111,0,111,0,111,111,0,0,0,111,0,111,111,111,111,0,111,0,111,0,0,0,0,111,111,0,0,111,111,111,0,0,111,0,111,111,0,0,111,0,0,0,111,111,0,111,111,0,111,0,111,0,111,111,0,0,0,0,0,111,111,111,111,111,0,0,0,111,0,0,0,0,111,111,111,111,0,111,0,111,0,111,111,0,111,0,0,111,0,0,111,111,111,111,111,0,111,0,111,0,111,111,0,111,0,0,111,0,0,0,0,111,0,0,111,0,0,111,111,111,0,111,0,0,111,0,111,111,111,111,0,111,111,0,111,0,0,111,111,111,111,0,111,0,0,0,0,111,0,0,111,0,0,0,111,111,0,111,111,111,0,0,111,0,111,0,111,0,0,111,0,111,0,0,111,111,111,0,0,0,0,111,111,0,111,111,0,0,111],"coherence":1,"opposite_coherence":0,"dot_radius":2,"dot_side_length":1,"dot_life":-1,"move_distance":1,"aperture_width":300,"aperture_height":300,"dot_color":["white","black","white","white","white","white","black","black","white","black","black","white","black","white","black","white","white","black","black","black","white","black","white","white","white","white","black","white","black","white","black","black","black","black","white","white","black","black","white","white","white","black","black","white","black","white","white","black","black","white","black","black","black","white","white","black","white","white","black","white","black","white","black","white","white","black","black","black","black","black","white","white","white","white","white","black","black","black","white","black","black","black","black","white","white","white","white","black","white","black","white","black","white","white","black","white","black","black","white","black","black","white","white","white","white","white","black","white","black","white","black","white","white","black","white","black","black","white","black","black","black","black","white","black","black","white","black","black","white","white","white","black","white","black","black","white","black","white","white","white","white","black","white","white","black","white","black","black","white","white","white","white","black","white","black","black","black","black","white","black","black","white","black","black","black","white","white","black","white","white","white","black","black","white","black","white","black","white","black","black","white","black","white","black","black","white","white","white","black","black","black","black","white","white","black","white","white","black","black","white"],"dot_shape":"circle","background_color":"#AAA","RDK_type":3,"aperture_type":2,"reinsert_type":2,"frame_rate":16.84873949579832,"frame_rate_array":[11,17,17,17,17,17,17,16,17,16,17,17,17,17,17,17,17,17,17,16,16,17,17,17,17,16,17,17,17,17,17,17,17,17,17,17,17,17,17,17,16,17,17,17,17,17,17,17,17,17,16,17,17,17,17,17,17,17,17,17,17,17,17,17,17,16,17,17,17,17,17,16,17,17,17,17,17,17,17,17,17,17,17,17,17,16,17,17,17,17,17,17,17,17,17,17,17,17,17,17,17,17,16,17,17,17,17,17,17,17,17,17,17,17,17,17,17,17,16],"number_of_frames":119,"aperture_center_x":683,"aperture_center_y":384,"fixation_cross":true,"fixation_cross_width":15,"fixation_cross_height":15,"fixation_cross_color":"#111","fixation_cross_thickness":1,"border":true,"border_thickness":2,"border_color":"transparent","canvas_width":1366,"canvas_height":768,"trial_type":"rdk","trial_index":80,"plugin_version":"2.0.0","time_elapsed":310518},{"rt":3272,"stimulus":"\n        <div class=\"response-container\">\n          <div class=\"response-instruction\">\n            <p>rotate the bar by using the left and right arrow keys.</p>\n            <p>when you are determined, press the Enter key.</p>\n          </div>\n          <div class=\"response-circle\">\n            <div class=\"response-fixation\"></div>\n            <div id=\"bar\" class=\"rotating-bar\"></div>\n          </div>\n        </div>\n      ","response":"Enter","trial_type":"html-keyboard-response","trial_index":81,"plugin_version":"2.1.0","time_elapsed":313791,"random_initial_angle":187,"response_angle_css":294,"response_angle_rdk":156,"angular_error_target":45,"angular_error_distractor":156,"target_direction":111,"target_group":"white","reward_points":0},{"rt":null,"stimulus":"\n          <p style=\"color: #FF3333;\">Your reward: 0 points</p>\n        ","response":null,"trial_type":"html-keyboard-response","trial_index":82,"plugin_version":"2.1.0","time_elapsed":315803},{"rt":null,"stimulus":"<div class=\"fixation\" style=\"font-size: 60px;\">+</div>","response":null,"trial_type":"html-keyboard-response","trial_index":83,"plugin_version":"2.1.0","time_elapsed":316806},{"phase":"learning-awareness","target_group":"white","condition_label":"W_H_vs_B_L_rep8","target_direction":122,"distractor_direction":10,"session_rotation":90,"rt":-1,"response":"","correct":false,"choices":"ALL_KEYS","correct_choice":["a"],"trial_duration":2000,"flip_timestamps":[],"response_ends_trial":false,"number_of_apertures":200,"number_of_dots":[1,1,1,1,1,1,1,1,1,1,1,1,1,1,1,1,1,1,1,1,1,1,1,1,1,1,1,1,1,1,1,1,1,1,1,1,1,1,1,1,1,1,1,1,1,1,1,1,1,1,1,1,1,1,1,1,1,1,1,1,1,1,1,1,1,1,1,1,1,1,1,1,1,1,1,1,1,1,1,1,1,1,1,1,1,1,1,1,1,1,1,1,1,1,1,1,1,1,1,1,1,1,1,1,1,1,1,1,1,1,1,1,1,1,1,1,1,1,1,1,1,1,1,1,1,1,1,1,1,1,1,1,1,1,1,1,1,1,1,1,1,1,1,1,1,1,1,1,1,1,1,1,1,1,1,1,1,1,1,1,1,1,1,1,1,1,1,1,1,1,1,1,1,1,1,1,1,1,1,1,1,1,1,1,1,1,1,1,1,1,1,1,1,1,1,1,1,1,1,1],"number_of_sets":1,"coherent_direction":[10,10,10,122,122,122,10,10,122,122,10,122,122,122,10,122,10,10,122,10,122,122,10,122,122,122,10,10,122,122,10,10,122,10,122,122,10,10,122,122,10,122,122,10,10,122,10,10,10,122,122,122,122,122,10,122,10,122,10,10,122,122,10,10,10,10,122,122,122,10,122,10,10,10,10,10,122,10,10,122,10,122,10,10,122,10,10,122,122,122,122,10,10,122,10,122,10,122,122,10,122,122,10,10,10,10,10,10,122,122,10,122,10,10,10,10,10,10,122,10,10,122,122,10,122,10,10,10,122,10,122,122,10,122,10,10,122,122,10,10,10,10,122,10,10,122,122,122,122,10,122,10,122,122,122,10,122,122,10,122,122,10,10,122,122,10,122,10,10,122,122,122,122,10,122,10,122,122,122,10,122,10,10,122,122,122,10,10,122,122,10,10,10,10,122,122,122,122,10,122],"coherence":1,"opposite_coherence":0,"dot_radius":2,"dot_side_length":1,"dot_life":-1,"move_distance":1,"aperture_width":300,"aperture_height":300,"dot_color":["black","black","black","white","white","white","black","black","white","white","black","white","white","white","black","white","black","black","white","black","white","white","black","white","white","white","black","black","white","white","black","black","white","black","white","white","black","black","white","white","black","white","white","black","black","white","black","black","black","white","white","white","white","white","black","white","black","white","black","black","white","white","black","black","black","black","white","white","white","black","white","black","black","black","black","black","white","black","black","white","black","white","black","black","white","black","black","white","white","white","white","black","black","white","black","white","black","white","white","black","white","white","black","black","black","black","black","black","white","white","black","white","black","black","black","black","black","black","white","black","black","white","white","black","white","black","black","black","white","black","white","white","black","white","black","black","white","white","black","black","black","black","white","black","black","white","white","white","white","black","white","black","white","white","white","black","white","white","black","white","white","black","black","white","white","black","white","black","black","white","white","white","white","black","white","black","white","white","white","black","white","black","black","white","white","white","black","black","white","white","black","black","black","black","white","white","white","white","black","white"],"dot_shape":"circle","background_color":"#AAA","RDK_type":3,"aperture_type":2,"reinsert_type":2,"frame_rate":16.84873949579832,"frame_rate_array":[12,16,17,17,17,17,16,17,17,16,17,17,17,17,17,17,17,17,16,17,17,17,16,17,17,17,17,16,17,17,17,16,17,17,17,17,17,17,17,17,16,17,17,17,17,17,17,17,17,17,17,17,17,17,17,17,17,17,17,17,17,17,16,17,17,17,17,17,17,17,17,16,17,17,17,17,17,17,17,17,17,17,17,17,17,17,17,17,17,16,17,17,17,17,17,17,17,17,17,17,17,17,16,17,17,17,17,17,17,16,17,17,17,17,17,17,17,17,17],"number_of_frames":119,"aperture_center_x":683,"aperture_center_y":384,"fixation_cross":true,"fixation_cross_width":15,"fixation_cross_height":15,"fixation_cross_color":"#111","fixation_cross_thickness":1,"border":true,"border_thickness":2,"border_color":"transparent","canvas_width":1366,"canvas_height":768,"trial_type":"rdk","trial_index":84,"plugin_version":"2.0.0","time_elapsed":318813},{"rt":6417,"stimulus":"\n        <div class=\"response-container\">\n          <div class=\"response-instruction\">\n            <p>rotate the bar by using the left and right arrow keys.</p>\n            <p>when you are determined, press the Enter key.</p>\n          </div>\n          <div class=\"response-circle\">\n            <div class=\"response-fixation\"></div>\n            <div id=\"bar\" class=\"rotating-bar\"></div>\n          </div>\n        </div>\n      ","response":"Enter","trial_type":"html-keyboard-response","trial_index":85,"plugin_version":"2.1.0","time_elapsed":325231,"random_initial_angle":181,"response_angle_css":442,"response_angle_rdk":8,"angular_error_target":-114,"angular_error_distractor":-2,"target_direction":122,"target_group":"white","reward_points":0},{"rt":null,"stimulus":"\n          <p style=\"color: #FF3333;\">Your reward: 0 points</p>\n        ","response":null,"trial_type":"html-keyboard-response","trial_index":86,"plugin_version":"2.1.0","time_elapsed":327243},{"rt":null,"stimulus":"<div class=\"fixation\" style=\"font-size: 60px;\">+</div>","response":null,"trial_type":"html-keyboard-response","trial_index":87,"plugin_version":"2.1.0","time_elapsed":328247},{"phase":"learning-awareness","target_group":"white","condition_label":"W_H_vs_B_L_rep12","target_direction":126,"distractor_direction":32,"session_rotation":90,"rt":-1,"response":"","correct":false,"choices":"ALL_KEYS","correct_choice":["a"],"trial_duration":2000,"flip_timestamps":[],"response_ends_trial":false,"number_of_apertures":200,"number_of_dots":[1,1,1,1,1,1,1,1,1,1,1,1,1,1,1,1,1,1,1,1,1,1,1,1,1,1,1,1,1,1,1,1,1,1,1,1,1,1,1,1,1,1,1,1,1,1,1,1,1,1,1,1,1,1,1,1,1,1,1,1,1,1,1,1,1,1,1,1,1,1,1,1,1,1,1,1,1,1,1,1,1,1,1,1,1,1,1,1,1,1,1,1,1,1,1,1,1,1,1,1,1,1,1,1,1,1,1,1,1,1,1,1,1,1,1,1,1,1,1,1,1,1,1,1,1,1,1,1,1,1,1,1,1,1,1,1,1,1,1,1,1,1,1,1,1,1,1,1,1,1,1,1,1,1,1,1,1,1,1,1,1,1,1,1,1,1,1,1,1,1,1,1,1,1,1,1,1,1,1,1,1,1,1,1,1,1,1,1,1,1,1,1,1,1,1,1,1,1,1,1],"number_of_sets":1,"coherent_direction":[126,126,126,32,126,126,126,126,32,126,32,126,32,32,126,32,32,126,32,126,32,32,32,126,126,126,126,32,126,32,32,32,126,32,32,32,32,32,32,32,126,126,126,32,32,32,126,126,126,32,126,32,32,32,126,32,126,32,126,126,32,126,32,126,126,126,126,126,32,126,126,32,126,32,32,126,126,126,126,32,32,32,32,126,32,126,32,126,126,126,32,126,126,126,126,32,32,32,126,32,32,32,32,126,32,32,126,126,126,32,126,126,32,126,32,32,126,126,32,126,126,32,126,126,32,126,126,126,32,32,126,126,32,32,126,126,32,32,32,126,126,32,126,32,32,32,32,32,32,32,32,32,126,126,32,126,126,32,126,32,32,126,32,32,32,32,32,126,126,126,126,32,126,126,126,126,126,126,32,32,32,126,32,32,126,126,126,32,32,126,32,32,126,32,126,126,32,126,32,32],"coherence":1,"opposite_coherence":0,"dot_radius":2,"dot_side_length":1,"dot_life":-1,"move_distance":1,"aperture_width":300,"aperture_height":300,"dot_color":["white","white","white","black","white","white","white","white","black","white","black","white","black","black","white","black","black","white","black","white","black","black","black","white","white","white","white","black","white","black","black","black","white","black","black","black","black","black","black","black","white","white","white","black","black","black","white","white","white","black","white","black","black","black","white","black","white","black","white","white","black","white","black","white","white","white","white","white","black","white","white","black","white","black","black","white","white","white","white","black","black","black","black","white","black","white","black","white","white","white","black","white","white","white","white","black","black","black","white","black","black","black","black","white","black","black","white","white","white","black","white","white","black","white","black","black","white","white","black","white","white","black","white","white","black","white","white","white","black","black","white","white","black","black","white","white","black","black","black","white","white","black","white","black","black","black","black","black","black","black","black","black","white","white","black","white","white","black","white","black","black","white","black","black","black","black","black","white","white","white","white","black","white","white","white","white","white","white","black","black","black","white","black","black","white","white","white","black","black","white","black","black","white","black","white","white","black","white","black","black"],"dot_shape":"circle","background_color":"#AAA","RDK_type":3,"aperture_type":2,"reinsert_type":2,"frame_rate":16.916666666666668,"frame_rate_array":[12,17,17,17,17,16,17,17,17,17,17,17,17,17,17,17,17,16,17,17,17,17,17,17,17,17,17,17,17,17,17,17,17,17,17,17,17,17,16,17,17,17,17,17,17,17,17,17,17,17,17,17,17,17,17,17,17,17,17,17,17,17,17,17,17,17,17,17,17,16,17,17,17,17,17,17,17,17,17,17,17,17,17,17,17,17,17,17,17,17,17,17,17,17,17,17,17,17,17,16,17,17,17,17,17,17,17,17,17,17,17,17,17,17,17,17,17,17,17,17],"number_of_frames":120,"aperture_center_x":683,"aperture_center_y":384,"fixation_cross":true,"fixation_cross_width":15,"fixation_cross_height":15,"fixation_cross_color":"#111","fixation_cross_thickness":1,"border":true,"border_thickness":2,"border_color":"transparent","canvas_width":1366,"canvas_height":768,"trial_type":"rdk","trial_index":88,"plugin_version":"2.0.0","time_elapsed":330255},{"rt":4512,"stimulus":"\n        <div class=\"response-container\">\n          <div class=\"response-instruction\">\n            <p>rotate the bar by using the left and right arrow keys.</p>\n            <p>when you are determined, press the Enter key.</p>\n          </div>\n          <div class=\"response-circle\">\n            <div class=\"response-fixation\"></div>\n            <div id=\"bar\" class=\"rotating-bar\"></div>\n          </div>\n        </div>\n      ","response":"Enter","trial_type":"html-keyboard-response","trial_index":89,"plugin_version":"2.1.0","time_elapsed":334767,"random_initial_angle":251,"response_angle_css":439,"response_angle_rdk":11,"angular_error_target":-115,"angular_error_distractor":-21,"target_direction":126,"target_group":"white","reward_points":0},{"rt":null,"stimulus":"\n          <p style=\"color: #FF3333;\">Your reward: 0 points</p>\n        ","response":null,"trial_type":"html-keyboard-response","trial_index":90,"plugin_version":"2.1.0","time_elapsed":336776},{"rt":null,"stimulus":"<div class=\"fixation\" style=\"font-size: 60px;\">+</div>","response":null,"trial_type":"html-keyboard-response","trial_index":91,"plugin_version":"2.1.0","time_elapsed":337779},{"phase":"learning-awareness","target_group":"white","condition_label":"W_H_vs_B_L_rep21","target_direction":120,"distractor_direction":29,"session_rotation":90,"rt":-1,"response":"","correct":false,"choices":"ALL_KEYS","correct_choice":["a"],"trial_duration":2000,"flip_timestamps":[],"response_ends_trial":false,"number_of_apertures":200,"number_of_dots":[1,1,1,1,1,1,1,1,1,1,1,1,1,1,1,1,1,1,1,1,1,1,1,1,1,1,1,1,1,1,1,1,1,1,1,1,1,1,1,1,1,1,1,1,1,1,1,1,1,1,1,1,1,1,1,1,1,1,1,1,1,1,1,1,1,1,1,1,1,1,1,1,1,1,1,1,1,1,1,1,1,1,1,1,1,1,1,1,1,1,1,1,1,1,1,1,1,1,1,1,1,1,1,1,1,1,1,1,1,1,1,1,1,1,1,1,1,1,1,1,1,1,1,1,1,1,1,1,1,1,1,1,1,1,1,1,1,1,1,1,1,1,1,1,1,1,1,1,1,1,1,1,1,1,1,1,1,1,1,1,1,1,1,1,1,1,1,1,1,1,1,1,1,1,1,1,1,1,1,1,1,1,1,1,1,1,1,1,1,1,1,1,1,1,1,1,1,1,1,1],"number_of_sets":1,"coherent_direction":[120,120,120,120,29,29,29,120,29,29,29,120,29,29,29,120,29,120,29,120,120,29,29,120,29,29,120,120,29,120,29,120,29,120,120,29,120,29,120,29,120,29,29,120,29,29,120,120,120,29,29,120,120,29,120,120,29,29,120,120,29,120,120,120,29,29,29,120,29,29,29,120,120,120,120,29,120,120,120,29,120,29,29,29,29,120,120,120,29,120,29,120,29,29,120,120,120,29,29,120,120,29,29,120,120,120,120,120,29,120,120,29,120,29,29,29,29,29,29,29,29,120,29,29,120,29,120,29,29,120,120,29,29,120,120,29,29,120,120,120,29,120,29,120,120,29,29,29,29,120,120,120,120,120,29,120,120,29,29,29,120,120,120,29,120,120,29,120,29,29,29,29,120,29,29,29,120,120,120,120,120,29,120,120,29,29,120,120,29,29,29,120,120,29,29,120,29,29,120,29],"coherence":1,"opposite_coherence":0,"dot_radius":2,"dot_side_length":1,"dot_life":-1,"move_distance":1,"aperture_width":300,"aperture_height":300,"dot_color":["white","white","white","white","black","black","black","white","black","black","black","white","black","black","black","white","black","white","black","white","white","black","black","white","black","black","white","white","black","white","black","white","black","white","white","black","white","black","white","black","white","black","black","white","black","black","white","white","white","black","black","white","white","black","white","white","black","black","white","white","black","white","white","white","black","black","black","white","black","black","black","white","white","white","white","black","white","white","white","black","white","black","black","black","black","white","white","white","black","white","black","white","black","black","white","white","white","black","black","white","white","black","black","white","white","white","white","white","black","white","white","black","white","black","black","black","black","black","black","black","black","white","black","black","white","black","white","black","black","white","white","black","black","white","white","black","black","white","white","white","black","white","black","white","white","black","black","black","black","white","white","white","white","white","black","white","white","black","black","black","white","white","white","black","white","white","black","white","black","black","black","black","white","black","black","black","white","white","white","white","white","black","white","white","black","black","white","white","black","black","black","white","white","black","black","white","black","black","white","black"],"dot_shape":"circle","background_color":"#AAA","RDK_type":3,"aperture_type":2,"reinsert_type":2,"frame_rate":16.899159663865547,"frame_rate_array":[17,16,17,16,16,17,17,17,17,17,17,17,17,17,17,17,17,17,17,17,17,17,17,17,17,16,17,17,17,17,17,17,17,17,17,17,17,17,17,17,17,17,17,17,17,16,17,17,17,17,17,16,17,17,17,17,16,17,17,17,17,17,17,17,17,17,17,17,17,17,17,17,17,17,16,17,17,17,17,17,17,17,17,17,17,17,17,16,17,17,17,17,17,17,17,17,17,17,17,17,17,17,17,17,17,17,16,17,17,17,17,17,17,17,17,17,17,16,16],"number_of_frames":119,"aperture_center_x":683,"aperture_center_y":384,"fixation_cross":true,"fixation_cross_width":15,"fixation_cross_height":15,"fixation_cross_color":"#111","fixation_cross_thickness":1,"border":true,"border_thickness":2,"border_color":"transparent","canvas_width":1366,"canvas_height":768,"trial_type":"rdk","trial_index":92,"plugin_version":"2.0.0","time_elapsed":339804},{"rt":4642,"stimulus":"\n        <div class=\"response-container\">\n          <div class=\"response-instruction\">\n            <p>rotate the bar by using the left and right arrow keys.</p>\n            <p>when you are determined, press the Enter key.</p>\n          </div>\n          <div class=\"response-circle\">\n            <div class=\"response-fixation\"></div>\n            <div id=\"bar\" class=\"rotating-bar\"></div>\n          </div>\n        </div>\n      ","response":"Enter","trial_type":"html-keyboard-response","trial_index":93,"plugin_version":"2.1.0","time_elapsed":344446,"random_initial_angle":246,"response_angle_css":306,"response_angle_rdk":144,"angular_error_target":24,"angular_error_distractor":115,"target_direction":120,"target_group":"white","reward_points":5},{"rt":null,"stimulus":"\n          <p style=\"color: #00FF00;\">Your reward: 5 points</p>\n        ","response":null,"trial_type":"html-keyboard-response","trial_index":94,"plugin_version":"2.1.0","time_elapsed":346460},{"rt":null,"stimulus":"<div class=\"fixation\" style=\"font-size: 60px;\">+</div>","response":null,"trial_type":"html-keyboard-response","trial_index":95,"plugin_version":"2.1.0","time_elapsed":347464},{"phase":"learning-awareness","target_group":"black","condition_label":"B_H_vs_W_L_rep16","target_direction":193,"distractor_direction":301,"session_rotation":90,"rt":-1,"response":"","correct":false,"choices":"ALL_KEYS","correct_choice":["a"],"trial_duration":2000,"flip_timestamps":[],"response_ends_trial":false,"number_of_apertures":200,"number_of_dots":[1,1,1,1,1,1,1,1,1,1,1,1,1,1,1,1,1,1,1,1,1,1,1,1,1,1,1,1,1,1,1,1,1,1,1,1,1,1,1,1,1,1,1,1,1,1,1,1,1,1,1,1,1,1,1,1,1,1,1,1,1,1,1,1,1,1,1,1,1,1,1,1,1,1,1,1,1,1,1,1,1,1,1,1,1,1,1,1,1,1,1,1,1,1,1,1,1,1,1,1,1,1,1,1,1,1,1,1,1,1,1,1,1,1,1,1,1,1,1,1,1,1,1,1,1,1,1,1,1,1,1,1,1,1,1,1,1,1,1,1,1,1,1,1,1,1,1,1,1,1,1,1,1,1,1,1,1,1,1,1,1,1,1,1,1,1,1,1,1,1,1,1,1,1,1,1,1,1,1,1,1,1,1,1,1,1,1,1,1,1,1,1,1,1,1,1,1,1,1,1],"number_of_sets":1,"coherent_direction":[193,193,301,301,301,301,301,193,193,301,193,193,193,193,193,301,193,301,193,193,301,193,301,193,193,301,301,301,193,193,301,193,301,301,301,193,301,193,301,301,301,301,301,301,193,193,301,301,193,301,301,301,301,193,193,301,193,193,193,301,193,193,301,301,301,301,301,301,301,301,193,193,193,193,301,301,301,193,301,301,193,193,301,193,193,301,193,193,301,193,301,193,301,301,193,193,193,301,301,301,301,193,193,301,193,193,193,301,193,301,193,301,193,301,193,193,193,301,301,301,193,193,193,193,301,301,301,301,301,301,301,301,193,193,193,193,301,301,193,193,193,193,193,301,193,193,193,301,193,193,301,193,193,301,193,193,193,301,301,193,301,193,301,193,193,193,301,193,193,301,301,301,301,301,193,301,301,193,193,193,193,301,301,193,301,193,301,301,301,301,301,301,193,193,301,193,301,193,193,193],"coherence":1,"opposite_coherence":0,"dot_radius":2,"dot_side_length":1,"dot_life":-1,"move_distance":1,"aperture_width":300,"aperture_height":300,"dot_color":["black","black","white","white","white","white","white","black","black","white","black","black","black","black","black","white","black","white","black","black","white","black","white","black","black","white","white","white","black","black","white","black","white","white","white","black","white","black","white","white","white","white","white","white","black","black","white","white","black","white","white","white","white","black","black","white","black","black","black","white","black","black","white","white","white","white","white","white","white","white","black","black","black","black","white","white","white","black","white","white","black","black","white","black","black","white","black","black","white","black","white","black","white","white","black","black","black","white","white","white","white","black","black","white","black","black","black","white","black","white","black","white","black","white","black","black","black","white","white","white","black","black","black","black","white","white","white","white","white","white","white","white","black","black","black","black","white","white","black","black","black","black","black","white","black","black","black","white","black","black","white","black","black","white","black","black","black","white","white","black","white","black","white","black","black","black","white","black","black","white","white","white","white","white","black","white","white","black","black","black","black","white","white","black","white","black","white","white","white","white","white","white","black","black","white","black","white","black","black","black"],"dot_shape":"circle","background_color":"#AAA","RDK_type":3,"aperture_type":2,"reinsert_type":2,"frame_rate":16.915966386554622,"frame_rate_array":[12,17,17,17,17,16,17,17,17,17,17,17,17,17,17,17,17,16,17,17,17,17,17,17,17,17,17,17,17,17,17,17,17,17,17,17,16,17,17,17,17,17,17,17,17,17,17,17,17,17,17,17,17,17,17,17,17,17,17,17,17,17,17,17,17,17,17,16,17,17,17,17,17,17,17,17,17,17,17,17,17,17,17,17,17,17,17,17,17,17,17,17,17,17,17,17,17,17,16,17,17,17,17,17,17,17,17,17,17,17,17,17,17,17,17,17,17,17,17],"number_of_frames":119,"aperture_center_x":683,"aperture_center_y":384,"fixation_cross":true,"fixation_cross_width":15,"fixation_cross_height":15,"fixation_cross_color":"#111","fixation_cross_thickness":1,"border":true,"border_thickness":2,"border_color":"transparent","canvas_width":1366,"canvas_height":768,"trial_type":"rdk","trial_index":96,"plugin_version":"2.0.0","time_elapsed":349471},{"rt":1255,"stimulus":"\n        <div class=\"response-container\">\n          <div class=\"response-instruction\">\n            <p>rotate the bar by using the left and right arrow keys.</p>\n            <p>when you are determined, press the Enter key.</p>\n          </div>\n          <div class=\"response-circle\">\n            <div class=\"response-fixation\"></div>\n            <div id=\"bar\" class=\"rotating-bar\"></div>\n          </div>\n        </div>\n      ","response":"Enter","trial_type":"html-keyboard-response","trial_index":97,"plugin_version":"2.1.0","time_elapsed":350726,"random_initial_angle":272,"response_angle_css":272,"response_angle_rdk":178,"angular_error_target":-15,"angular_error_distractor":-123,"target_direction":193,"target_group":"black","reward_points":7},{"rt":null,"stimulus":"\n          <p style=\"color: #00FF00;\">Your reward: 7 points</p>\n        ","response":null,"trial_type":"html-keyboard-response","trial_index":98,"plugin_version":"2.1.0","time_elapsed":352733},{"rt":null,"stimulus":"<div class=\"fixation\" style=\"font-size: 60px;\">+</div>","response":null,"trial_type":"html-keyboard-response","trial_index":99,"plugin_version":"2.1.0","time_elapsed":353736},{"phase":"learning-awareness","target_group":"black","condition_label":"B_H_vs_W_L_rep23","target_direction":188,"distractor_direction":286,"session_rotation":90,"rt":-1,"response":"","correct":false,"choices":"ALL_KEYS","correct_choice":["a"],"trial_duration":2000,"flip_timestamps":[],"response_ends_trial":false,"number_of_apertures":200,"number_of_dots":[1,1,1,1,1,1,1,1,1,1,1,1,1,1,1,1,1,1,1,1,1,1,1,1,1,1,1,1,1,1,1,1,1,1,1,1,1,1,1,1,1,1,1,1,1,1,1,1,1,1,1,1,1,1,1,1,1,1,1,1,1,1,1,1,1,1,1,1,1,1,1,1,1,1,1,1,1,1,1,1,1,1,1,1,1,1,1,1,1,1,1,1,1,1,1,1,1,1,1,1,1,1,1,1,1,1,1,1,1,1,1,1,1,1,1,1,1,1,1,1,1,1,1,1,1,1,1,1,1,1,1,1,1,1,1,1,1,1,1,1,1,1,1,1,1,1,1,1,1,1,1,1,1,1,1,1,1,1,1,1,1,1,1,1,1,1,1,1,1,1,1,1,1,1,1,1,1,1,1,1,1,1,1,1,1,1,1,1,1,1,1,1,1,1,1,1,1,1,1,1],"number_of_sets":1,"coherent_direction":[286,286,188,188,286,188,286,286,286,286,286,188,286,286,188,286,188,188,286,188,188,286,286,286,188,286,188,286,286,188,286,188,286,188,286,286,286,188,286,188,286,188,286,188,286,188,286,286,188,188,286,286,286,286,188,188,188,188,188,188,188,286,286,286,188,188,286,286,286,188,188,286,188,188,286,188,188,286,188,286,188,286,286,188,188,188,188,286,286,286,188,188,286,286,188,188,286,286,188,286,286,188,286,286,286,286,188,286,286,188,286,286,188,188,286,286,286,286,286,188,286,188,286,188,188,286,286,188,286,188,286,188,286,188,188,188,286,188,286,286,286,286,188,286,188,188,188,286,286,286,188,188,188,188,188,188,188,188,286,286,188,286,286,188,286,286,188,188,188,286,286,188,188,188,188,286,286,286,188,188,286,188,188,188,188,188,286,188,286,188,188,188,286,188,188,188,188,286,188,286],"coherence":1,"opposite_coherence":0,"dot_radius":2,"dot_side_length":1,"dot_life":-1,"move_distance":1,"aperture_width":300,"aperture_height":300,"dot_color":["white","white","black","black","white","black","white","white","white","white","white","black","white","white","black","white","black","black","white","black","black","white","white","white","black","white","black","white","white","black","white","black","white","black","white","white","white","black","white","black","white","black","white","black","white","black","white","white","black","black","white","white","white","white","black","black","black","black","black","black","black","white","white","white","black","black","white","white","white","black","black","white","black","black","white","black","black","white","black","white","black","white","white","black","black","black","black","white","white","white","black","black","white","white","black","black","white","white","black","white","white","black","white","white","white","white","black","white","white","black","white","white","black","black","white","white","white","white","white","black","white","black","white","black","black","white","white","black","white","black","white","black","white","black","black","black","white","black","white","white","white","white","black","white","black","black","black","white","white","white","black","black","black","black","black","black","black","black","white","white","black","white","white","black","white","white","black","black","black","white","white","black","black","black","black","white","white","white","black","black","white","black","black","black","black","black","white","black","white","black","black","black","white","black","black","black","black","white","black","white"],"dot_shape":"circle","background_color":"#AAA","RDK_type":3,"aperture_type":2,"reinsert_type":2,"frame_rate":16.907563025210084,"frame_rate_array":[12,17,16,17,17,17,17,17,17,17,17,16,17,17,17,17,17,17,17,17,17,17,17,17,17,17,17,17,17,17,17,17,17,16,17,17,17,17,17,17,17,17,17,17,17,17,17,17,17,17,17,17,17,17,17,17,17,17,17,17,17,17,17,16,16,17,17,17,17,17,17,17,17,17,17,17,17,17,17,17,17,17,17,17,17,17,17,17,17,17,17,17,17,17,17,16,17,17,17,17,17,17,17,17,17,17,17,17,17,17,17,17,17,17,17,17,17,17,17],"number_of_frames":119,"aperture_center_x":683,"aperture_center_y":384,"fixation_cross":true,"fixation_cross_width":15,"fixation_cross_height":15,"fixation_cross_color":"#111","fixation_cross_thickness":1,"border":true,"border_thickness":2,"border_color":"transparent","canvas_width":1366,"canvas_height":768,"trial_type":"rdk","trial_index":100,"plugin_version":"2.0.0","time_elapsed":355743},{"rt":3255,"stimulus":"\n        <div class=\"response-container\">\n          <div class=\"response-instruction\">\n            <p>rotate the bar by using the left and right arrow keys.</p>\n            <p>when you are determined, press the Enter key.</p>\n          </div>\n          <div class=\"response-circle\">\n            <div class=\"response-fixation\"></div>\n            <div id=\"bar\" class=\"rotating-bar\"></div>\n          </div>\n        </div>\n      ","response":"Enter","trial_type":"html-keyboard-response","trial_index":101,"plugin_version":"2.1.0","time_elapsed":358999,"random_initial_angle":302,"response_angle_css":264,"response_angle_rdk":186,"angular_error_target":-2,"angular_error_distractor":-100,"target_direction":188,"target_group":"black","reward_points":9},{"rt":null,"stimulus":"\n          <p style=\"color: #00FF00;\">Your reward: 9 points</p>\n        ","response":null,"trial_type":"html-keyboard-response","trial_index":102,"plugin_version":"2.1.0","time_elapsed":361012},{"rt":null,"stimulus":"<div class=\"fixation\" style=\"font-size: 60px;\">+</div>","response":null,"trial_type":"html-keyboard-response","trial_index":103,"plugin_version":"2.1.0","time_elapsed":362015},{"phase":"learning-awareness","target_group":"black","condition_label":"B_H_vs_W_L_rep18","target_direction":196,"distractor_direction":303,"session_rotation":90,"rt":-1,"response":"","correct":false,"choices":"ALL_KEYS","correct_choice":["a"],"trial_duration":2000,"flip_timestamps":[],"response_ends_trial":false,"number_of_apertures":200,"number_of_dots":[1,1,1,1,1,1,1,1,1,1,1,1,1,1,1,1,1,1,1,1,1,1,1,1,1,1,1,1,1,1,1,1,1,1,1,1,1,1,1,1,1,1,1,1,1,1,1,1,1,1,1,1,1,1,1,1,1,1,1,1,1,1,1,1,1,1,1,1,1,1,1,1,1,1,1,1,1,1,1,1,1,1,1,1,1,1,1,1,1,1,1,1,1,1,1,1,1,1,1,1,1,1,1,1,1,1,1,1,1,1,1,1,1,1,1,1,1,1,1,1,1,1,1,1,1,1,1,1,1,1,1,1,1,1,1,1,1,1,1,1,1,1,1,1,1,1,1,1,1,1,1,1,1,1,1,1,1,1,1,1,1,1,1,1,1,1,1,1,1,1,1,1,1,1,1,1,1,1,1,1,1,1,1,1,1,1,1,1,1,1,1,1,1,1,1,1,1,1,1,1],"number_of_sets":1,"coherent_direction":[303,196,303,196,196,303,196,303,196,303,303,303,196,303,303,303,196,196,303,303,196,196,303,303,303,303,196,303,196,303,303,303,196,303,196,303,196,196,303,303,303,196,196,196,196,303,303,196,196,303,196,196,196,303,303,196,196,196,303,303,196,303,303,196,303,196,303,196,303,196,303,196,303,303,303,196,196,196,196,196,196,196,196,196,196,196,196,303,303,196,303,303,196,303,196,303,303,196,303,303,303,303,196,196,196,303,196,196,196,303,196,196,303,303,303,196,303,303,196,303,196,196,303,196,196,196,196,196,196,303,303,196,196,196,196,303,196,196,303,196,196,303,303,303,303,303,303,303,303,196,303,303,196,196,303,196,196,196,196,196,303,303,196,303,303,196,303,303,303,303,303,196,196,196,303,196,196,196,303,196,303,196,303,196,303,303,303,196,196,303,303,196,303,303,303,196,303,303,303,196],"coherence":1,"opposite_coherence":0,"dot_radius":2,"dot_side_length":1,"dot_life":-1,"move_distance":1,"aperture_width":300,"aperture_height":300,"dot_color":["white","black","white","black","black","white","black","white","black","white","white","white","black","white","white","white","black","black","white","white","black","black","white","white","white","white","black","white","black","white","white","white","black","white","black","white","black","black","white","white","white","black","black","black","black","white","white","black","black","white","black","black","black","white","white","black","black","black","white","white","black","white","white","black","white","black","white","black","white","black","white","black","white","white","white","black","black","black","black","black","black","black","black","black","black","black","black","white","white","black","white","white","black","white","black","white","white","black","white","white","white","white","black","black","black","white","black","black","black","white","black","black","white","white","white","black","white","white","black","white","black","black","white","black","black","black","black","black","black","white","white","black","black","black","black","white","black","black","white","black","black","white","white","white","white","white","white","white","white","black","white","white","black","black","white","black","black","black","black","black","white","white","black","white","white","black","white","white","white","white","white","black","black","black","white","black","black","black","white","black","white","black","white","black","white","white","white","black","black","white","white","black","white","white","white","black","white","white","white","black"],"dot_shape":"circle","background_color":"#AAA","RDK_type":3,"aperture_type":2,"reinsert_type":2,"frame_rate":16.908333333333335,"frame_rate_array":[12,17,17,16,17,17,17,17,17,17,17,17,17,17,17,17,17,17,17,17,17,17,17,17,17,17,17,17,17,17,17,17,17,17,16,17,17,17,17,17,17,17,17,17,17,17,17,17,16,17,17,17,17,17,16,17,17,17,17,17,17,17,17,17,17,16,17,17,17,17,17,17,17,17,17,17,17,17,17,17,17,17,17,17,17,17,17,17,17,17,17,17,17,17,17,17,16,17,17,17,17,17,17,17,17,17,17,17,17,17,17,17,17,17,17,17,17,17,17,17],"number_of_frames":120,"aperture_center_x":683,"aperture_center_y":384,"fixation_cross":true,"fixation_cross_width":15,"fixation_cross_height":15,"fixation_cross_color":"#111","fixation_cross_thickness":1,"border":true,"border_thickness":2,"border_color":"transparent","canvas_width":1366,"canvas_height":768,"trial_type":"rdk","trial_index":104,"plugin_version":"2.0.0","time_elapsed":364024},{"rt":3158,"stimulus":"\n        <div class=\"response-container\">\n          <div class=\"response-instruction\">\n            <p>rotate the bar by using the left and right arrow keys.</p>\n            <p>when you are determined, press the Enter key.</p>\n          </div>\n          <div class=\"response-circle\">\n            <div class=\"response-fixation\"></div>\n            <div id=\"bar\" class=\"rotating-bar\"></div>\n          </div>\n        </div>\n      ","response":"Enter","trial_type":"html-keyboard-response","trial_index":105,"plugin_version":"2.1.0","time_elapsed":367183,"random_initial_angle":23,"response_angle_css":-88,"response_angle_rdk":178,"angular_error_target":-18,"angular_error_distractor":-125,"target_direction":196,"target_group":"black","reward_points":6},{"rt":null,"stimulus":"\n          <p style=\"color: #00FF00;\">Your reward: 6 points</p>\n        ","response":null,"trial_type":"html-keyboard-response","trial_index":106,"plugin_version":"2.1.0","time_elapsed":369190},{"rt":null,"stimulus":"<div class=\"fixation\" style=\"font-size: 60px;\">+</div>","response":null,"trial_type":"html-keyboard-response","trial