[{"rt":9952,"stimulus":"Welcome to the experiment. Press any key to begin.","response":" ","trial_type":"html-keyboard-response","trial_index":0,"plugin_version":"2.1.0","time_elapsed":9958},{"rt":75689,"stimulus":"\n        <div class=\"instructions-container\">\n          <h2>Instructions</h2>\n\n          <p>\n          In this experiment, you will see <strong>two Random Dot Kinematograms (RDKs)</strong> displayed simultaneously.\n          </p>\n\n          <p>\n          An RDK is a visual stimulus consisting of many small dots that move coherently in a single direction. \n          In this experiment, the dots will be either <strong>white</strong> or <strong>black</strong> \n          (see the short demo below for an example of an RDK stimulus).\n          </p>\n\n          <p>\n          On each trial, the two RDKs will move in different directions. \n          Your task is to decide <strong>which RDK appears to contain more dots</strong>.\n          </p>\n\n          <p>\n          The RDK that you judge to have more dots is called the <strong>target RDK</strong>. \n          For example, if the white RDK appears to have more dots than the black RDK, \n          you should report the motion direction of the white RDK.\n          </p>\n\n          <p>\n          After viewing the RDKs, you will rotate a bar to indicate the perceived direction of the target RDK \n          using the <strong>left</strong> and <strong>right arrow keys</strong>. \n          Press <strong>Enter</strong> when you are satisfied with your response.\n          When the bar is held down, the rotation speed increases.\n          </p>\n\n          <p>\n          You will receive points based on the <strong>accuracy of your response</strong>, \n          and your final <strong>bonus reward</strong> may depend on your overall performance. \n          Please try to respond as accurately as possible.\n          </p>\n\n          <p>\n          You will first complete <strong>16 practice trials</strong>. \n          Press the <strong>Enter</strong> key to start the practice phase.\n          </p>\n\n          <canvas id=\"instruction-demo-rdk\" width=\"200\" height=\"200\"style=\"display:block;margin:12px auto; border-radius: 50%;\"></canvas>\n        </div>\n      ","response":"Enter","trial_type":"html-keyboard-response","trial_index":1,"plugin_version":"2.1.0","time_elapsed":85650},{"rt":null,"stimulus":"<div class=\"fixation\" style=\"font-size: 60px;\">+</div>","response":null,"trial_type":"html-keyboard-response","trial_index":2,"plugin_version":"2.1.0","time_elapsed":86654},{"target_group":"white","target_index":0,"condition_label":"practice","rt":-1,"response":"","correct":false,"choices":"ALL_KEYS","correct_choice":["a"],"trial_duration":2000,"flip_timestamps":[],"response_ends_trial":false,"number_of_apertures":2,"number_of_dots":[100,95],"number_of_sets":1,"coherent_direction":[326,99],"coherence":1,"opposite_coherence":0,"dot_radius":2,"dot_side_length":1,"dot_life":-1,"move_distance":1,"aperture_width":300,"aperture_height":300,"dot_color":["white","black"],"dot_shape":"circle","background_color":"#AAA","RDK_type":3,"aperture_type":2,"reinsert_type":2,"frame_rate":32.93333333333333,"frame_rate_array":[18,34,32,33,32,33,33,34,33,33,34,33,33,34,33,33,33,33,33,33,33,33,33,33,33,33,33,33,34,33,33,33,33,33,34,33,34,34,33,33,34,33,33,33,33,34,33,34,33,33,33,34,33,34,33,33,33,33,33,33],"number_of_frames":60,"aperture_center_x":640,"aperture_center_y":360,"fixation_cross":true,"fixation_cross_width":15,"fixation_cross_height":15,"fixation_cross_color":"#111","fixation_cross_thickness":1,"border":true,"border_thickness":2,"border_color":"transparent","canvas_width":1280,"canvas_height":720,"trial_type":"rdk","trial_index":3,"plugin_version":"2.0.0","time_elapsed":88663,"phase":"practice","target_direction":326,"distractor_direction":99},{"rt":5859,"stimulus":"\n        <div class=\"response-container\">\n          <div class=\"response-instruction\">\n            <p>rotate the bar by using the left and right arrow keys.</p>\n            <p>when you are determined, press the Enter key.</p>\n          </div>\n          <div class=\"response-circle\">\n            <div class=\"response-fixation\"></div>\n            <div id=\"bar\" class=\"rotating-bar\"></div>\n          </div>\n        </div>\n      ","response":"Enter","trial_type":"html-keyboard-response","trial_index":4,"plugin_version":"2.1.0","time_elapsed":94524,"random_initial_angle":140,"response_angle_css":140,"response_angle_rdk":310,"angular_error_target":-16,"angular_error_distractor":-149,"target_direction":326,"target_group":"white","reward_points":6},{"rt":null,"stimulus":"\n          <p style=\"color: #00FF00;\">Your reward: 6 points</p>\n        ","response":null,"trial_type":"html-keyboard-response","trial_index":5,"plugin_version":"2.1.0","time_elapsed":96533},{"rt":null,"stimulus":"<div class=\"fixation\" style=\"font-size: 60px;\">+</div>","response":null,"trial_type":"html-keyboard-response","trial_index":6,"plugin_version":"2.1.0","time_elapsed":97540},{"target_group":"black","target_index":1,"condition_label":"practice","rt":-1,"response":"","correct":false,"choices":"ALL_KEYS","correct_choice":["a"],"trial_duration":2000,"flip_timestamps":[],"response_ends_trial":false,"number_of_apertures":2,"number_of_dots":[92,100],"number_of_sets":1,"coherent_direction":[121,297],"coherence":1,"opposite_coherence":0,"dot_radius":2,"dot_side_length":1,"dot_life":-1,"move_distance":1,"aperture_width":300,"aperture_height":300,"dot_color":["white","black"],"dot_shape":"circle","background_color":"#AAA","RDK_type":3,"aperture_type":2,"reinsert_type":2,"frame_rate":33.05,"frame_rate_array":[17,33,33,33,34,38,27,33,34,34,34,34,33,34,34,34,33,33,34,33,33,33,33,34,33,33,33,33,33,34,33,33,33,34,33,34,33,33,33,34,34,33,33,33,33,33,34,33,33,33,33,34,34,33,33,34,33,34,33,33],"number_of_frames":60,"aperture_center_x":640,"aperture_center_y":360,"fixation_cross":true,"fixation_cross_width":15,"fixation_cross_height":15,"fixation_cross_color":"#111","fixation_cross_thickness":1,"border":true,"border_thickness":2,"border_color":"transparent","canvas_width":1280,"canvas_height":720,"trial_type":"rdk","trial_index":7,"plugin_version":"2.0.0","time_elapsed":99554,"phase":"practice","target_direction":297,"distractor_direction":121},{"rt":6135,"stimulus":"\n        <div class=\"response-container\">\n          <div class=\"response-instruction\">\n            <p>rotate the bar by using the left and right arrow keys.</p>\n            <p>when you are determined, press the Enter key.</p>\n          </div>\n          <div class=\"response-circle\">\n            <div class=\"response-fixation\"></div>\n            <div id=\"bar\" class=\"rotating-bar\"></div>\n          </div>\n        </div>\n      ","response":"Enter","trial_type":"html-keyboard-response","trial_index":8,"plugin_version":"2.1.0","time_elapsed":105691,"random_initial_angle":225,"response_angle_css":313,"response_angle_rdk":137,"angular_error_target":-160,"angular_error_distractor":16,"target_direction":297,"target_group":"black","reward_points":0},{"rt":null,"stimulus":"\n          <p style=\"color: #FF3333;\">Your reward: 0 points</p>\n        ","response":null,"trial_type":"html-keyboard-response","trial_index":9,"plugin_version":"2.1.0","time_elapsed":107705},{"rt":null,"stimulus":"<div class=\"fixation\" style=\"font-size: 60px;\">+</div>","response":null,"trial_type":"html-keyboard-response","trial_index":10,"plugin_version":"2.1.0","time_elapsed":108711},{"target_group":"white","target_index":0,"condition_label":"practice","rt":-1,"response":"","correct":false,"choices":"ALL_KEYS","correct_choice":["a"],"trial_duration":2000,"flip_timestamps":[],"response_ends_trial":false,"number_of_apertures":2,"number_of_dots":[100,56],"number_of_sets":1,"coherent_direction":[180,271],"coherence":1,"opposite_coherence":0,"dot_radius":2,"dot_side_length":1,"dot_life":-1,"move_distance":1,"aperture_width":300,"aperture_height":300,"dot_color":["white","black"],"dot_shape":"circle","background_color":"#AAA","RDK_type":3,"aperture_type":2,"reinsert_type":2,"frame_rate":33.21666666666667,"frame_rate_array":[31,33,33,33,33,34,33,34,33,34,33,33,33,33,33,34,33,33,33,33,33,34,34,34,33,33,33,33,33,33,34,33,33,34,33,33,33,34,33,33,34,33,33,33,33,33,33,34,33,33,33,34,33,34,33,33,34,33,33,33],"number_of_frames":60,"aperture_center_x":640,"aperture_center_y":360,"fixation_cross":true,"fixation_cross_width":15,"fixation_cross_height":15,"fixation_cross_color":"#111","fixation_cross_thickness":1,"border":true,"border_thickness":2,"border_color":"transparent","canvas_width":1280,"canvas_height":720,"trial_type":"rdk","trial_index":11,"plugin_version":"2.0.0","time_elapsed":110726,"phase":"practice","target_direction":180,"distractor_direction":271},{"rt":6563,"stimulus":"\n        <div class=\"response-container\">\n          <div class=\"response-instruction\">\n            <p>rotate the bar by using the left and right arrow keys.</p>\n            <p>when you are determined, press the Enter key.</p>\n          </div>\n          <div class=\"response-circle\">\n            <div class=\"response-fixation\"></div>\n            <div id=\"bar\" class=\"rotating-bar\"></div>\n          </div>\n        </div>\n      ","response":"Enter","trial_type":"html-keyboard-response","trial_index":12,"plugin_version":"2.1.0","time_elapsed":117290,"random_initial_angle":171,"response_angle_css":-70,"response_angle_rdk":160,"angular_error_target":-20,"angular_error_distractor":-111,"target_direction":180,"target_group":"white","reward_points":6},{"rt":null,"stimulus":"\n          <p style=\"color: #00FF00;\">Your reward: 6 points</p>\n        ","response":null,"trial_type":"html-keyboard-response","trial_index":13,"plugin_version":"2.1.0","time_elapsed":119297},{"rt":null,"stimulus":"<div class=\"fixation\" style=\"font-size: 60px;\">+</div>","response":null,"trial_type":"html-keyboard-response","trial_index":14,"plugin_version":"2.1.0","time_elapsed":120306},{"target_group":"black","target_index":1,"condition_label":"practice","rt":-1,"response":"","correct":false,"choices":"ALL_KEYS","correct_choice":["a"],"trial_duration":2000,"flip_timestamps":[],"response_ends_trial":false,"number_of_apertures":2,"number_of_dots":[65,100],"number_of_sets":1,"coherent_direction":[120,284],"coherence":1,"opposite_coherence":0,"dot_radius":2,"dot_side_length":1,"dot_life":-1,"move_distance":1,"aperture_width":300,"aperture_height":300,"dot_color":["white","black"],"dot_shape":"circle","background_color":"#AAA","RDK_type":3,"aperture_type":2,"reinsert_type":2,"frame_rate":33,"frame_rate_array":[16,34,34,33,34,33,33,34,33,33,33,34,33,33,33,33,33,34,34,33,33,33,33,33,33,33,33,33,33,34,33,33,33,33,34,34,33,34,33,33,33,34,33,33,34,33,33,33,34,33,34,34,33,34,33,33,33,33,33,33],"number_of_frames":60,"aperture_center_x":640,"aperture_center_y":360,"fixation_cross":true,"fixation_cross_width":15,"fixation_cross_height":15,"fixation_cross_color":"#111","fixation_cross_thickness":1,"border":true,"border_thickness":2,"border_color":"transparent","canvas_width":1280,"canvas_height":720,"trial_type":"rdk","trial_index":15,"plugin_version":"2.0.0","time_elapsed":122318,"phase":"practice","target_direction":284,"distractor_direction":120},{"rt":4449,"stimulus":"\n        <div class=\"response-container\">\n          <div class=\"response-instruction\">\n            <p>rotate the bar by using the left and right arrow keys.</p>\n            <p>when you are determined, press the Enter key.</p>\n          </div>\n          <div class=\"response-circle\">\n            <div class=\"response-fixation\"></div>\n            <div id=\"bar\" class=\"rotating-bar\"></div>\n          </div>\n        </div>\n      ","response":"Enter","trial_type":"html-keyboard-response","trial_index":16,"plugin_version":"2.1.0","time_elapsed":126768,"random_initial_angle":44,"response_angle_css":138,"response_angle_rdk":312,"angular_error_target":28,"angular_error_distractor":-168,"target_direction":284,"target_group":"black","reward_points":4},{"rt":null,"stimulus":"\n          <p style=\"color: #00FF00;\">Your reward: 4 points</p>\n        ","response":null,"trial_type":"html-keyboard-response","trial_index":17,"plugin_version":"2.1.0","time_elapsed":128769},{"rt":null,"stimulus":"<div class=\"fixation\" style=\"font-size: 60px;\">+</div>","response":null,"trial_type":"html-keyboard-response","trial_index":18,"plugin_version":"2.1.0","time_elapsed":129776},{"target_group":"black","target_index":1,"condition_label":"practice","rt":-1,"response":"","correct":false,"choices":"ALL_KEYS","correct_choice":["a"],"trial_duration":2000,"flip_timestamps":[],"response_ends_trial":false,"number_of_apertures":2,"number_of_dots":[92,100],"number_of_sets":1,"coherent_direction":[20,136],"coherence":1,"opposite_coherence":0,"dot_radius":2,"dot_side_length":1,"dot_life":-1,"move_distance":1,"aperture_width":300,"aperture_height":300,"dot_color":["white","black"],"dot_shape":"circle","background_color":"#AAA","RDK_type":3,"aperture_type":2,"reinsert_type":2,"frame_rate":33.166666666666664,"frame_rate_array":[30,33,34,34,33,33,33,33,33,33,33,34,33,33,33,34,33,34,33,33,33,33,33,33,33,33,33,34,33,33,33,33,33,34,34,33,33,33,34,33,33,33,33,33,34,33,34,33,33,33,34,33,33,33,34,33,33,33,33,33],"number_of_frames":60,"aperture_center_x":640,"aperture_center_y":360,"fixation_cross":true,"fixation_cross_width":15,"fixation_cross_height":15,"fixation_cross_color":"#111","fixation_cross_thickness":1,"border":true,"border_thickness":2,"border_color":"transparent","canvas_width":1280,"canvas_height":720,"trial_type":"rdk","trial_index":19,"plugin_version":"2.0.0","time_elapsed":131789,"phase":"practice","target_direction":136,"distractor_direction":20},{"rt":7673,"stimulus":"\n        <div class=\"response-container\">\n          <div class=\"response-instruction\">\n            <p>rotate the bar by using the left and right arrow keys.</p>\n            <p>when you are determined, press the Enter key.</p>\n          </div>\n          <div class=\"response-circle\">\n            <div class=\"response-fixation\"></div>\n            <div id=\"bar\" class=\"rotating-bar\"></div>\n          </div>\n        </div>\n      ","response":"Enter","trial_type":"html-keyboard-response","trial_index":20,"plugin_version":"2.1.0","time_elapsed":139463,"random_initial_angle":198,"response_angle_css":-42,"response_angle_rdk":132,"angular_error_target":-4,"angular_error_distractor":112,"target_direction":136,"target_group":"black","reward_points":9},{"rt":null,"stimulus":"\n          <p style=\"color: #00FF00;\">Your reward: 9 points</p>\n        ","response":null,"trial_type":"html-keyboard-response","trial_index":21,"plugin_version":"2.1.0","time_elapsed":141477},{"rt":null,"stimulus":"<div class=\"fixation\" style=\"font-size: 60px;\">+</div>","response":null,"trial_type":"html-keyboard-response","trial_index":22,"plugin_version":"2.1.0","time_elapsed":142484},{"target_group":"white","target_index":0,"condition_label":"practice","rt":-1,"response":"","correct":false,"choices":"ALL_KEYS","correct_choice":["a"],"trial_duration":2000,"flip_timestamps":[],"response_ends_trial":false,"number_of_apertures":2,"number_of_dots":[100,99],"number_of_sets":1,"coherent_direction":[192,23],"coherence":1,"opposite_coherence":0,"dot_radius":2,"dot_side_length":1,"dot_life":-1,"move_distance":1,"aperture_width":300,"aperture_height":300,"dot_color":["white","black"],"dot_shape":"circle","background_color":"#AAA","RDK_type":3,"aperture_type":2,"reinsert_type":2,"frame_rate":33.05,"frame_rate_array":[20,34,33,33,33,33,33,33,34,33,34,33,34,33,33,33,33,34,33,33,33,33,34,33,34,33,34,33,33,33,34,34,33,33,33,34,33,33,33,33,33,33,33,33,33,33,33,33,33,34,33,34,33,34,33,33,33,34,34,33],"number_of_frames":60,"aperture_center_x":640,"aperture_center_y":360,"fixation_cross":true,"fixation_cross_width":15,"fixation_cross_height":15,"fixation_cross_color":"#111","fixation_cross_thickness":1,"border":true,"border_thickness":2,"border_color":"transparent","canvas_width":1280,"canvas_height":720,"trial_type":"rdk","trial_index":23,"plugin_version":"2.0.0","time_elapsed":144490,"phase":"practice","target_direction":192,"distractor_direction":23},{"rt":2904,"stimulus":"\n        <div class=\"response-container\">\n          <div class=\"response-instruction\">\n            <p>rotate the bar by using the left and right arrow keys.</p>\n            <p>when you are determined, press the Enter key.</p>\n          </div>\n          <div class=\"response-circle\">\n            <div class=\"response-fixation\"></div>\n            <div id=\"bar\" class=\"rotating-bar\"></div>\n          </div>\n        </div>\n      ","response":"Enter","trial_type":"html-keyboard-response","trial_index":24,"plugin_version":"2.1.0","time_elapsed":147395,"random_initial_angle":211,"response_angle_css":228,"response_angle_rdk":222,"angular_error_target":30,"angular_error_distractor":-161,"target_direction":192,"target_group":"white","reward_points":4},{"rt":null,"stimulus":"\n          <p style=\"color: #00FF00;\">Your reward: 4 points</p>\n        ","response":null,"trial_type":"html-keyboard-response","trial_index":25,"plugin_version":"2.1.0","time_elapsed":149401},{"rt":null,"stimulus":"<div class=\"fixation\" style=\"font-size: 60px;\">+</div>","response":null,"trial_type":"html-keyboard-response","trial_index":26,"plugin_version":"2.1.0","time_elapsed":150414},{"target_group":"black","target_index":1,"condition_label":"practice","rt":-1,"response":"","correct":false,"choices":"ALL_KEYS","correct_choice":["a"],"trial_duration":2000,"flip_timestamps":[],"response_ends_trial":false,"number_of_apertures":2,"number_of_dots":[85,100],"number_of_sets":1,"coherent_direction":[348,178],"coherence":1,"opposite_coherence":0,"dot_radius":2,"dot_side_length":1,"dot_life":-1,"move_distance":1,"aperture_width":300,"aperture_height":300,"dot_color":["white","black"],"dot_shape":"circle","background_color":"#AAA","RDK_type":3,"aperture_type":2,"reinsert_type":2,"frame_rate":33.2,"frame_rate_array":[24,33,34,33,33,34,34,34,35,33,33,34,33,33,33,34,33,33,33,33,34,33,33,33,33,33,34,34,33,33,33,33,33,34,33,33,33,33,33,33,34,33,33,33,34,33,33,33,34,34,33,33,33,34,33,34,34,34,33,34],"number_of_frames":60,"aperture_center_x":640,"aperture_center_y":360,"fixation_cross":true,"fixation_cross_width":15,"fixation_cross_height":15,"fixation_cross_color":"#111","fixation_cross_thickness":1,"border":true,"border_thickness":2,"border_color":"transparent","canvas_width":1280,"canvas_height":720,"trial_type":"rdk","trial_index":27,"plugin_version":"2.0.0","time_elapsed":152422,"phase":"practice","target_direction":178,"distractor_direction":348},{"rt":4655,"stimulus":"\n        <div class=\"response-container\">\n          <div class=\"response-instruction\">\n            <p>rotate the bar by using the left and right arrow keys.</p>\n            <p>when you are determined, press the Enter key.</p>\n          </div>\n          <div class=\"response-circle\">\n            <div class=\"response-fixation\"></div>\n            <div id=\"bar\" class=\"rotating-bar\"></div>\n          </div>\n        </div>\n      ","response":"Enter","trial_type":"html-keyboard-response","trial_index":28,"plugin_version":"2.1.0","time_elapsed":157078,"random_initial_angle":55,"response_angle_css":-85,"response_angle_rdk":175,"angular_error_target":-3,"angular_error_distractor":-173,"target_direction":178,"target_group":"black","reward_points":9},{"rt":null,"stimulus":"\n          <p style=\"color: #00FF00;\">Your reward: 9 points</p>\n        ","response":null,"trial_type":"html-keyboard-response","trial_index":29,"plugin_version":"2.1.0","time_elapsed":159089},{"rt":null,"stimulus":"<div class=\"fixation\" style=\"font-size: 60px;\">+</div>","response":null,"trial_type":"html-keyboard-response","trial_index":30,"plugin_version":"2.1.0","time_elapsed":160099},{"target_group":"black","target_index":1,"condition_label":"practice","rt":-1,"response":"","correct":false,"choices":"ALL_KEYS","correct_choice":["a"],"trial_duration":2000,"flip_timestamps":[],"response_ends_trial":false,"number_of_apertures":2,"number_of_dots":[69,100],"number_of_sets":1,"coherent_direction":[97,191],"coherence":1,"opposite_coherence":0,"dot_radius":2,"dot_side_length":1,"dot_life":-1,"move_distance":1,"aperture_width":300,"aperture_height":300,"dot_color":["white","black"],"dot_shape":"circle","background_color":"#AAA","RDK_type":3,"aperture_type":2,"reinsert_type":2,"frame_rate":33.15,"frame_rate_array":[19,35,33,34,33,34,33,34,33,33,34,33,33,33,33,33,34,33,33,33,34,34,33,33,34,34,33,34,33,33,34,33,34,33,33,34,33,34,33,34,33,33,33,33,34,34,33,34,33,33,33,33,34,34,33,33,33,33,33,34],"number_of_frames":60,"aperture_center_x":640,"aperture_center_y":360,"fixation_cross":true,"fixation_cross_width":15,"fixation_cross_height":15,"fixation_cross_color":"#111","fixation_cross_thickness":1,"border":true,"border_thickness":2,"border_color":"transparent","canvas_width":1280,"canvas_height":720,"trial_type":"rdk","trial_index":31,"plugin_version":"2.0.0","time_elapsed":162104,"phase":"practice","target_direction":191,"distractor_direction":97},{"rt":4877,"stimulus":"\n        <div class=\"response-container\">\n          <div class=\"response-instruction\">\n            <p>rotate the bar by using the left and right arrow keys.</p>\n            <p>when you are determined, press the Enter key.</p>\n          </div>\n          <div class=\"response-circle\">\n            <div class=\"response-fixation\"></div>\n            <div id=\"bar\" class=\"rotating-bar\"></div>\n          </div>\n        </div>\n      ","response":"Enter","trial_type":"html-keyboard-response","trial_index":32,"plugin_version":"2.1.0","time_elapsed":166982,"random_initial_angle":12,"response_angle_css":-146,"response_angle_rdk":236,"angular_error_target":45,"angular_error_distractor":139,"target_direction":191,"target_group":"black","reward_points":0},{"rt":null,"stimulus":"\n          <p style=\"color: #FF3333;\">Your reward: 0 points</p>\n        ","response":null,"trial_type":"html-keyboard-response","trial_index":33,"plugin_version":"2.1.0","time_elapsed":168985},{"rt":null,"stimulus":"<div class=\"fixation\" style=\"font-size: 60px;\">+</div>","response":null,"trial_type":"html-keyboard-response","trial_index":34,"plugin_version":"2.1.0","time_elapsed":170002},{"target_group":"white","target_index":0,"condition_label":"practice","rt":-1,"response":"","correct":false,"choices":"ALL_KEYS","correct_choice":["a"],"trial_duration":2000,"flip_timestamps":[],"response_ends_trial":false,"number_of_apertures":2,"number_of_dots":[100,61],"number_of_sets":1,"coherent_direction":[308,58],"coherence":1,"opposite_coherence":0,"dot_radius":2,"dot_side_length":1,"dot_life":-1,"move_distance":1,"aperture_width":300,"aperture_height":300,"dot_color":["white","black"],"dot_shape":"circle","background_color":"#AAA","RDK_type":3,"aperture_type":2,"reinsert_type":2,"frame_rate":33,"frame_rate_array":[16,34,33,33,34,34,33,33,34,33,33,34,33,33,33,33,34,34,34,33,33,33,34,33,34,33,33,33,33,33,33,33,33,34,33,34,33,33,33,33,33,33,33,33,33,33,33,33,33,34,33,34,34,34,34,33,33,33,33,33],"number_of_frames":60,"aperture_center_x":640,"aperture_center_y":360,"fixation_cross":true,"fixation_cross_width":15,"fixation_cross_height":15,"fixation_cross_color":"#111","fixation_cross_thickness":1,"border":true,"border_thickness":2,"border_color":"transparent","canvas_width":1280,"canvas_height":720,"trial_type":"rdk","trial_index":35,"plugin_version":"2.0.0","time_elapsed":172012,"phase":"practice","target_direction":308,"distractor_direction":58},{"rt":4697,"stimulus":"\n        <div class=\"response-container\">\n          <div class=\"response-instruction\">\n            <p>rotate the bar by using the left and right arrow keys.</p>\n            <p>when you are determined, press the Enter key.</p>\n          </div>\n          <div class=\"response-circle\">\n            <div class=\"response-fixation\"></div>\n            <div id=\"bar\" class=\"rotating-bar\"></div>\n          </div>\n        </div>\n      ","response":"Enter","trial_type":"html-keyboard-response","trial_index":36,"plugin_version":"2.1.0","time_elapsed":176709,"random_initial_angle":112,"response_angle_css":181,"response_angle_rdk":269,"angular_error_target":-39,"angular_error_distractor":-149,"target_direction":308,"target_group":"white","reward_points":2},{"rt":null,"stimulus":"\n          <p style=\"color: #FF3333;\">Your reward: 2 points</p>\n        ","response":null,"trial_type":"html-keyboard-response","trial_index":37,"plugin_version":"2.1.0","time_elapsed":178726},{"rt":null,"stimulus":"<div class=\"fixation\" style=\"font-size: 60px;\">+</div>","response":null,"trial_type":"html-keyboard-response","trial_index":38,"plugin_version":"2.1.0","time_elapsed":179728},{"target_group":"black","target_index":1,"condition_label":"practice","rt":-1,"response":"","correct":false,"choices":"ALL_KEYS","correct_choice":["a"],"trial_duration":2000,"flip_timestamps":[],"response_ends_trial":false,"number_of_apertures":2,"number_of_dots":[67,100],"number_of_sets":1,"coherent_direction":[94,217],"coherence":1,"opposite_coherence":0,"dot_radius":2,"dot_side_length":1,"dot_life":-1,"move_distance":1,"aperture_width":300,"aperture_height":300,"dot_color":["white","black"],"dot_shape":"circle","background_color":"#AAA","RDK_type":3,"aperture_type":2,"reinsert_type":2,"frame_rate":33.15,"frame_rate_array":[22,33,34,33,34,33,33,33,33,33,33,33,33,33,34,33,33,33,34,34,34,33,33,34,33,34,33,33,34,33,34,33,33,33,34,34,34,34,33,33,33,34,33,33,34,33,33,34,33,33,34,33,34,33,33,33,33,34,33,33],"number_of_frames":60,"aperture_center_x":640,"aperture_center_y":360,"fixation_cross":true,"fixation_cross_width":15,"fixation_cross_height":15,"fixation_cross_color":"#111","fixation_cross_thickness":1,"border":true,"border_thickness":2,"border_color":"transparent","canvas_width":1280,"canvas_height":720,"trial_type":"rdk","trial_index":39,"plugin_version":"2.0.0","time_elapsed":181736,"phase":"practice","target_direction":217,"distractor_direction":94},{"rt":4150,"stimulus":"\n        <div class=\"response-container\">\n          <div class=\"response-instruction\">\n            <p>rotate the bar by using the left and right arrow keys.</p>\n            <p>when you are determined, press the Enter key.</p>\n          </div>\n          <div class=\"response-circle\">\n            <div class=\"response-fixation\"></div>\n            <div id=\"bar\" class=\"rotating-bar\"></div>\n          </div>\n        </div>\n      ","response":"Enter","trial_type":"html-keyboard-response","trial_index":40,"plugin_version":"2.1.0","time_elapsed":185887,"random_initial_angle":47,"response_angle_css":200,"response_angle_rdk":250,"angular_error_target":33,"angular_error_distractor":156,"target_direction":217,"target_group":"black","reward_points":3},{"rt":null,"stimulus":"\n          <p style=\"color: #00FF00;\">Your reward: 3 points</p>\n        ","response":null,"trial_type":"html-keyboard-response","trial_index":41,"plugin_version":"2.1.0","time_elapsed":187892},{"rt":null,"stimulus":"<div class=\"fixation\" style=\"font-size: 60px;\">+</div>","response":null,"trial_type":"html-keyboard-response","trial_index":42,"plugin_version":"2.1.0","time_elapsed":188904},{"target_group":"black","target_index":1,"condition_label":"practice","rt":785,"response":"Enter","correct":false,"choices":"ALL_KEYS","correct_choice":["a"],"trial_duration":2000,"flip_timestamps":[],"response_ends_trial":false,"number_of_apertures":2,"number_of_dots":[53,100],"number_of_sets":1,"coherent_direction":[132,330],"coherence":1,"opposite_coherence":0,"dot_radius":2,"dot_side_length":1,"dot_life":-1,"move_distance":1,"aperture_width":300,"aperture_height":300,"dot_color":["white","black"],"dot_shape":"circle","background_color":"#AAA","RDK_type":3,"aperture_type":2,"reinsert_type":2,"frame_rate":33.233333333333334,"frame_rate_array":[28,33,33,33,34,33,33,33,33,34,33,33,34,33,33,33,33,33,33,33,33,34,34,33,34,33,34,34,33,33,34,34,33,33,34,33,33,34,34,34,33,33,33,33,33,33,33,33,34,33,33,34,33,33,34,33,34,34,33,33],"number_of_frames":60,"aperture_center_x":640,"aperture_center_y":360,"fixation_cross":true,"fixation_cross_width":15,"fixation_cross_height":15,"fixation_cross_color":"#111","fixation_cross_thickness":1,"border":true,"border_thickness":2,"border_color":"transparent","canvas_width":1280,"canvas_height":720,"trial_type":"rdk","trial_index":43,"plugin_version":"2.0.0","time_elapsed":190918,"phase":"practice","target_direction":330,"distractor_direction":132},{"rt":2961,"stimulus":"\n        <div class=\"response-container\">\n          <div class=\"response-instruction\">\n            <p>rotate the bar by using the left and right arrow keys.</p>\n            <p>when you are determined, press the Enter key.</p>\n          </div>\n          <div class=\"response-circle\">\n            <div class=\"response-fixation\"></div>\n            <div id=\"bar\" class=\"rotating-bar\"></div>\n          </div>\n        </div>\n      ","response":"Enter","trial_type":"html-keyboard-response","trial_index":44,"plugin_version":"2.1.0","time_elapsed":193880,"random_initial_angle":62,"response_angle_css":136,"response_angle_rdk":314,"angular_error_target":-16,"angular_error_distractor":-178,"target_direction":330,"target_group":"black","reward_points":6},{"rt":null,"stimulus":"\n          <p style=\"color: #00FF00;\">Your reward: 6 points</p>\n        ","response":null,"trial_type":"html-keyboard-response","trial_index":45,"plugin_version":"2.1.0","time_elapsed":195881},{"rt":null,"stimulus":"<div class=\"fixation\" style=\"font-size: 60px;\">+</div>","response":null,"trial_type":"html-keyboard-response","trial_index":46,"plugin_version":"2.1.0","time_elapsed":196898},{"target_group":"white","target_index":0,"condition_label":"practice","rt":-1,"response":"","correct":false,"choices":"ALL_KEYS","correct_choice":["a"],"trial_duration":2000,"flip_timestamps":[],"response_ends_trial":false,"number_of_apertures":2,"number_of_dots":[100,66],"number_of_sets":1,"coherent_direction":[303,140],"coherence":1,"opposite_coherence":0,"dot_radius":2,"dot_side_length":1,"dot_life":-1,"move_distance":1,"aperture_width":300,"aperture_height":300,"dot_color":["white","black"],"dot_shape":"circle","background_color":"#AAA","RDK_type":3,"aperture_type":2,"reinsert_type":2,"frame_rate":33.32203389830509,"frame_rate_array":[26,42,34,33,33,33,33,33,33,33,33,34,33,33,34,34,33,34,33,33,33,34,33,33,34,33,33,34,34,33,34,33,33,33,33,33,33,34,33,34,33,33,33,33,34,34,33,33,33,33,33,33,34,33,34,33,34,33,33],"number_of_frames":59,"aperture_center_x":640,"aperture_center_y":360,"fixation_cross":true,"fixation_cross_width":15,"fixation_cross_height":15,"fixation_cross_color":"#111","fixation_cross_thickness":1,"border":true,"border_thickness":2,"border_color":"transparent","canvas_width":1280,"canvas_height":720,"trial_type":"rdk","trial_index":47,"plugin_version":"2.0.0","time_elapsed":198900,"phase":"practice","target_direction":303,"distractor_direction":140},{"rt":2493,"stimulus":"\n        <div class=\"response-container\">\n          <div class=\"response-instruction\">\n            <p>rotate the bar by using the left and right arrow keys.</p>\n            <p>when you are determined, press the Enter key.</p>\n          </div>\n          <div class=\"response-circle\">\n            <div class=\"response-fixation\"></div>\n            <div id=\"bar\" class=\"rotating-bar\"></div>\n          </div>\n        </div>\n      ","response":"Enter","trial_type":"html-keyboard-response","trial_index":48,"plugin_version":"2.1.0","time_elapsed":201394,"random_initial_angle":81,"response_angle_css":139,"response_angle_rdk":311,"angular_error_target":8,"angular_error_distractor":171,"target_direction":303,"target_group":"white","reward_points":8},{"rt":null,"stimulus":"\n          <p style=\"color: #00FF00;\">Your reward: 8 points</p>\n        ","response":null,"trial_type":"html-keyboard-response","trial_index":49,"plugin_version":"2.1.0","time_elapsed":203406},{"rt":null,"stimulus":"<div class=\"fixation\" style=\"font-size: 60px;\">+</div>","response":null,"trial_type":"html-keyboard-response","trial_index":50,"plugin_version":"2.1.0","time_elapsed":204411},{"target_group":"black","target_index":1,"condition_label":"practice","rt":-1,"response":"","correct":false,"choices":"ALL_KEYS","correct_choice":["a"],"trial_duration":2000,"flip_timestamps":[],"response_ends_trial":false,"number_of_apertures":2,"number_of_dots":[63,100],"number_of_sets":1,"coherent_direction":[18,116],"coherence":1,"opposite_coherence":0,"dot_radius":2,"dot_side_length":1,"dot_life":-1,"move_distance":1,"aperture_width":300,"aperture_height":300,"dot_color":["white","black"],"dot_shape":"circle","background_color":"#AAA","RDK_type":3,"aperture_type":2,"reinsert_type":2,"frame_rate":33.11666666666667,"frame_rate_array":[20,34,33,33,33,33,33,33,33,34,33,33,34,33,34,33,33,33,34,33,33,33,34,33,34,33,33,34,33,33,34,34,33,34,33,34,33,34,33,33,33,34,34,33,34,33,33,34,33,34,33,33,34,33,33,33,33,34,33,33],"number_of_frames":60,"aperture_center_x":640,"aperture_center_y":360,"fixation_cross":true,"fixation_cross_width":15,"fixation_cross_height":15,"fixation_cross_color":"#111","fixation_cross_thickness":1,"border":true,"border_thickness":2,"border_color":"transparent","canvas_width":1280,"canvas_height":720,"trial_type":"rdk","trial_index":51,"plugin_version":"2.0.0","time_elapsed":206415,"phase":"practice","target_direction":116,"distractor_direction":18},{"rt":3400,"stimulus":"\n        <div class=\"response-container\">\n          <div class=\"response-instruction\">\n            <p>rotate the bar by using the left and right arrow keys.</p>\n            <p>when you are determined, press the Enter key.</p>\n          </div>\n          <div class=\"response-circle\">\n            <div class=\"response-fixation\"></div>\n            <div id=\"bar\" class=\"rotating-bar\"></div>\n          </div>\n        </div>\n      ","response":"Enter","trial_type":"html-keyboard-response","trial_index":52,"plugin_version":"2.1.0","time_elapsed":209816,"random_initial_angle":44,"response_angle_css":-34,"response_angle_rdk":124,"angular_error_target":8,"angular_error_distractor":106,"target_direction":116,"target_group":"black","reward_points":8},{"rt":null,"stimulus":"\n          <p style=\"color: #00FF00;\">Your reward: 8 points</p>\n        ","response":null,"trial_type":"html-keyboard-response","trial_index":53,"plugin_version":"2.1.0","time_elapsed":211824},{"rt":null,"stimulus":"<div class=\"fixation\" style=\"font-size: 60px;\">+</div>","response":null,"trial_type":"html-keyboard-response","trial_index":54,"plugin_version":"2.1.0","time_elapsed":212840},{"target_group":"white","target_index":0,"condition_label":"practice","rt":-1,"response":"","correct":false,"choices":"ALL_KEYS","correct_choice":["a"],"trial_duration":2000,"flip_timestamps":[],"response_ends_trial":false,"number_of_apertures":2,"number_of_dots":[100,70],"number_of_sets":1,"coherent_direction":[0,251],"coherence":1,"opposite_coherence":0,"dot_radius":2,"dot_side_length":1,"dot_life":-1,"move_distance":1,"aperture_width":300,"aperture_height":300,"dot_color":["white","black"],"dot_shape":"circle","background_color":"#AAA","RDK_type":3,"aperture_type":2,"reinsert_type":2,"frame_rate":33.166666666666664,"frame_rate_array":[23,33,34,33,34,33,34,34,33,33,33,33,33,34,34,33,33,33,34,33,34,33,33,34,33,33,34,33,34,33,33,33,33,33,34,33,33,33,33,34,33,34,34,33,33,33,33,34,33,34,33,33,33,33,33,33,34,34,33,34],"number_of_frames":60,"aperture_center_x":640,"aperture_center_y":360,"fixation_cross":true,"fixation_cross_width":15,"fixation_cross_height":15,"fixation_cross_color":"#111","fixation_cross_thickness":1,"border":true,"border_thickness":2,"border_color":"transparent","canvas_width":1280,"canvas_height":720,"trial_type":"rdk","trial_index":55,"plugin_version":"2.0.0","time_elapsed":214848,"phase":"practice","target_direction":0,"distractor_direction":251},{"rt":2327,"stimulus":"\n        <div class=\"response-container\">\n          <div class=\"response-instruction\">\n            <p>rotate the bar by using the left and right arrow keys.</p>\n            <p>when you are determined, press the Enter key.</p>\n          </div>\n          <div class=\"response-circle\">\n            <div class=\"response-fixation\"></div>\n            <div id=\"bar\" class=\"rotating-bar\"></div>\n          </div>\n        </div>\n      ","response":"Enter","trial_type":"html-keyboard-response","trial_index":56,"plugin_version":"2.1.0","time_elapsed":217176,"random_initial_angle":2,"response_angle_css":44,"response_angle_rdk":46,"angular_error_target":46,"angular_error_distractor":155,"target_direction":0,"target_group":"white","reward_points":0},{"rt":null,"stimulus":"\n          <p style=\"color: #FF3333;\">Your reward: 0 points</p>\n        ","response":null,"trial_type":"html-keyboard-response","trial_index":57,"plugin_version":"2.1.0","time_elapsed":219183},{"rt":null,"stimulus":"<div class=\"fixation\" style=\"font-size: 60px;\">+</div>","response":null,"trial_type":"html-keyboard-response","trial_index":58,"plugin_version":"2.1.0","time_elapsed":220191},{"target_group":"white","target_index":0,"condition_label":"practice","rt":-1,"response":"","correct":false,"choices":"ALL_KEYS","correct_choice":["a"],"trial_duration":2000,"flip_timestamps":[],"response_ends_trial":false,"number_of_apertures":2,"number_of_dots":[100,88],"number_of_sets":1,"coherent_direction":[39,263],"coherence":1,"opposite_coherence":0,"dot_radius":2,"dot_side_length":1,"dot_life":-1,"move_distance":1,"aperture_width":300,"aperture_height":300,"dot_color":["white","black"],"dot_shape":"circle","background_color":"#AAA","RDK_type":3,"aperture_type":2,"reinsert_type":2,"frame_rate":33.166666666666664,"frame_rate_array":[21,34,34,33,35,32,33,34,33,33,33,34,33,33,34,33,33,33,33,33,34,34,33,34,33,34,33,34,34,33,33,33,34,33,33,33,34,33,34,33,33,33,34,33,34,33,33,33,34,33,33,33,33,34,34,33,34,33,34,33],"number_of_frames":60,"aperture_center_x":640,"aperture_center_y":360,"fixation_cross":true,"fixation_cross_width":15,"fixation_cross_height":15,"fixation_cross_color":"#111","fixation_cross_thickness":1,"border":true,"border_thickness":2,"border_color":"transparent","canvas_width":1280,"canvas_height":720,"trial_type":"rdk","trial_index":59,"plugin_version":"2.0.0","time_elapsed":222197,"phase":"practice","target_direction":39,"distractor_direction":263},{"rt":2756,"stimulus":"\n        <div class=\"response-container\">\n          <div class=\"response-instruction\">\n            <p>rotate the bar by using the left and right arrow keys.</p>\n            <p>when you are determined, press the Enter key.</p>\n          </div>\n          <div class=\"response-circle\">\n            <div class=\"response-fixation\"></div>\n            <div id=\"bar\" class=\"rotating-bar\"></div>\n          </div>\n        </div>\n      ","response":"Enter","trial_type":"html-keyboard-response","trial_index":60,"plugin_version":"2.1.0","time_elapsed":224953,"random_initial_angle":312,"response_angle_css":390,"response_angle_rdk":60,"angular_error_target":21,"angular_error_distractor":157,"target_direction":39,"target_group":"white","reward_points":5},{"rt":null,"stimulus":"\n          <p style=\"color: #00FF00;\">Your reward: 5 points</p>\n        ","response":null,"trial_type":"html-keyboard-response","trial_index":61,"plugin_version":"2.1.0","time_elapsed":226967},{"rt":null,"stimulus":"<div class=\"fixation\" style=\"font-size: 60px;\">+</div>","response":null,"trial_type":"html-keyboard-response","trial_index":62,"plugin_version":"2.1.0","time_elapsed":227982},{"target_group":"white","target_index":0,"condition_label":"practice","rt":-1,"response":"","correct":false,"choices":"ALL_KEYS","correct_choice":["a"],"trial_duration":2000,"flip_timestamps":[],"response_ends_trial":false,"number_of_apertures":2,"number_of_dots":[100,85],"number_of_sets":1,"coherent_direction":[288,67],"coherence":1,"opposite_coherence":0,"dot_radius":2,"dot_side_length":1,"dot_life":-1,"move_distance":1,"aperture_width":300,"aperture_height":300,"dot_color":["white","black"],"dot_shape":"circle","background_color":"#AAA","RDK_type":3,"aperture_type":2,"reinsert_type":2,"frame_rate":33.233333333333334,"frame_rate_array":[29,33,33,33,34,33,33,33,34,33,33,34,33,34,33,33,34,33,34,34,33,33,33,33,33,34,33,34,33,33,33,34,33,33,33,33,33,33,34,33,33,34,34,33,34,34,33,34,33,33,33,33,33,34,33,33,33,33,34,33],"number_of_frames":60,"aperture_center_x":640,"aperture_center_y":360,"fixation_cross":true,"fixation_cross_width":15,"fixation_cross_height":15,"fixation_cross_color":"#111","fixation_cross_thickness":1,"border":true,"border_thickness":2,"border_color":"transparent","canvas_width":1280,"canvas_height":720,"trial_type":"rdk","trial_index":63,"plugin_version":"2.0.0","time_elapsed":229996,"phase":"practice","target_direction":288,"distractor_direction":67},{"rt":3773,"stimulus":"\n        <div class=\"response-container\">\n          <div class=\"response-instruction\">\n            <p>rotate the bar by using the left and right arrow keys.</p>\n            <p>when you are determined, press the Enter key.</p>\n          </div>\n          <div class=\"response-circle\">\n            <div class=\"response-fixation\"></div>\n            <div id=\"bar\" class=\"rotating-bar\"></div>\n          </div>\n        </div>\n      ","response":"Enter","trial_type":"html-keyboard-response","trial_index":64,"plugin_version":"2.1.0","time_elapsed":233770,"random_initial_angle":157,"response_angle_css":186,"response_angle_rdk":264,"angular_error_target":-24,"angular_error_distractor":-163,"target_direction":288,"target_group":"white","reward_points":5},{"rt":null,"stimulus":"\n          <p style=\"color: #00FF00;\">Your reward: 5 points</p>\n        ","response":null,"trial_type":"html-keyboard-response","trial_index":65,"plugin_version":"2.1.0","time_elapsed":235786},{"rt":2552,"stimulus":"\n        <div class=\"instructions-container\">\n          <h2>End of Practice</h2>\n          <p>You have completed the practice trials.</p>\n          <p>Press <strong>Enter</strong> key to begin the main experiment.</p>\n        </div>\n      ","response":"Enter","trial_type":"html-keyboard-response","trial_index":66,"plugin_version":"2.1.0","time_elapsed":238339},{"rt":null,"stimulus":"<div class=\"fixation\" style=\"font-size: 60px;\">+</div>","response":null,"trial_type":"html-keyboard-response","trial_index":67,"plugin_version":"2.1.0","time_elapsed":239349},{"phase":"learning-awareness","target_group":"white","condition_label":"W_H_vs_B_L_rep18","target_direction":194,"distractor_direction":82,"session_rotation":161,"rt":-1,"response":"","correct":false,"choices":"ALL_KEYS","correct_choice":["a"],"trial_duration":2000,"flip_timestamps":[],"response_ends_trial":false,"number_of_apertures":200,"number_of_dots":[1,1,1,1,1,1,1,1,1,1,1,1,1,1,1,1,1,1,1,1,1,1,1,1,1,1,1,1,1,1,1,1,1,1,1,1,1,1,1,1,1,1,1,1,1,1,1,1,1,1,1,1,1,1,1,1,1,1,1,1,1,1,1,1,1,1,1,1,1,1,1,1,1,1,1,1,1,1,1,1,1,1,1,1,1,1,1,1,1,1,1,1,1,1,1,1,1,1,1,1,1,1,1,1,1,1,1,1,1,1,1,1,1,1,1,1,1,1,1,1,1,1,1,1,1,1,1,1,1,1,1,1,1,1,1,1,1,1,1,1,1,1,1,1,1,1,1,1,1,1,1,1,1,1,1,1,1,1,1,1,1,1,1,1,1,1,1,1,1,1,1,1,1,1,1,1,1,1,1,1,1,1,1,1,1,1,1,1,1,1,1,1,1,1,1,1,1,1,1,1],"number_of_sets":1,"coherent_direction":[194,82,194,194,82,194,194,194,194,194,194,194,194,82,194,194,194,194,194,194,82,194,82,194,82,82,82,194,82,194,82,82,194,82,194,194,194,194,82,194,194,82,194,82,194,194,194,82,194,82,194,82,82,194,82,194,82,82,194,82,194,194,194,82,194,82,194,194,82,82,82,194,194,194,82,194,82,194,82,194,82,194,194,194,82,82,194,194,82,82,82,82,82,82,82,82,82,194,82,194,82,194,194,194,194,82,82,82,194,82,194,194,82,82,82,194,194,82,82,194,194,82,194,194,82,82,82,194,194,82,194,194,82,82,194,194,194,194,194,82,82,82,194,82,82,82,194,82,82,82,194,194,82,194,82,82,194,82,82,82,82,194,82,82,82,194,82,82,82,194,82,82,82,194,82,194,194,194,82,194,194,194,194,194,82,82,82,194,82,82,82,194,82,82,82,82,82,82,194,194],"coherence":1,"opposite_coherence":0,"dot_radius":2,"dot_side_length":1,"dot_life":-1,"move_distance":1,"aperture_width":300,"aperture_height":300,"dot_color":["white","black","white","white","black","white","white","white","white","white","white","white","white","black","white","white","white","white","white","white","black","white","black","white","black","black","black","white","black","white","black","black","white","black","white","white","white","white","black","white","white","black","white","black","white","white","white","black","white","black","white","black","black","white","black","white","black","black","white","black","white","white","white","black","white","black","white","white","black","black","black","white","white","white","black","white","black","white","black","white","black","white","white","white","black","black","white","white","black","black","black","black","black","black","black","black","black","white","black","white","black","white","white","white","white","black","black","black","white","black","white","white","black","black","black","white","white","black","black","white","white","black","white","white","black","black","black","white","white","black","white","white","black","black","white","white","white","white","white","black","black","black","white","black","black","black","white","black","black","black","white","white","black","white","black","black","white","black","black","black","black","white","black","black","black","white","black","black","black","white","black","black","black","white","black","white","white","white","black","white","white","white","white","white","black","black","black","white","black","black","black","white","black","black","black","black","black","black","white","white"],"dot_shape":"circle","background_color":"#AAA","RDK_type":3,"aperture_type":2,"reinsert_type":2,"frame_rate":33.166666666666664,"frame_rate_array":[26,33,33,34,33,34,33,33,33,34,33,34,33,32,33,35,34,33,34,33,33,33,33,33,33,33,33,33,34,34,33,33,33,33,34,32,33,34,33,34,33,34,33,33,33,34,33,33,34,33,33,33,34,33,33,34,33,33,34,33],"number_of_frames":60,"aperture_center_x":640,"aperture_center_y":360,"fixation_cross":true,"fixation_cross_width":15,"fixation_cross_height":15,"fixation_cross_color":"#111","fixation_cross_thickness":1,"border":true,"border_thickness":2,"border_color":"transparent","canvas_width":1280,"canvas_height":720,"trial_type":"rdk","trial_index":68,"plugin_version":"2.0.0","time_elapsed":241362},{"rt":4874,"stimulus":"\n        <div class=\"response-container\">\n          <div class=\"response-instruction\">\n            <p>rotate the bar by using the left and right arrow keys.</p>\n            <p>when you are determined, press the Enter key.</p>\n          </div>\n          <div class=\"response-circle\">\n            <div class=\"response-fixation\"></div>\n            <div id=\"bar\" class=\"rotating-bar\"></div>\n          </div>\n        </div>\n      ","response":"Enter","trial_type":"html-keyboard-response","trial_index":69,"plugin_version":"2.1.0","time_elapsed":246237,"random_initial_angle":258,"response_angle_css":388,"response_angle_rdk":62,"angular_error_target":-132,"angular_error_distractor":-20,"target_direction":194,"target_group":"white","reward_points":0},{"rt":null,"stimulus":"\n          <p style=\"color: #FF3333;\">Your reward: 0 points</p>\n        ","response":null,"trial_type":"html-keyboard-response","trial_index":70,"plugin_version":"2.1.0","time_elapsed":248254},{"rt":null,"stimulus":"<div class=\"fixation\" style=\"font-size: 60px;\">+</div>","response":null,"trial_type":"html-keyboard-response","trial_index":71,"plugin_version":"2.1.0","time_elapsed":249256},{"phase":"learning-awareness","target_group":"white","condition_label":"W_H_vs_B_L_rep6","target_direction":199,"distractor_direction":81,"session_rotation":161,"rt":-1,"response":"","correct":false,"choices":"ALL_KEYS","correct_choice":["a"],"trial_duration":2000,"flip_timestamps":[],"response_ends_trial":false,"number_of_apertures":200,"number_of_dots":[1,1,1,1,1,1,1,1,1,1,1,1,1,1,1,1,1,1,1,1,1,1,1,1,1,1,1,1,1,1,1,1,1,1,1,1,1,1,1,1,1,1,1,1,1,1,1,1,1,1,1,1,1,1,1,1,1,1,1,1,1,1,1,1,1,1,1,1,1,1,1,1,1,1,1,1,1,1,1,1,1,1,1,1,1,1,1,1,1,1,1,1,1,1,1,1,1,1,1,1,1,1,1,1,1,1,1,1,1,1,1,1,1,1,1,1,1,1,1,1,1,1,1,1,1,1,1,1,1,1,1,1,1,1,1,1,1,1,1,1,1,1,1,1,1,1,1,1,1,1,1,1,1,1,1,1,1,1,1,1,1,1,1,1,1,1,1,1,1,1,1,1,1,1,1,1,1,1,1,1,1,1,1,1,1,1,1,1,1,1,1,1,1,1,1,1,1,1,1,1],"number_of_sets":1,"coherent_direction":[199,199,199,199,199,199,81,81,81,81,81,199,199,81,81,199,81,81,81,199,199,199,81,199,81,81,81,199,81,81,81,81,81,81,81,199,81,81,81,199,199,199,199,81,199,81,81,199,81,199,199,199,81,81,81,199,81,199,199,199,199,199,199,81,199,81,199,81,81,81,199,199,199,81,199,81,199,81,81,81,199,81,199,81,199,199,199,199,81,199,81,81,81,81,81,199,81,199,81,199,199,81,199,81,81,81,199,81,199,81,81,199,199,199,81,199,199,81,199,199,81,199,81,81,199,199,81,199,199,81,81,81,199,199,81,81,199,199,81,81,199,199,81,199,81,199,199,199,81,199,199,81,199,81,81,81,81,81,81,199,199,81,199,81,199,81,199,81,81,199,199,81,199,81,199,81,81,199,199,81,81,199,199,199,199,199,199,81,81,199,199,199,81,199,81,81,199,81,81,199],"coherence":1,"opposite_coherence":0,"dot_radius":2,"dot_side_length":1,"dot_life":-1,"move_distance":1,"aperture_width":300,"aperture_height":300,"dot_color":["white","white","white","white","white","white","black","black","black","black","black","white","white","black","black","white","black","black","black","white","white","white","black","white","black","black","black","white","black","black","black","black","black","black","black","white","black","black","black","white","white","white","white","black","white","black","black","white","black","white","white","white","black","black","black","white","black","white","white","white","white","white","white","black","white","black","white","black","black","black","white","white","white","black","white","black","white","black","black","black","white","black","white","black","white","white","white","white","black","white","black","black","black","black","black","white","black","white","black","white","white","black","white","black","black","black","white","black","white","black","black","white","white","white","black","white","white","black","white","white","black","white","black","black","white","white","black","white","white","black","black","black","white","white","black","black","white","white","black","black","white","white","black","white","black","white","white","white","black","white","white","black","white","black","black","black","black","black","black","white","white","black","white","black","white","black","white","black","black","white","white","black","white","black","white","black","black","white","white","black","black","white","white","white","white","white","white","black","black","white","white","white","black","white","black","black","white","black","black","white"],"dot_shape":"circle","background_color":"#AAA","RDK_type":3,"aperture_type":2,"reinsert_type":2,"frame_rate":33.166666666666664,"frame_rate_array":[20,34,34,33,34,33,33,33,33,34,34,33,33,33,34,34,33,34,33,33,33,33,34,33,33,34,34,33,33,33,33,34,33,34,33,33,34,33,33,33,33,34,34,33,34,34,33,33,33,33,33,33,33,33,34,33,33,34,34,35],"number_of_frames":60,"aperture_center_x":640,"aperture_center_y":360,"fixation_cross":true,"fixation_cross_width":15,"fixation_cross_height":15,"fixation_cross_color":"#111","fixation_cross_thickness":1,"border":true,"border_thickness":2,"border_color":"transparent","canvas_width":1280,"canvas_height":720,"trial_type":"rdk","trial_index":72,"plugin_version":"2.0.0","time_elapsed":251260},{"rt":2452,"stimulus":"\n        <div class=\"response-container\">\n          <div class=\"response-instruction\">\n            <p>rotate the bar by using the left and right arrow keys.</p>\n            <p>when you are determined, press the Enter key.</p>\n          </div>\n          <div class=\"response-circle\">\n            <div class=\"response-fixation\"></div>\n            <div id=\"bar\" class=\"rotating-bar\"></div>\n          </div>\n        </div>\n      ","response":"Enter","trial_type":"html-keyboard-response","trial_index":73,"plugin_version":"2.1.0","time_elapsed":253713,"random_initial_angle":209,"response_angle_css":219,"response_angle_rdk":231,"angular_error_target":32,"angular_error_distractor":150,"target_direction":199,"target_group":"white","reward_points":3},{"rt":null,"stimulus":"\n          <p style=\"color: #00FF00;\">Your reward: 3 points</p>\n        ","response":null,"trial_type":"html-keyboard-response","trial_index":74,"plugin_version":"2.1.0","time_elapsed":255721},{"rt":null,"stimulus":"<div class=\"fixation\" style=\"font-size: 60px;\">+</div>","response":null,"trial_type":"html-keyboard-response","trial_index":75,"plugin_version":"2.1.0","time_elapsed":256724},{"phase":"learning-awareness","target_group":"white","condition_label":"W_H_vs_B_L_rep23","target_direction":194,"distractor_direction":82,"session_rotation":161,"rt":-1,"response":"","correct":false,"choices":"ALL_KEYS","correct_choice":["a"],"trial_duration":2000,"flip_timestamps":[],"response_ends_trial":false,"number_of_apertures":200,"number_of_dots":[1,1,1,1,1,1,1,1,1,1,1,1,1,1,1,1,1,1,1,1,1,1,1,1,1,1,1,1,1,1,1,1,1,1,1,1,1,1,1,1,1,1,1,1,1,1,1,1,1,1,1,1,1,1,1,1,1,1,1,1,1,1,1,1,1,1,1,1,1,1,1,1,1,1,1,1,1,1,1,1,1,1,1,1,1,1,1,1,1,1,1,1,1,1,1,1,1,1,1,1,1,1,1,1,1,1,1,1,1,1,1,1,1,1,1,1,1,1,1,1,1,1,1,1,1,1,1,1,1,1,1,1,1,1,1,1,1,1,1,1,1,1,1,1,1,1,1,1,1,1,1,1,1,1,1,1,1,1,1,1,1,1,1,1,1,1,1,1,1,1,1,1,1,1,1,1,1,1,1,1,1,1,1,1,1,1,1,1,1,1,1,1,1,1,1,1,1,1,1,1],"number_of_sets":1,"coherent_direction":[82,82,194,194,82,194,194,194,194,82,194,194,194,82,82,82,82,194,194,82,194,82,82,194,194,82,194,194,194,194,82,194,82,82,82,82,194,82,194,82,194,194,194,82,194,194,194,194,82,82,82,194,82,82,82,194,194,82,194,194,82,194,194,82,194,82,82,194,82,194,82,82,194,82,82,82,82,194,194,194,82,82,82,82,194,194,194,194,82,82,82,82,194,194,82,194,82,82,194,82,82,82,194,82,82,194,82,82,194,82,82,194,194,194,82,82,194,194,194,194,194,194,82,194,194,194,82,194,194,194,82,82,82,194,194,82,194,82,82,82,194,82,194,82,194,82,194,82,82,82,194,82,194,82,82,82,194,82,194,194,82,82,194,82,82,82,82,82,194,194,194,194,82,194,82,82,194,82,194,194,194,194,82,82,194,82,82,82,82,194,194,82,82,194,194,194,194,82,194,194],"coherence":1,"opposite_coherence":0,"dot_radius":2,"dot_side_length":1,"dot_life":-1,"move_distance":1,"aperture_width":300,"aperture_height":300,"dot_color":["black","black","white","white","black","white","white","white","white","black","white","white","white","black","black","black","black","white","white","black","white","black","black","white","white","black","white","white","white","white","black","white","black","black","black","black","white","black","white","black","white","white","white","black","white","white","white","white","black","black","black","white","black","black","black","white","white","black","white","white","black","white","white","black","white","black","black","white","black","white","black","black","white","black","black","black","black","white","white","white","black","black","black","black","white","white","white","white","black","black","black","black","white","white","black","white","black","black","white","black","black","black","white","black","black","white","black","black","white","black","black","white","white","white","black","black","white","white","white","white","white","white","black","white","white","white","black","white","white","white","black","black","black","white","white","black","white","black","black","black","white","black","white","black","white","black","white","black","black","black","white","black","white","black","black","black","white","black","white","white","black","black","white","black","black","black","black","black","white","white","white","white","black","white","black","black","white","black","white","white","white","white","black","black","white","black","black","black","black","white","white","black","black","white","white","white","white","black","white","white"],"dot_shape":"circle","background_color":"#AAA","RDK_type":3,"aperture_type":2,"reinsert_type":2,"frame_rate":33.11666666666667,"frame_rate_array":[17,34,34,33,33,33,33,34,33,34,33,34,33,33,33,34,33,34,34,33,33,34,33,33,33,33,33,34,34,33,33,34,33,34,33,33,34,34,33,33,33,33,33,34,34,34,33,33,33,33,34,33,33,34,34,33,33,34,33,34],"number_of_frames":60,"aperture_center_x":640,"aperture_center_y":360,"fixation_cross":true,"fixation_cross_width":15,"fixation_cross_height":15,"fixation_cross_color":"#111","fixation_cross_thickness":1,"border":true,"border_thickness":2,"border_color":"transparent","canvas_width":1280,"canvas_height":720,"trial_type":"rdk","trial_index":76,"plugin_version":"2.0.0","time_elapsed":258735},{"rt":3082,"stimulus":"\n        <div class=\"response-container\">\n          <div class=\"response-instruction\">\n            <p>rotate the bar by using the left and right arrow keys.</p>\n            <p>when you are determined, press the Enter key.</p>\n          </div>\n          <div class=\"response-circle\">\n            <div class=\"response-fixation\"></div>\n            <div id=\"bar\" class=\"rotating-bar\"></div>\n          </div>\n        </div>\n      ","response":"Enter","trial_type":"html-keyboard-response","trial_index":77,"plugin_version":"2.1.0","time_elapsed":261819,"random_initial_angle":167,"response_angle_css":218,"response_angle_rdk":232,"angular_error_target":38,"angular_error_distractor":150,"target_direction":194,"target_group":"white","reward_points":2},{"rt":null,"stimulus":"\n          <p style=\"color: #FF3333;\">Your reward: 2 points</p>\n        ","response":null,"trial_type":"html-keyboard-response","trial_index":78,"plugin_version":"2.1.0","time_elapsed":263826},{"rt":null,"stimulus":"<div class=\"fixation\" style=\"font-size: 60px;\">+</div>","response":null,"trial_type":"html-keyboard-response","trial_index":79,"plugin_version":"2.1.0","time_elapsed":264836},{"phase":"learning-awareness","target_group":"white","condition_label":"W_H_vs_B_L_rep5","target_direction":203,"distractor_direction":108,"session_rotation":161,"rt":-1,"response":"","correct":false,"choices":"ALL_KEYS","correct_choice":["a"],"trial_duration":2000,"flip_timestamps":[],"response_ends_trial":false,"number_of_apertures":200,"number_of_dots":[1,1,1,1,1,1,1,1,1,1,1,1,1,1,1,1,1,1,1,1,1,1,1,1,1,1,1,1,1,1,1,1,1,1,1,1,1,1,1,1,1,1,1,1,1,1,1,1,1,1,1,1,1,1,1,1,1,1,1,1,1,1,1,1,1,1,1,1,1,1,1,1,1,1,1,1,1,1,1,1,1,1,1,1,1,1,1,1,1,1,1,1,1,1,1,1,1,1,1,1,1,1,1,1,1,1,1,1,1,1,1,1,1,1,1,1,1,1,1,1,1,1,1,1,1,1,1,1,1,1,1,1,1,1,1,1,1,1,1,1,1,1,1,1,1,1,1,1,1,1,1,1,1,1,1,1,1,1,1,1,1,1,1,1,1,1,1,1,1,1,1,1,1,1,1,1,1,1,1,1,1,1,1,1,1,1,1,1,1,1,1,1,1,1,1,1,1,1,1,1],"number_of_sets":1,"coherent_direction":[203,108,203,108,203,203,203,203,203,108,203,203,203,108,108,203,108,203,108,108,203,108,108,108,203,108,108,108,203,203,108,108,203,108,203,203,108,108,108,108,108,108,203,108,203,203,203,108,203,108,203,108,108,108,203,108,108,203,108,203,108,203,108,203,108,203,203,108,203,203,203,108,203,203,108,203,108,203,203,203,203,108,203,108,108,203,203,108,108,203,203,108,203,203,203,203,203,203,108,203,203,108,108,203,203,108,108,203,108,108,203,108,203,203,203,203,108,108,203,108,203,203,108,108,108,108,108,108,108,108,108,203,203,108,108,203,108,108,108,203,108,108,108,203,203,108,203,203,203,108,203,203,108,203,203,203,108,203,203,203,203,108,203,108,108,108,108,108,108,108,108,108,108,203,203,203,108,108,203,108,108,203,108,108,108,108,108,203,108,203,203,203,203,108,203,203,203,108,203,203],"coherence":1,"opposite_coherence":0,"dot_radius":2,"dot_side_length":1,"dot_life":-1,"move_distance":1,"aperture_width":300,"aperture_height":300,"dot_color":["white","black","white","black","white","white","white","white","white","black","white","white","white","black","black","white","black","white","black","black","white","black","black","black","white","black","black","black","white","white","black","black","white","black","white","white","black","black","black","black","black","black","white","black","white","white","white","black","white","black","white","black","black","black","white","black","black","white","black","white","black","white","black","white","black","white","white","black","white","white","white","black","white","white","black","white","black","white","white","white","white","black","white","black","black","white","white","black","black","white","white","black","white","white","white","white","white","white","black","white","white","black","black","white","white","black","black","white","black","black","white","black","white","white","white","white","black","black","white","black","white","white","black","black","black","black","black","black","black","black","black","white","white","black","black","white","black","black","black","white","black","black","black","white","white","black","white","white","white","black","white","white","black","white","white","white","black","white","white","white","white","black","white","black","black","black","black","black","black","black","black","black","black","white","white","white","black","black","white","black","black","white","black","black","black","black","black","white","black","white","white","white","white","black","white","white","white","black","white","white"],"dot_shape":"circle","background_color":"#AAA","RDK_type":3,"aperture_type":2,"reinsert_type":2,"frame_rate":32.983333333333334,"frame_rate_array":[21,33,33,33,33,33,33,33,33,33,34,33,33,34,33,33,33,33,33,33,34,33,33,33,33,33,33,34,34,33,33,34,33,33,33,33,33,33,33,33,33,34,33,34,33,34,33,34,33,33,33,34,33,33,33,33,33,33,33,33],"number_of_frames":60,"aperture_center_x":640,"aperture_center_y":360,"fixation_cross":true,"fixation_cross_width":15,"fixation_cross_height":15,"fixation_cross_color":"#111","fixation_cross_thickness":1,"border":true,"border_thickness":2,"border_color":"transparent","canvas_width":1280,"canvas_height":720,"trial_type":"rdk","trial_index":80,"plugin_version":"2.0.0","time_elapsed":266850},{"rt":3219,"stimulus":"\n        <div class=\"response-container\">\n          <div class=\"response-instruction\">\n            <p>rotate the bar by using the left and right arrow keys.</p>\n            <p>when you are determined, press the Enter key.</p>\n          </div>\n          <div class=\"response-circle\">\n            <div class=\"response-fixation\"></div>\n            <div id=\"bar\" class=\"rotating-bar\"></div>\n          </div>\n        </div>\n      ","response":"Enter","trial_type":"html-keyboard-response","trial_index":81,"plugin_version":"2.1.0","time_elapsed":270069,"random_initial_angle":298,"response_angle_css":377,"response_angle_rdk":73,"angular_error_target":-130,"angular_error_distractor":-35,"target_direction":203,"target_group":"white","reward_points":0},{"rt":null,"stimulus":"\n          <p style=\"color: #FF3333;\">Your reward: 0 points</p>\n        ","response":null,"trial_type":"html-keyboard-response","trial_index":82,"plugin_version":"2.1.0","time_elapsed":272082},{"rt":null,"stimulus":"<div class=\"fixation\" style=\"font-size: 60px;\">+</div>","response":null,"trial_type":"html-keyboard-response","trial_index":83,"plugin_version":"2.1.0","time_elapsed":273088},{"phase":"learning-awareness","target_group":"black","condition_label":"B_H_vs_W_L_rep11","target_direction":260,"distractor_direction":2,"session_rotation":161,"rt":405,"response":"Enter","correct":false,"choices":"ALL_KEYS","correct_choice":["a"],"trial_duration":2000,"flip_timestamps":[],"response_ends_trial":false,"number_of_apertures":200,"number_of_dots":[1,1,1,1,1,1,1,1,1,1,1,1,1,1,1,1,1,1,1,1,1,1,1,1,1,1,1,1,1,1,1,1,1,1,1,1,1,1,1,1,1,1,1,1,1,1,1,1,1,1,1,1,1,1,1,1,1,1,1,1,1,1,1,1,1,1,1,1,1,1,1,1,1,1,1,1,1,1,1,1,1,1,1,1,1,1,1,1,1,1,1,1,1,1,1,1,1,1,1,1,1,1,1,1,1,1,1,1,1,1,1,1,1,1,1,1,1,1,1,1,1,1,1,1,1,1,1,1,1,1,1,1,1,1,1,1,1,1,1,1,1,1,1,1,1,1,1,1,1,1,1,1,1,1,1,1,1,1,1,1,1,1,1,1,1,1,1,1,1,1,1,1,1,1,1,1,1,1,1,1,1,1,1,1,1,1,1,1,1,1,1,1,1,1,1,1,1,1,1,1],"number_of_sets":1,"coherent_direction":[260,260,2,260,2,260,2,2,260,2,260,2,260,260,260,2,260,2,260,260,260,2,2,2,260,2,2,260,2,260,2,2,260,2,260,260,2,2,2,2,260,2,260,260,260,260,260,260,260,2,260,2,2,2,2,2,2,2,2,260,260,260,2,2,260,260,2,260,260,260,260,2,2,2,2,260,260,260,2,260,2,260,260,260,2,2,260,2,260,2,2,260,2,260,260,2,260,260,2,260,260,260,2,260,2,260,2,260,260,260,2,2,260,2,260,2,260,260,260,2,2,260,2,260,260,260,2,260,2,2,260,2,260,260,2,260,2,2,2,260,260,2,2,2,2,2,2,2,2,2,260,260,260,2,2,2,2,260,260,260,2,2,2,2,260,2,260,2,2,260,2,260,260,260,2,2,260,2,260,2,260,260,260,260,2,2,260,260,2,2,2,2,260,2,2,260,260,2,260,260],"coherence":1,"opposite_coherence":0,"dot_radius":2,"dot_side_length":1,"dot_life":-1,"move_distance":1,"aperture_width":300,"aperture_height":300,"dot_color":["black","black","white","black","white","black","white","white","black","white","black","white","black","black","black","white","black","white","black","black","black","white","white","white","black","white","white","black","white","black","white","white","black","white","black","black","white","white","white","white","black","white","black","black","black","black","black","black","black","white","black","white","white","white","white","white","white","white","white","black","black","black","white","white","black","black","white","black","black","black","black","white","white","white","white","black","black","black","white","black","white","black","black","black","white","white","black","white","black","white","white","black","white","black","black","white","black","black","white","black","black","black","white","black","white","black","white","black","black","black","white","white","black","white","black","white","black","black","black","white","white","black","white","black","black","black","white","black","white","white","black","white","black","black","white","black","white","white","white","black","black","white","white","white","white","white","white","white","white","white","black","black","black","white","white","white","white","black","black","black","white","white","white","white","black","white","black","white","white","black","white","black","black","black","white","white","black","white","black","white","black","black","black","black","white","white","black","black","white","white","white","white","black","white","white","black","black","white","black","black"],"dot_shape":"circle","background_color":"#AAA","RDK_type":3,"aperture_type":2,"reinsert_type":2,"frame_rate":33.06666666666667,"frame_rate_array":[18,34,33,33,33,34,33,33,34,34,33,33,32,35,33,34,33,33,33,33,34,33,34,33,33,34,33,34,34,33,33,33,34,33,33,33,33,33,33,33,33,34,33,34,34,33,33,33,33,34,33,33,33,34,33,33,33,33,34,34],"number_of_frames":60,"aperture_center_x":640,"aperture_center_y":360,"fixation_cross":true,"fixation_cross_width":15,"fixation_cross_height":15,"fixation_cross_color":"#111","fixation_cross_thickness":1,"border":true,"border_thickness":2,"border_color":"transparent","canvas_width":1280,"canvas_height":720,"trial_type":"rdk","trial_index":84,"plugin_version":"2.0.0","time_elapsed":275105},{"rt":1548,"stimulus":"\n        <div class=\"response-container\">\n          <div class=\"response-instruction\">\n            <p>rotate the bar by using the left and right arrow keys.</p>\n            <p>when you are determined, press the Enter key.</p>\n          </div>\n          <div class=\"response-circle\">\n            <div class=\"response-fixation\"></div>\n            <div id=\"bar\" class=\"rotating-bar\"></div>\n          </div>\n        </div>\n      ","response":"Enter","trial_type":"html-keyboard-response","trial_index":85,"plugin_version":"2.1.0","time_elapsed":276654,"random_initial_angle":31,"response_angle_css":54,"response_angle_rdk":36,"angular_error_target":136,"angular_error_distractor":34,"target_direction":260,"target_group":"black","reward_points":0},{"rt":null,"stimulus":"\n          <p style=\"color: #FF3333;\">Your reward: 0 points</p>\n        ","response":null,"trial_type":"html-keyboard-response","trial_index":86,"plugin_version":"2.1.0","time_elapsed":278670},{"rt":null,"stimulus":"<div class=\"fixation\" style=\"font-size: 60px;\">+</div>","response":null,"trial_type":"html-keyboard-response","trial_index":87,"plugin_version":"2.1.0","time_elapsed":279679},{"phase":"learning-awareness","target_group":"white","condition_label":"W_H_vs_B_L_rep3","target_direction":194,"distractor_direction":72,"session_rotation":161,"rt":-1,"response":"","correct":false,"choices":"ALL_KEYS","correct_choice":["a"],"trial_duration":2000,"flip_timestamps":[],"response_ends_trial":false,"number_of_apertures":200,"number_of_dots":[1,1,1,1,1,1,1,1,1,1,1,1,1,1,1,1,1,1,1,1,1,1,1,1,1,1,1,1,1,1,1,1,1,1,1,1,1,1,1,1,1,1,1,1,1,1,1,1,1,1,1,1,1,1,1,1,1,1,1,1,1,1,1,1,1,1,1,1,1,1,1,1,1,1,1,1,1,1,1,1,1,1,1,1,1,1,1,1,1,1,1,1,1,1,1,1,1,1,1,1,1,1,1,1,1,1,1,1,1,1,1,1,1,1,1,1,1,1,1,1,1,1,1,1,1,1,1,1,1,1,1,1,1,1,1,1,1,1,1,1,1,1,1,1,1,1,1,1,1,1,1,1,1,1,1,1,1,1,1,1,1,1,1,1,1,1,1,1,1,1,1,1,1,1,1,1,1,1,1,1,1,1,1,1,1,1,1,1,1,1,1,1,1,1,1,1,1,1,1,1],"number_of_sets":1,"coherent_direction":[194,72,72,194,194,72,72,72,72,72,194,194,72,194,72,72,194,72,194,194,194,72,72,72,194,72,194,194,194,194,72,72,194,194,194,194,194,72,72,194,194,72,194,72,194,72,72,194,194,72,72,194,72,194,72,72,72,194,72,72,194,72,194,194,194,194,194,194,72,194,72,72,194,72,72,72,72,194,194,194,72,194,194,194,194,72,72,194,72,72,194,194,194,72,72,194,72,72,194,194,72,194,72,194,72,72,194,72,194,194,72,194,72,72,72,194,72,194,72,194,72,72,72,194,72,72,194,72,194,194,194,72,72,194,72,72,194,72,72,72,72,72,72,72,194,72,72,72,194,194,194,72,194,194,194,72,72,194,194,194,194,72,72,194,72,72,72,194,72,72,194,72,194,194,72,72,72,72,194,194,194,194,194,72,194,72,194,72,72,194,194,194,72,194,194,194,194,72,194,194],"coherence":1,"opposite_coherence":0,"dot_radius":2,"dot_side_length":1,"dot_life":-1,"move_distance":1,"aperture_width":300,"aperture_height":300,"dot_color":["white","black","black","white","white","black","black","black","black","black","white","white","black","white","black","black","white","black","white","white","white","black","black","black","white","black","white","white","white","white","black","black","white","white","white","white","white","black","black","white","white","black","white","black","white","black","black","white","white","black","black","white","black","white","black","black","black","white","black","black","white","black","white","white","white","white","white","white","black","white","black","black","white","black","black","black","black","white","white","white","black","white","white","white","white","black","black","white","black","black","white","white","white","black","black","white","black","black","white","white","black","white","black","white","black","black","white","black","white","white","black","white","black","black","black","white","black","white","black","white","black","black","black","white","black","black","white","black","white","white","white","black","black","white","black","black","white","black","black","black","black","black","black","black","white","black","black","black","white","white","white","black","white","white","white","black","black","white","white","white","white","black","black","white","black","black","black","white","black","black","white","black","white","white","black","black","black","black","white","white","white","white","white","black","white","black","white","black","black","white","white","white","black","white","white","white","white","black","white","white"],"dot_shape":"circle","background_color":"#AAA","RDK_type":3,"aperture_type":2,"reinsert_type":2,"frame_rate":33.166666666666664,"frame_rate_array":[25,33,33,33,34,34,33,33,33,34,34,33,33,34,33,33,33,34,33,33,34,33,34,34,33,33,33,33,34,33,33,33,34,32,34,34,33,34,33,33,33,33,33,33,33,33,33,33,34,34,33,33,33,34,33,34,33,33,33,34],"number_of_frames":60,"aperture_center_x":640,"aperture_center_y":360,"fixation_cross":true,"fixation_cross_width":15,"fixation_cross_height":15,"fixation_cross_color":"#111","fixation_cross_thickness":1,"border":true,"border_thickness":2,"border_color":"transparent","canvas_width":1280,"canvas_height":720,"trial_type":"rdk","trial_index":88,"plugin_version":"2.0.0","time_elapsed":281691},{"rt":2486,"stimulus":"\n        <div class=\"response-container\">\n          <div class=\"response-instruction\">\n            <p>rotate the bar by using the left and right arrow keys.</p>\n            <p>when you are determined, press the Enter key.</p>\n          </div>\n          <div class=\"response-circle\">\n            <div class=\"response-fixation\"></div>\n            <div id=\"bar\" class=\"rotating-bar\"></div>\n          </div>\n        </div>\n      ","response":"Enter","trial_type":"html-keyboard-response","trial_index":89,"plugin_version":"2.1.0","time_elapsed":284178,"random_initial_angle":332,"response_angle_css":397,"response_angle_rdk":53,"angular_error_target":-141,"angular_error_distractor":-19,"target_direction":194,"target_group":"white","reward_points":0},{"rt":null,"stimulus":"\n          <p style=\"color: #FF3333;\">Your reward: 0 points</p>\n        ","response":null,"trial_type":"html-keyboard-response","trial_index":90,"plugin_version":"2.1.0","time_elapsed":286180},{"rt":null,"stimulus":"<div class=\"fixation\" style=\"font-size: 60px;\">+</div>","response":null,"trial_type":"html-keyboard-response","trial_index":91,"plugin_version":"2.1.0","time_elapsed":287196},{"phase":"learning-awareness","target_group":"black","condition_label":"B_H_vs_W_L_rep14","target_direction":262,"distractor_direction":11,"session_rotation":161,"rt":-1,"response":"","correct":false,"choices":"ALL_KEYS","correct_choice":["a"],"trial_duration":2000,"flip_timestamps":[],"response_ends_trial":false,"number_of_apertures":200,"number_of_dots":[1,1,1,1,1,1,1,1,1,1,1,1,1,1,1,1,1,1,1,1,1,1,1,1,1,1,1,1,1,1,1,1,1,1,1,1,1,1,1,1,1,1,1,1,1,1,1,1,1,1,1,1,1,1,1,1,1,1,1,1,1,1,1,1,1,1,1,1,1,1,1,1,1,1,1,1,1,1,1,1,1,1,1,1,1,1,1,1,1,1,1,1,1,1,1,1,1,1,1,1,1,1,1,1,1,1,1,1,1,1,1,1,1,1,1,1,1,1,1,1,1,1,1,1,1,1,1,1,1,1,1,1,1,1,1,1,1,1,1,1,1,1,1,1,1,1,1,1,1,1,1,1,1,1,1,1,1,1,1,1,1,1,1,1,1,1,1,1,1,1,1,1,1,1,1,1,1,1,1,1,1,1,1,1,1,1,1,1,1,1,1,1,1,1,1,1,1,1,1,1],"number_of_sets":1,"coherent_direction":[11,262,11,11,262,11,262,11,262,11,262,262,11,262,262,262,11,11,262,11,262,11,11,262,11,11,262,262,262,11,11,262,262,11,262,11,262,262,11,11,11,11,262,11,262,262,262,11,262,262,11,11,262,262,11,262,262,11,11,11,11,262,11,262,11,11,11,11,11,11,262,262,11,11,262,262,11,11,262,11,11,262,262,262,11,262,262,11,262,11,11,11,262,262,262,262,262,262,11,262,11,262,262,262,262,262,262,262,262,11,11,11,262,11,262,11,11,262,262,262,11,262,11,11,262,11,11,262,262,11,11,262,262,11,262,262,11,262,262,262,11,11,262,11,11,11,11,262,11,11,262,262,11,262,11,11,11,11,262,262,262,262,11,11,11,11,262,262,11,262,262,262,11,11,11,262,262,262,11,262,262,262,262,11,11,11,262,262,11,262,11,11,11,262,11,11,11,11,11,262],"coherence":1,"opposite_coherence":0,"dot_radius":2,"dot_side_length":1,"dot_life":-1,"move_distance":1,"aperture_width":300,"aperture_height":300,"dot_color":["white","black","white","white","black","white","black","white","black","white","black","black","white","black","black","black","white","white","black","white","black","white","white","black","white","white","black","black","black","white","white","black","black","white","black","white","black","black","white","white","white","white","black","white","black","black","black","white","black","black","white","white","black","black","white","black","black","white","white","white","white","black","white","black","white","white","white","white","white","white","black","black","white","white","black","black","white","white","black","white","white","black","black","black","white","black","black","white","black","white","white","white","black","black","black","black","black","black","white","black","white","black","black","black","black","black","black","black","black","white","white","white","black","white","black","white","white","black","black","black","white","black","white","white","black","white","white","black","black","white","white","black","black","white","black","black","white","black","black","black","white","white","black","white","white","white","white","black","white","white","black","black","white","black","white","white","white","white","black","black","black","black","white","white","white","white","black","black","white","black","black","black","white","white","white","black","black","black","white","black","black","black","black","white","white","white","black","black","white","black","white","white","white","black","white","white","white","white","white","black"],"dot_shape":"circle","background_color":"#AAA","RDK_type":3,"aperture_type":2,"reinsert_type":2,"frame_rate":33.083333333333336,"frame_rate_array":[24,34,33,35,32,32,34,33,33,33,33,33,34,33,33,34,34,33,33,33,33,33,34,34,33,34,33,33,33,33,33,33,33,33,33,34,33,33,34,34,34,34,33,33,33,33,33,33,33,33,33,33,33,33,33,34,33,33,33,33],"number_of_frames":60,"aperture_center_x":640,"aperture_center_y":360,"fixation_cross":true,"fixation_cross_width":15,"fixation_cross_height":15,"fixation_cross_color":"#111","fixation_cross_thickness":1,"border":true,"border_thickness":2,"border_color":"transparent","canvas_width":1280,"canvas_height":720,"trial_type":"rdk","trial_index":92,"plugin_version":"2.0.0","time_elapsed":289207},{"rt":3495,"stimulus":"\n        <div class=\"response-container\">\n          <div class=\"response-instruction\">\n            <p>rotate the bar by using the left and right arrow keys.</p>\n            <p>when you are determined, press the Enter key.</p>\n          </div>\n          <div class=\"response-circle\">\n            <div class=\"response-fixation\"></div>\n            <div id=\"bar\" class=\"rotating-bar\"></div>\n          </div>\n        </div>\n      ","response":"Enter","trial_type":"html-keyboard-response","trial_index":93,"plugin_version":"2.1.0","time_elapsed":292703,"random_initial_angle":88,"response_angle_css":184,"response_angle_rdk":266,"angular_error_target":4,"angular_error_distractor":-105,"target_direction":262,"target_group":"black","reward_points":9},{"rt":null,"stimulus":"\n          <p style=\"color: #00FF00;\">Your reward: 9 points</p>\n        ","response":null,"trial_type":"html-keyboard-response","trial_index":94,"plugin_version":"2.1.0","time_elapsed":294716},{"rt":null,"stimulus":"<div class=\"fixation\" style=\"font-size: 60px;\">+</div>","response":null,"trial_type":"html-keyboard-response","trial_index":95,"plugin_version":"2.1.0","time_elapsed":295719},{"phase":"learning-awareness","target_group":"black","condition_label":"B_H_vs_W_L_rep20","target_direction":268,"distractor_direction":11,"session_rotation":161,"rt":-1,"response":"","correct":false,"choices":"ALL_KEYS","correct_choice":["a"],"trial_duration":2000,"flip_timestamps":[],"response_ends_trial":false,"number_of_apertures":200,"number_of_dots":[1,1,1,1,1,1,1,1,1,1,1,1,1,1,1,1,1,1,1,1,1,1,1,1,1,1,1,1,1,1,1,1,1,1,1,1,1,1,1,1,1,1,1,1,1,1,1,1,1,1,1,1,1,1,1,1,1,1,1,1,1,1,1,1,1,1,1,1,1,1,1,1,1,1,1,1,1,1,1,1,1,1,1,1,1,1,1,1,1,1,1,1,1,1,1,1,1,1,1,1,1,1,1,1,1,1,1,1,1,1,1,1,1,1,1,1,1,1,1,1,1,1,1,1,1,1,1,1,1,1,1,1,1,1,1,1,1,1,1,1,1,1,1,1,1,1,1,1,1,1,1,1,1,1,1,1,1,1,1,1,1,1,1,1,1,1,1,1,1,1,1,1,1,1,1,1,1,1,1,1,1,1,1,1,1,1,1,1,1,1,1,1,1,1,1,1,1,1,1,1],"number_of_sets":1,"coherent_direction":[268,11,11,268,11,11,268,11,11,268,11,11,268,11,11,268,11,11,268,268,11,268,11,11,268,11,11,268,268,268,268,268,268,268,268,11,268,11,11,268,11,11,11,11,11,11,268,268,11,268,268,11,268,11,11,268,268,11,268,268,11,268,268,11,268,11,268,11,268,11,268,11,11,268,11,11,268,268,268,11,11,268,11,11,11,268,11,268,268,11,268,268,11,268,268,11,268,268,268,11,268,268,268,11,11,11,268,11,268,268,268,11,11,268,268,268,11,268,11,11,268,268,268,268,11,268,11,11,268,11,11,11,11,268,11,268,11,268,268,11,11,268,268,268,268,268,11,11,11,268,11,268,11,11,11,268,268,268,11,11,268,11,268,11,11,268,268,11,11,11,11,11,11,11,268,11,11,11,268,268,11,268,11,268,268,11,268,268,268,268,11,11,268,268,11,268,268,11,11,268],"coherence":1,"opposite_coherence":0,"dot_radius":2,"dot_side_length":1,"dot_life":-1,"move_distance":1,"aperture_width":300,"aperture_height":300,"dot_color":["black","white","white","black","white","white","black","white","white","black","white","white","black","white","white","black","white","white","black","black","white","black","white","white","black","white","white","black","black","black","black","black","black","black","black","white","black","white","white","black","white","white","white","white","white","white","black","black","white","black","black","white","black","white","white","black","black","white","black","black","white","black","black","white","black","white","black","white","black","white","black","white","white","black","white","white","black","black","black","white","white","black","white","white","white","black","white","black","black","white","black","black","white","black","black","white","black","black","black","white","black","black","black","white","white","white","black","white","black","black","black","white","white","black","black","black","white","black","white","white","black","black","black","black","white","black","white","white","black","white","white","white","white","black","white","black","white","black","black","white","white","black","black","black","black","black","white","white","white","black","white","black","white","white","white","black","black","black","white","white","black","white","black","white","white","black","black","white","white","white","white","white","white","white","black","white","white","white","black","black","white","black","white","black","black","white","black","black","black","black","white","white","black","black","white","black","black","white","white","black"],"dot_shape":"circle","background_color":"#AAA","RDK_type":3,"aperture_type":2,"reinsert_type":2,"frame_rate":32.983333333333334,"frame_rate_array":[17,34,33,33,33,33,33,33,33,33,33,34,33,33,34,33,33,34,33,33,33,33,33,33,34,34,33,33,34,33,33,34,33,33,34,33,33,34,33,33,34,33,34,33,33,34,33,34,33,34,33,33,33,33,33,33,33,33,33,33],"number_of_frames":60,"aperture_center_x":640,"aperture_center_y":360,"fixation_cross":true,"fixation_cross_width":15,"fixation_cross_height":15,"fixation_cross_color":"#111","fixation_cross_thickness":1,"border":true,"border_thickness":2,"border_color":"transparent","canvas_width":1280,"canvas_height":720,"trial_type":"rdk","trial_index":96,"plugin_version":"2.0.0","time_elapsed":297729},{"rt":3320,"stimulus":"\n        <div class=\"response-container\">\n          <div class=\"response-instruction\">\n            <p>rotate the bar by using the left and right arrow keys.</p>\n            <p>when you are determined, press the Enter key.</p>\n          </div>\n          <div class=\"response-circle\">\n            <div class=\"response-fixation\"></div>\n            <div id=\"bar\" class=\"rotating-bar\"></div>\n          </div>\n        </div>\n      ","response":"Enter","trial_type":"html-keyboard-response","trial_index":97,"plugin_version":"2.1.0","time_elapsed":301050,"random_initial_angle":320,"response_angle_css":401,"response_angle_rdk":49,"angular_error_target":141,"angular_error_distractor":38,"target_direction":268,"target_group":"black","reward_points":0},{"rt":null,"stimulus":"\n          <p style=\"color: #FF3333;\">Your reward: 0 points</p>\n        ","response":null,"trial_type":"html-keyboard-response","trial_index":98,"plugin_version":"2.1.0","time_elapsed":303052},{"rt":null,"stimulus":"<div class=\"fixation\" style=\"font-size: 60px;\">+</div>","response":null,"trial_type":"html-keyboard-response","trial_index":99,"plugin_version":"2.1.0","time_elapsed":304056},{"phase":"learning-awareness","target_group":"black","condition_label":"B_H_vs_W_L_rep8","target_direction":275,"distractor_direction":7,"session_rotation":161,"rt":-1,"response":"","correct":false,"choices":"ALL_KEYS","correct_choice":["a"],"trial_duration":2000,"flip_timestamps":[],"response_ends_trial":false,"number_of_apertures":200,"number_of_dots":[1,1,1,1,1,1,1,1,1,1,1,1,1,1,1,1,1,1,1,1,1,1,1,1,1,1,1,1,1,1,1,1,1,1,1,1,1,1,1,1,1,1,1,1,1,1,1,1,1,1,1,1,1,1,1,1,1,1,1,1,1,1,1,1,1,1,1,1,1,1,1,1,1,1,1,1,1,1,1,1,1,1,1,1,1,1,1,1,1,1,1,1,1,1,1,1,1,1,1,1,1,1,1,1,1,1,1,1,1,1,1,1,1,1,1,1,1,1,1,1,1,1,1,1,1,1,1,1,1,1,1,1,1,1,1,1,1,1,1,1,1,1,1,1,1,1,1,1,1,1,1,1,1,1,1,1,1,1,1,1,1,1,1,1,1,1,1,1,1,1,1,1,1,1,1,1,1,1,1,1,1,1,1,1,1,1,1,1,1,1,1,1,1,1,1,1,1,1,1,1],"number_of_sets":1,"coherent_direction":[275,7,7,7,7,275,275,275,275,7,7,7,7,275,7,7,7,7,7,275,7,275,275,7,275,275,275,275,275,275,7,275,7,275,275,275,275,7,275,275,275,7,275,275,275,275,275,7,7,275,275,275,275,7,275,275,275,7,275,7,7,275,275,7,7,7,7,275,275,7,7,275,7,7,7,7,275,275,7,275,7,275,7,7,7,275,7,7,275,275,275,7,7,7,275,7,275,7,7,275,275,7,7,7,7,7,275,7,275,7,7,275,7,7,275,275,275,275,7,7,7,275,7,7,275,275,7,7,7,7,7,275,275,7,275,275,7,7,7,7,275,275,7,7,7,7,275,275,7,275,7,275,275,7,7,275,275,275,275,7,275,7,7,7,275,275,7,7,7,275,275,275,7,7,275,7,7,275,275,275,275,7,275,275,275,275,7,7,275,7,7,275,275,275,275,275,275,7,7,7],"coherence":1,"opposite_coherence":0,"dot_radius":2,"dot_side_length":1,"dot_life":-1,"move_distance":1,"aperture_width":300,"aperture_height":300,"dot_color":["black","white","white","white","white","black","black","black","black","white","white","white","white","black","white","white","white","white","white","black","white","black","black","white","black","black","black","black","black","black","white","black","white","black","black","black","black","white","black","black","black","white","black","black","black","black","black","white","white","black","black","black","black","white","black","black","black","white","black","white","white","black","black","white","white","white","white","black","black","white","white","black","white","white","white","white","black","black","white","black","white","black","white","white","white","black","white","white","black","black","black","white","white","white","black","white","black","white","white","black","black","white","white","white","white","white","black","white","black","white","white","black","white","white","black","black","black","black","white","white","white","black","white","white","black","black","white","white","white","white","white","black","black","white","black","black","white","white","white","white","black","black","white","white","white","white","black","black","white","black","white","black","black","white","white","black","black","black","black","white","black","white","white","white","black","black","white","white","white","black","black","black","white","white","black","white","white","black","black","black","black","white","black","black","black","black","white","white","black","white","white","black","black","black","black","black","black","white","white","white"],"dot_shape":"circle","background_color":"#AAA","RDK_type":3,"aperture_type":2,"reinsert_type":2,"frame_rate":33.28333333333333,"frame_rate_array":[30,33,33,33,33,33,33,34,34,33,34,34,33,33,33,33,33,33,34,32,34,34,33,34,33,34,33,33,33,33,33,33,33,33,33,33,34,34,33,33,34,34,33,34,33,33,34,33,34,33,33,34,34,33,34,33,33,36,32,33],"number_of_frames":60,"aperture_center_x":640,"aperture_center_y":360,"fixation_cross":true,"fixation_cross_width":15,"fixation_cross_height":15,"fixation_cross_color":"#111","fixation_cross_thickness":1,"border":true,"border_thickness":2,"border_color":"transparent","canvas_width":1280,"canvas_height":720,"trial_type":"rdk","trial_index":100,"plugin_version":"2.0.0","time_elapsed":306060},{"rt":2232,"stimulus":"\n        <div class=\"response-container\">\n          <div class=\"response-instruction\">\n            <p>rotate the bar by using the left and right arrow keys.</p>\n            <p>when you are determined, press the Enter key.</p>\n          </div>\n          <div class=\"response-circle\">\n            <div class=\"response-fixation\"></div>\n            <div id=\"bar\" class=\"rotating-bar\"></div>\n          </div>\n        </div>\n      ","response":"Enter","trial_type":"html-keyboard-response","trial_index":101,"plugin_version":"2.1.0","time_elapsed":308293,"random_initial_angle":127,"response_angle_css":178,"response_angle_rdk":272,"angular_error_target":-3,"angular_error_distractor":-95,"target_direction":275,"target_group":"black","reward_points":9},{"rt":null,"stimulus":"\n          <p style=\"color: #00FF00;\">Your reward: 9 points</p>\n        ","response":null,"trial_type":"html-keyboard-response","trial_index":102,"plugin_version":"2.1.0","time_elapsed":310307},{"rt":null,"stimulus":"<div class=\"fixation\" style=\"font-size: 60px;\">+</div>","response":null,"trial_type":"html-keyboard-response","trial_index":103,"plugin_version":"2.1.0","time_elapsed":311323},{"phase":"learning-awareness","target_group":"white","condition_label":"W_H_vs_B_L_rep4","target_direction":194,"distractor_direction":74,"session_rotation":161,"rt":-1,"response":"","correct":false,"choices":"ALL_KEYS","correct_choice":["a"],"trial_duration":2000,"flip_timestamps":[],"response_ends_trial":false,"number_of_apertures":200,"number_of_dots":[1,1,1,1,1,1,1,1,1,1,1,1,1,1,1,1,1,1,1,1,1,1,1,1,1,1,1,1,1,1,1,1,1,1,1,1,1,1,1,1,1,1,1,1,1,1,1,1,1,1,1,1,1,1,1,1,1,1,1,1,1,1,1,1,1,1,1,1,1,1,1,1,1,1,1,1,1,1,1,1,1,1,1,1,1,1,1,1,1,1,1,1,1,1,1,1,1,1,1,1,1,1,1,1,1,1,1,1,1,1,1,1,1,1,1,1,1,1,1,1,1,1,1,1,1,1,1,1,1,1,1,1,1,1,1,1,1,1,1,1,1,1,1,1,1,1,1,1,1,1,1,1,1,1,1,1,1,1,1,1,1,1,1,1,1,1,1,1,1,1,1,1,1,1,1,1,1,1,1,1,1,1,1,1,1,1,1,1,1,1,1,1,1,1,1,1,1,1,1,1],"number_of_sets":1,"coherent_direction":[194,74,194,194,74,194,74,74,194,194,194,74,74,194,194,194,74,74,74,194,74,194,74,74,194,194,74,194,74,74,74,194,194,74,194,194,74,74,74,194,194,194,194,74,74,74,74,194,194,194,194,74,74,194,74,194,74,74,74,194,194,74,74,194,74,74,194,74,74,194,74,74,74,74,74,74,74,74,74,74,194,74,194,194,194,194,74,194,194,194,194,194,194,74,74,194,74,194,74,194,74,194,194,74,74,194,194,194,74,194,194,74,74,194,74,74,194,74,194,74,194,74,74,74,194,194,74,74,194,194,74,74,194,74,194,74,194,74,74,194,194,74,74,74,194,74,194,74,194,74,74,194,194,74,74,194,74,194,194,194,194,194,194,74,194,74,194,74,74,74,194,194,74,194,194,194,194,74,74,74,74,74,74,194,74,194,194,194,194,194,74,74,194,194,194,194,194,194,74,74],"coherence":1,"opposite_coherence":0,"dot_radius":2,"dot_side_length":1,"dot_life":-1,"move_distance":1,"aperture_width":300,"aperture_height":300,"dot_color":["white","black","white","white","black","white","black","black","white","white","white","black","black","white","white","white","black","black","black","white","black","white","black","black","white","white","black","white","black","black","black","white","white","black","white","white","black","black","black","white","white","white","white","black","black","black","black","white","white","white","white","black","black","white","black","white","black","black","black","white","white","black","black","white","black","black","white","black","black","white","black","black","black","black","black","black","black","black","black","black","white","black","white","white","white","white","black","white","white","white","white","white","white","black","black","white","black","white","black","white","black","white","white","black","black","white","white","white","black","white","white","black","black","white","black","black","white","black","white","black","white","black","black","black","white","white","black","black","white","white","black","black","white","black","white","black","white","black","black","white","white","black","black","black","white","black","white","black","white","black","black","white","white","black","black","white","black","white","white","white","white","white","white","black","white","black","white","black","black","black","white","white","black","white","white","white","white","black","black","black","black","black","black","white","black","white","white","white","white","white","black","black","white","white","white","white","white","white","black","black"],"dot_shape":"circle","background_color":"#AAA","RDK_type":3,"aperture_type":2,"reinsert_type":2,"frame_rate":33.21666666666667,"frame_rate_array":[28,33,34,33,33,33,34,33,33,33,33,33,34,33,33,33,34,33,33,34,34,33,33,33,34,33,33,33,33,34,33,33,34,33,33,33,34,33,34,34,34,33,33,34,33,33,33,34,33,33,33,34,33,34,33,33,34,33,33,33],"number_of_frames":60,"aperture_center_x":640,"aperture_center_y":360,"fixation_cross":true,"fixation_cross_width":15,"fixation_cross_height":15,"fixation_cross_color":"#111","fixation_cross_thickness":1,"border":true,"border_thickness":2,"border_color":"transparent","canvas_width":1280,"canvas_height":720,"trial_type":"rdk","trial_index":104,"plugin_version":"2.0.0","time_elapsed":313337},{"rt":2082,"stimulus":"\n        <div class=\"response-container\">\n          <div class=\"response-instruction\">\n            <p>rotate the bar by using the left and right arrow keys.</p>\n            <p>when you are determined, press the Enter key.</p>\n          </div>\n          <div class=\"response-circle\">\n            <div class=\"response-fixation\"></div>\n            <div id=\"bar\" class=\"rotating-bar\"></div>\n          </div>\n        </div>\n      ","response":"Enter","trial_type":"html-keyboard-response","trial_index":105,"plugin_version":"2.1.0","time_elapsed":315420,"random_initial_angle":267,"response_angle_css":235,"response_angle_rdk":215,"angular_error_target":21,"angular_error_distractor":141,"target_direction":194,"target_group":"white","reward_points":5},{"rt":null,"stimulus":"\n          <p style=\"color: #00FF00;\">Your reward: 5 points</p>\n        ","response":null,"trial_type":"html-keyboard-response","trial_index":106,"plugin_version":"2.1.0","time_elapsed":317423},{"rt":null,"stimulus":"<div class=\"fixation\" style=\"font-size: 60px;\">+</div>","response":null,"trial_type":"html-keyboard-response","trial_index":107,"plugin_version":"2.1.0","time_elapsed":318434},{"phase":"learning-awareness","target_group":"white","condition_label":"W_H_vs_B_L_rep14","target_direction":203,"distractor_direction":84,"session_rotation":161,"rt":-1,"response":"","correct":false,"choices":"ALL_KEYS","correct_choice":["a"],"trial_duration":2000,"flip_timestamps":[],"response_ends_trial":false,"number_of_apertures":200,"number_of_dots":[1,1,1,1,1,1,1,1,1,1,1,1,1,1,1,1,1,1,1,1,1,1,1,1,1,1,1,1,1,1,1,1,1,1,1,1,1,1,1,1,1,1,1,1,1,1,1,1,1,1,1,1,1,1,1,1,1,1,1,1,1,1,1,1,1,1,1,1,1,1,1,1,1,1,1,1,1,1,1,1,1,1,1,1,1,1,1,1,1,1,1,1,1,1,1,1,1,1,1,1,1,1,1,1,1,1,1,1,1,1,1,1,1,1,1,1,1,1,1,1,1,1,1,1,1,1,1,1,1,1,1,1,1,1,1,1,1,1,1,1,1,1,1,1,1,1,1,1,1,1,1,1,1,1,1,1,1,1,1,1,1,1,1,1,1,1,1,1,1,1,1,1,1,1,1,1,1,1,1,1,1,1,1,1,1,1,1,1,1,1,1,1,1,1,1,1,1,1,1,1],"number_of_sets":1,"coherent_direction":[203,203,84,84,203,84,84,203,84,203,203,84,203,203,203,203,203,84,203,203,84,84,203,203,84,84,84,84,203,203,84,203,84,84,203,203,203,203,84,203,84,84,84,84,84,203,203,203,84,203,84,203,84,203,84,203,84,203,84,203,203,203,84,203,84,203,84,84,203,84,203,203,203,84,203,203,203,84,203,203,203,203,203,84,84,84,203,84,84,84,84,203,203,203,203,84,203,84,203,203,203,84,84,203,203,203,203,203,84,84,84,84,203,203,203,84,84,203,203,84,84,203,84,84,203,84,203,203,84,84,203,84,84,203,84,203,203,203,84,203,84,84,84,84,84,84,84,203,84,203,84,84,84,84,84,203,203,203,203,84,84,203,84,84,203,203,203,203,84,84,203,84,84,203,203,203,84,203,203,84,84,84,84,203,84,203,84,84,203,84,84,84,84,203,84,84,203,84,203,84],"coherence":1,"opposite_coherence":0,"dot_radius":2,"dot_side_length":1,"dot_life":-1,"move_distance":1,"aperture_width":300,"aperture_height":300,"dot_color":["white","white","black","black","white","black","black","white","black","white","white","black","white","white","white","white","white","black","white","white","black","black","white","white","black","black","black","black","white","white","black","white","black","black","white","white","white","white","black","white","black","black","black","black","black","white","white","white","black","white","black","white","black","white","black","white","black","white","black","white","white","white","black","white","black","white","black","black","white","black","white","white","white","black","white","white","white","black","white","white","white","white","white","black","black","black","white","black","black","black","black","white","white","white","white","black","white","black","white","white","white","black","black","white","white","white","white","white","black","black","black","black","white","white","white","black","black","white","white","black","black","white","black","black","white","black","white","white","black","black","white","black","black","white","black","white","white","white","black","white","black","black","black","black","black","black","black","white","black","white","black","black","black","black","black","white","white","white","white","black","black","white","black","black","white","white","white","white","black","black","white","black","black","white","white","white","black","white","white","black","black","black","black","white","black","white","black","black","white","black","black","black","black","white","black","black","white","black","white","black"],"dot_shape":"circle","background_color":"#AAA","RDK_type":3,"aperture_type":2,"reinsert_type":2,"frame_rate":33.016666666666666,"frame_rate_array":[16,34,33,33,33,33,33,34,33,34,34,33,33,34,33,33,33,34,34,33,34,33,33,34,33,33,33,34,33,33,33,33,33,33,34,34,33,34,32,34,33,33,34,33,33,33,33,33,33,33,39,29,33,34,33,33,33,33,33,34],"number_of_frames":60,"aperture_center_x":640,"aperture_center_y":360,"fixation_cross":true,"fixation_cross_width":15,"fixation_cross_height":15,"fixation_cross_color":"#111","fixation_cross_thickness":1,"border":true,"border_thickness":2,"border_color":"transparent","canvas_width":1280,"canvas_height":720,"trial_type":"rdk","trial_index":108,"plugin_version":"2.0.0","time_elapsed":320445},{"rt":3255,"stimulus":"\n        <div class=\"response-container\">\n          <div class=\"response-instruction\">\n            <p>rotate the bar by using the left and right arrow keys.</p>\n            <p>when you are determined, press the Enter key.</p>\n          </div>\n          <div class=\"response-circle\">\n            <div class=\"response-fixation\"></div>\n            <div id=\"bar\" class=\"rotating-bar\"></div>\n          </div>\n        </div>\n      ","response":"Enter","trial_type":"html-keyboard-response","trial_index":109,"plugin_version":"2.1.0","time_elapsed":323700,"random_initial_angle":69,"response_angle_css":39,"response_angle_rdk":51,"angular_error_target":-152,"angular_error_distractor":-33,"target_direction":203,"target_group":"white","reward_points":0},{"rt":null,"stimulus":"\n          <p style=\"color: #FF3333;\">Your reward: 0 points</p>\n        ","response":null,"trial_type":"html-keyboard-response","trial_index":110,"plugin_version":"2.1.0","time_elapsed":325708},{"rt":null,"stimulus":"<div class=\"fixation\" style=\"font-size: 60px;\">+</div>","response":null,"trial_type":"html-keyboard-response","trial_index":111,"plugin_versio