[{"rt":5828,"stimulus":"Welcome to the experiment. Press any key to begin.","response":" ","trial_type":"html-keyboard-response","trial_index":0,"plugin_version":"2.1.0","time_elapsed":5837},{"rt":130290,"stimulus":"\n        <div class=\"instructions-container\">\n          <h2>Instructions</h2>\n\n          <p>\n          In this experiment, you will see <strong>two Random Dot Kinematograms (RDKs)</strong> displayed simultaneously.\n          </p>\n\n          <p>\n          An RDK is a visual stimulus consisting of many small dots that move coherently in a single direction. \n          In this experiment, the dots will be either <strong>white</strong> or <strong>black</strong> \n          (see the short demo below for an example of an RDK stimulus).\n          </p>\n\n          <p>\n          On each trial, the two RDKs will move in different directions. \n          Your task is to decide <strong>which RDK appears to contain more dots</strong>.\n          </p>\n\n          <p>\n          The RDK that you judge to have more dots is called the <strong>target RDK</strong>. \n          For example, if the white RDK appears to have more dots than the black RDK, \n          you should report the motion direction of the white RDK.\n          </p>\n\n          <p>\n          After viewing the RDKs, you will rotate a bar to indicate the perceived direction of the target RDK \n          using the <strong>left</strong> and <strong>right arrow keys</strong>. \n          Press <strong>Enter</strong> when you are satisfied with your response.\n          </p>\n\n          <p>\n          You will receive points based on the <strong>accuracy of your response</strong>, \n          and your final <strong>bonus reward</strong> may depend on your overall performance. \n          Please try to respond as accurately as possible.\n          </p>\n\n          <p>\n          You will first complete <strong>16 practice trials</strong>. \n          Press the <strong>Enter</strong> key to start the practice phase.\n          </p>\n\n          <canvas id=\"instruction-demo-rdk\" width=\"200\" height=\"200\"style=\"display:block;margin:12px auto; border-radius: 50%;\"></canvas>\n        </div>\n      ","response":"Enter","trial_type":"html-keyboard-response","trial_index":1,"plugin_version":"2.1.0","time_elapsed":136139},{"rt":null,"stimulus":"<div class=\"fixation\" style=\"font-size: 60px;\">+</div>","response":null,"trial_type":"html-keyboard-response","trial_index":2,"plugin_version":"2.1.0","time_elapsed":137154},{"target_group":"white","target_index":0,"condition_label":"practice","rt":-1,"response":"","correct":false,"choices":"ALL_KEYS","correct_choice":["a"],"trial_duration":2000,"flip_timestamps":[],"response_ends_trial":false,"number_of_apertures":2,"number_of_dots":[100,83],"number_of_sets":1,"coherent_direction":[184,92],"coherence":1,"opposite_coherence":0,"dot_radius":2,"dot_side_length":1,"dot_life":-1,"move_distance":1,"aperture_width":300,"aperture_height":300,"dot_color":["white","black"],"dot_shape":"circle","background_color":"#AAA","RDK_type":3,"aperture_type":2,"reinsert_type":2,"frame_rate":22.03409090909091,"frame_rate_array":[125,35,305,14,17,16,17,16,19,15,19,14,19,33,22,43,17,17,16,17,16,17,19,17,17,16,15,16,17,16,18,17,17,19,17,15,17,17,17,19,16,17,15,16,17,17,17,17,21,18,19,9,16,17,17,19,20,13,16,17,16,16,17,19,15,17,18,16,17,16,16,17,17,18,17,17,16,17,18,15,17,17,15,16,17,19,18,16],"number_of_frames":88,"aperture_center_x":768,"aperture_center_y":432,"fixation_cross":true,"fixation_cross_width":15,"fixation_cross_height":15,"fixation_cross_color":"#111","fixation_cross_thickness":1,"border":true,"border_thickness":2,"border_color":"transparent","canvas_width":1536,"canvas_height":864,"trial_type":"rdk","trial_index":3,"plugin_version":"2.0.0","time_elapsed":139166,"target_direction":184,"distractor_direction":92},{"rt":21991,"stimulus":"\n        <div class=\"response-container\">\n          <div class=\"response-instruction\">\n            <p>rotate the bar by using the left and right arrow keys.</p>\n            <p>when you are determined, press the Enter key.</p>\n          </div>\n          <div class=\"response-circle\">\n            <div class=\"response-fixation\"></div>\n            <div id=\"bar\" class=\"rotating-bar\"></div>\n          </div>\n        </div>\n      ","response":"Enter","trial_type":"html-keyboard-response","trial_index":4,"plugin_version":"2.1.0","time_elapsed":161161,"random_initial_angle":173,"response_angle_css":214,"response_angle_rdk":236,"angular_error_target":52,"angular_error_distractor":144,"target_direction":184,"target_group":"white","reward_points":0},{"rt":null,"stimulus":"\n          <p style=\"color: #FF3333;\">Your reward: 0 points</p>\n        ","response":null,"trial_type":"html-keyboard-response","trial_index":5,"plugin_version":"2.1.0","time_elapsed":163168},{"rt":null,"stimulus":"<div class=\"fixation\" style=\"font-size: 60px;\">+</div>","response":null,"trial_type":"html-keyboard-response","trial_index":6,"plugin_version":"2.1.0","time_elapsed":164184},{"target_group":"black","target_index":1,"condition_label":"practice","rt":-1,"response":"","correct":false,"choices":"ALL_KEYS","correct_choice":["a"],"trial_duration":2000,"flip_timestamps":[],"response_ends_trial":false,"number_of_apertures":2,"number_of_dots":[81,100],"number_of_sets":1,"coherent_direction":[324,59],"coherence":1,"opposite_coherence":0,"dot_radius":2,"dot_side_length":1,"dot_life":-1,"move_distance":1,"aperture_width":300,"aperture_height":300,"dot_color":["white","black"],"dot_shape":"circle","background_color":"#AAA","RDK_type":3,"aperture_type":2,"reinsert_type":2,"frame_rate":16.6864406779661,"frame_rate_array":[17,5,11,16,10,18,17,17,16,18,17,19,15,18,33,16,18,14,17,17,17,17,16,17,16,18,16,17,17,16,17,20,19,10,18,17,16,26,6,16,17,17,19,16,17,17,15,18,16,17,17,17,16,17,16,17,17,16,17,17,17,16,17,17,16,18,16,17,17,17,16,17,17,16,17,16,15,17,18,16,17,15,17,17,17,17,17,16,17,17,17,17,23,10,16,16,17,17,17,16,17,17,17,17,17,17,16,18,17,17,17,17,17,17,17,17,17,17],"number_of_frames":118,"aperture_center_x":768,"aperture_center_y":432,"fixation_cross":true,"fixation_cross_width":15,"fixation_cross_height":15,"fixation_cross_color":"#111","fixation_cross_thickness":1,"border":true,"border_thickness":2,"border_color":"transparent","canvas_width":1536,"canvas_height":864,"trial_type":"rdk","trial_index":7,"plugin_version":"2.0.0","time_elapsed":166205,"target_direction":59,"distractor_direction":324},{"rt":8587,"stimulus":"\n        <div class=\"response-container\">\n          <div class=\"response-instruction\">\n            <p>rotate the bar by using the left and right arrow keys.</p>\n            <p>when you are determined, press the Enter key.</p>\n          </div>\n          <div class=\"response-circle\">\n            <div class=\"response-fixation\"></div>\n            <div id=\"bar\" class=\"rotating-bar\"></div>\n          </div>\n        </div>\n      ","response":"Enter","trial_type":"html-keyboard-response","trial_index":8,"plugin_version":"2.1.0","time_elapsed":174797,"random_initial_angle":115,"response_angle_css":65,"response_angle_rdk":25,"angular_error_target":-34,"angular_error_distractor":61,"target_direction":59,"target_group":"black","reward_points":3},{"rt":null,"stimulus":"\n          <p style=\"color: #00FF00;\">Your reward: 3 points</p>\n        ","response":null,"trial_type":"html-keyboard-response","trial_index":9,"plugin_version":"2.1.0","time_elapsed":176807},{"rt":null,"stimulus":"<div class=\"fixation\" style=\"font-size: 60px;\">+</div>","response":null,"trial_type":"html-keyboard-response","trial_index":10,"plugin_version":"2.1.0","time_elapsed":177821},{"target_group":"white","target_index":0,"condition_label":"practice","rt":-1,"response":"","correct":false,"choices":"ALL_KEYS","correct_choice":["a"],"trial_duration":2000,"flip_timestamps":[],"response_ends_trial":false,"number_of_apertures":2,"number_of_dots":[100,52],"number_of_sets":1,"coherent_direction":[53,198],"coherence":1,"opposite_coherence":0,"dot_radius":2,"dot_side_length":1,"dot_life":-1,"move_distance":1,"aperture_width":300,"aperture_height":300,"dot_color":["white","black"],"dot_shape":"circle","background_color":"#AAA","RDK_type":3,"aperture_type":2,"reinsert_type":2,"frame_rate":16.85,"frame_rate_array":[8,6,18,16,18,15,18,36,13,19,13,19,15,17,17,17,17,17,16,17,17,17,17,14,17,17,17,17,17,17,17,17,17,17,17,17,17,16,17,17,17,17,17,17,17,16,17,17,17,17,17,17,17,17,17,17,17,17,17,17,16,17,17,17,17,17,17,17,17,17,17,17,16,17,16,17,17,17,17,17,17,16,17,17,17,17,17,17,17,17,17,16,17,18,17,17,17,17,16,17,16,17,17,17,17,17,17,17,17,16,16,17,16,17,17,17,17,17,17,21],"number_of_frames":120,"aperture_center_x":768,"aperture_center_y":432,"fixation_cross":true,"fixation_cross_width":15,"fixation_cross_height":15,"fixation_cross_color":"#111","fixation_cross_thickness":1,"border":true,"border_thickness":2,"border_color":"transparent","canvas_width":1536,"canvas_height":864,"trial_type":"rdk","trial_index":11,"plugin_version":"2.0.0","time_elapsed":179832,"target_direction":53,"distractor_direction":198},{"rt":8840,"stimulus":"\n        <div class=\"response-container\">\n          <div class=\"response-instruction\">\n            <p>rotate the bar by using the left and right arrow keys.</p>\n            <p>when you are determined, press the Enter key.</p>\n          </div>\n          <div class=\"response-circle\">\n            <div class=\"response-fixation\"></div>\n            <div id=\"bar\" class=\"rotating-bar\"></div>\n          </div>\n        </div>\n      ","response":"Enter","trial_type":"html-keyboard-response","trial_index":12,"plugin_version":"2.1.0","time_elapsed":188676,"random_initial_angle":355,"response_angle_css":585,"response_angle_rdk":225,"angular_error_target":172,"angular_error_distractor":27,"target_direction":53,"target_group":"white","reward_points":0},{"rt":null,"stimulus":"\n          <p style=\"color: #FF3333;\">Your reward: 0 points</p>\n        ","response":null,"trial_type":"html-keyboard-response","trial_index":13,"plugin_version":"2.1.0","time_elapsed":190680},{"rt":null,"stimulus":"<div class=\"fixation\" style=\"font-size: 60px;\">+</div>","response":null,"trial_type":"html-keyboard-response","trial_index":14,"plugin_version":"2.1.0","time_elapsed":191692},{"target_group":"white","target_index":0,"condition_label":"practice","rt":-1,"response":"","correct":false,"choices":"ALL_KEYS","correct_choice":["a"],"trial_duration":2000,"flip_timestamps":[],"response_ends_trial":false,"number_of_apertures":2,"number_of_dots":[100,73],"number_of_sets":1,"coherent_direction":[349,255],"coherence":1,"opposite_coherence":0,"dot_radius":2,"dot_side_length":1,"dot_life":-1,"move_distance":1,"aperture_width":300,"aperture_height":300,"dot_color":["white","black"],"dot_shape":"circle","background_color":"#AAA","RDK_type":3,"aperture_type":2,"reinsert_type":2,"frame_rate":16.775,"frame_rate_array":[4,10,16,18,17,17,17,15,18,17,19,14,21,11,17,34,17,17,17,16,17,17,20,14,17,17,17,17,17,17,17,17,17,17,17,16,17,16,17,17,17,17,17,17,16,17,16,17,17,17,17,17,16,17,17,16,16,16,17,17,18,16,17,17,16,17,17,17,17,18,17,17,14,17,17,18,17,17,16,17,16,17,23,10,15,17,16,19,17,17,16,17,17,17,16,17,16,17,17,17,17,15,17,18,16,17,17,17,17,17,17,17,17,17,17,17,17,17,17,17],"number_of_frames":120,"aperture_center_x":768,"aperture_center_y":432,"fixation_cross":true,"fixation_cross_width":15,"fixation_cross_height":15,"fixation_cross_color":"#111","fixation_cross_thickness":1,"border":true,"border_thickness":2,"border_color":"transparent","canvas_width":1536,"canvas_height":864,"trial_type":"rdk","trial_index":15,"plugin_version":"2.0.0","time_elapsed":193700,"target_direction":349,"distractor_direction":255},{"rt":10985,"stimulus":"\n        <div class=\"response-container\">\n          <div class=\"response-instruction\">\n            <p>rotate the bar by using the left and right arrow keys.</p>\n            <p>when you are determined, press the Enter key.</p>\n          </div>\n          <div class=\"response-circle\">\n            <div class=\"response-fixation\"></div>\n            <div id=\"bar\" class=\"rotating-bar\"></div>\n          </div>\n        </div>\n      ","response":"Enter","trial_type":"html-keyboard-response","trial_index":16,"plugin_version":"2.1.0","time_elapsed":204687,"random_initial_angle":70,"response_angle_css":400,"response_angle_rdk":50,"angular_error_target":61,"angular_error_distractor":155,"target_direction":349,"target_group":"white","reward_points":0},{"rt":null,"stimulus":"\n          <p style=\"color: #FF3333;\">Your reward: 0 points</p>\n        ","response":null,"trial_type":"html-keyboard-response","trial_index":17,"plugin_version":"2.1.0","time_elapsed":206699},{"rt":null,"stimulus":"<div class=\"fixation\" style=\"font-size: 60px;\">+</div>","response":null,"trial_type":"html-keyboard-response","trial_index":18,"plugin_version":"2.1.0","time_elapsed":207711},{"target_group":"black","target_index":1,"condition_label":"practice","rt":-1,"response":"","correct":false,"choices":"ALL_KEYS","correct_choice":["a"],"trial_duration":2000,"flip_timestamps":[],"response_ends_trial":false,"number_of_apertures":2,"number_of_dots":[65,100],"number_of_sets":1,"coherent_direction":[166,12],"coherence":1,"opposite_coherence":0,"dot_radius":2,"dot_side_length":1,"dot_life":-1,"move_distance":1,"aperture_width":300,"aperture_height":300,"dot_color":["white","black"],"dot_shape":"circle","background_color":"#AAA","RDK_type":3,"aperture_type":2,"reinsert_type":2,"frame_rate":16.766666666666666,"frame_rate_array":[5,12,17,16,19,17,17,15,18,15,18,16,18,15,17,34,17,17,17,17,16,23,13,28,11,14,13,20,13,16,17,16,17,17,17,16,17,17,17,20,13,17,17,17,17,16,17,17,15,16,17,19,17,16,17,19,14,17,17,16,22,11,17,18,15,16,17,18,18,16,17,17,17,17,16,21,18,11,15,16,17,17,17,17,23,10,16,17,17,19,17,17,16,18,16,17,17,15,18,17,17,20,12,16,17,21,15,17,17,21,16,14,16,16,17,16,17,16,17,17],"number_of_frames":120,"aperture_center_x":768,"aperture_center_y":432,"fixation_cross":true,"fixation_cross_width":15,"fixation_cross_height":15,"fixation_cross_color":"#111","fixation_cross_thickness":1,"border":true,"border_thickness":2,"border_color":"transparent","canvas_width":1536,"canvas_height":864,"trial_type":"rdk","trial_index":19,"plugin_version":"2.0.0","time_elapsed":209717,"target_direction":12,"distractor_direction":166},{"rt":8332,"stimulus":"\n        <div class=\"response-container\">\n          <div class=\"response-instruction\">\n            <p>rotate the bar by using the left and right arrow keys.</p>\n            <p>when you are determined, press the Enter key.</p>\n          </div>\n          <div class=\"response-circle\">\n            <div class=\"response-fixation\"></div>\n            <div id=\"bar\" class=\"rotating-bar\"></div>\n          </div>\n        </div>\n      ","response":"Enter","trial_type":"html-keyboard-response","trial_index":20,"plugin_version":"2.1.0","time_elapsed":218052,"random_initial_angle":331,"response_angle_css":452,"response_angle_rdk":358,"angular_error_target":-14,"angular_error_distractor":-168,"target_direction":12,"target_group":"black","reward_points":7},{"rt":null,"stimulus":"\n          <p style=\"color: #00FF00;\">Your reward: 7 points</p>\n        ","response":null,"trial_type":"html-keyboard-response","trial_index":21,"plugin_version":"2.1.0","time_elapsed":220068},{"rt":null,"stimulus":"<div class=\"fixation\" style=\"font-size: 60px;\">+</div>","response":null,"trial_type":"html-keyboard-response","trial_index":22,"plugin_version":"2.1.0","time_elapsed":221083},{"target_group":"black","target_index":1,"condition_label":"practice","rt":-1,"response":"","correct":false,"choices":"ALL_KEYS","correct_choice":["a"],"trial_duration":2000,"flip_timestamps":[],"response_ends_trial":false,"number_of_apertures":2,"number_of_dots":[68,100],"number_of_sets":1,"coherent_direction":[116,315],"coherence":1,"opposite_coherence":0,"dot_radius":2,"dot_side_length":1,"dot_life":-1,"move_distance":1,"aperture_width":300,"aperture_height":300,"dot_color":["white","black"],"dot_shape":"circle","background_color":"#AAA","RDK_type":3,"aperture_type":2,"reinsert_type":2,"frame_rate":17.666666666666668,"frame_rate_array":[11,7,16,15,89,13,2,12,17,16,17,34,22,44,38,15,16,17,15,17,17,17,17,17,16,17,18,17,17,17,17,17,17,17,17,17,16,17,16,17,16,17,18,17,16,17,17,16,17,16,17,17,17,17,17,17,16,17,17,17,16,17,40,2,8,17,17,18,18,16,17,16,17,19,14,16,17,18,16,16,19,14,17,17,17,16,17,17,18,16,17,17,17,17,17,16,17,17,17,17,17,17,17,17,17,16,17,17,16,17,21,12,17,17],"number_of_frames":114,"aperture_center_x":768,"aperture_center_y":432,"fixation_cross":true,"fixation_cross_width":15,"fixation_cross_height":15,"fixation_cross_color":"#111","fixation_cross_thickness":1,"border":true,"border_thickness":2,"border_color":"transparent","canvas_width":1536,"canvas_height":864,"trial_type":"rdk","trial_index":23,"plugin_version":"2.0.0","time_elapsed":223091,"target_direction":315,"distractor_direction":116},{"rt":4683,"stimulus":"\n        <div class=\"response-container\">\n          <div class=\"response-instruction\">\n            <p>rotate the bar by using the left and right arrow keys.</p>\n            <p>when you are determined, press the Enter key.</p>\n          </div>\n          <div class=\"response-circle\">\n            <div class=\"response-fixation\"></div>\n            <div id=\"bar\" class=\"rotating-bar\"></div>\n          </div>\n        </div>\n      ","response":"Enter","trial_type":"html-keyboard-response","trial_index":24,"plugin_version":"2.1.0","time_elapsed":227776,"random_initial_angle":195,"response_angle_css":142,"response_angle_rdk":308,"angular_error_target":-7,"angular_error_distractor":-168,"target_direction":315,"target_group":"black","reward_points":8},{"rt":null,"stimulus":"\n          <p style=\"color: #00FF00;\">Your reward: 8 points</p>\n        ","response":null,"trial_type":"html-keyboard-response","trial_index":25,"plugin_version":"2.1.0","time_elapsed":229793},{"rt":null,"stimulus":"<div class=\"fixation\" style=\"font-size: 60px;\">+</div>","response":null,"trial_type":"html-keyboard-response","trial_index":26,"plugin_version":"2.1.0","time_elapsed":230809},{"target_group":"black","target_index":1,"condition_label":"practice","rt":-1,"response":"","correct":false,"choices":"ALL_KEYS","correct_choice":["a"],"trial_duration":2000,"flip_timestamps":[],"response_ends_trial":false,"number_of_apertures":2,"number_of_dots":[99,100],"number_of_sets":1,"coherent_direction":[308,188],"coherence":1,"opposite_coherence":0,"dot_radius":2,"dot_side_length":1,"dot_life":-1,"move_distance":1,"aperture_width":300,"aperture_height":300,"dot_color":["white","black"],"dot_shape":"circle","background_color":"#AAA","RDK_type":3,"aperture_type":2,"reinsert_type":2,"frame_rate":16.841666666666665,"frame_rate_array":[5,12,12,18,16,17,17,18,16,17,17,17,17,18,15,17,33,17,17,16,17,17,17,17,17,18,16,16,22,17,11,17,17,17,17,17,17,17,16,17,17,17,17,17,16,17,16,17,17,17,17,17,17,17,17,17,17,17,17,16,22,14,17,19,14,18,15,17,17,18,16,17,16,17,17,16,16,17,17,17,16,17,17,17,17,17,17,17,20,14,17,17,17,17,17,17,17,17,17,17,16,17,17,17,17,18,17,17,17,17,17,16,17,17,17,16,17,16,17,19],"number_of_frames":120,"aperture_center_x":768,"aperture_center_y":432,"fixation_cross":true,"fixation_cross_width":15,"fixation_cross_height":15,"fixation_cross_color":"#111","fixation_cross_thickness":1,"border":true,"border_thickness":2,"border_color":"transparent","canvas_width":1536,"canvas_height":864,"trial_type":"rdk","trial_index":27,"plugin_version":"2.0.0","time_elapsed":232817,"target_direction":188,"distractor_direction":308},{"rt":6293,"stimulus":"\n        <div class=\"response-container\">\n          <div class=\"response-instruction\">\n            <p>rotate the bar by using the left and right arrow keys.</p>\n            <p>when you are determined, press the Enter key.</p>\n          </div>\n          <div class=\"response-circle\">\n            <div class=\"response-fixation\"></div>\n            <div id=\"bar\" class=\"rotating-bar\"></div>\n          </div>\n        </div>\n      ","response":"Enter","trial_type":"html-keyboard-response","trial_index":28,"plugin_version":"2.1.0","time_elapsed":239113,"random_initial_angle":191,"response_angle_css":144,"response_angle_rdk":306,"angular_error_target":118,"angular_error_distractor":-2,"target_direction":188,"target_group":"black","reward_points":0},{"rt":null,"stimulus":"\n          <p style=\"color: #FF3333;\">Your reward: 0 points</p>\n        ","response":null,"trial_type":"html-keyboard-response","trial_index":29,"plugin_version":"2.1.0","time_elapsed":241116},{"rt":null,"stimulus":"<div class=\"fixation\" style=\"font-size: 60px;\">+</div>","response":null,"trial_type":"html-keyboard-response","trial_index":30,"plugin_version":"2.1.0","time_elapsed":242132},{"target_group":"white","target_index":0,"condition_label":"practice","rt":-1,"response":"","correct":false,"choices":"ALL_KEYS","correct_choice":["a"],"trial_duration":2000,"flip_timestamps":[],"response_ends_trial":false,"number_of_apertures":2,"number_of_dots":[100,55],"number_of_sets":1,"coherent_direction":[163,21],"coherence":1,"opposite_coherence":0,"dot_radius":2,"dot_side_length":1,"dot_life":-1,"move_distance":1,"aperture_width":300,"aperture_height":300,"dot_color":["white","black"],"dot_shape":"circle","background_color":"#AAA","RDK_type":3,"aperture_type":2,"reinsert_type":2,"frame_rate":16.733333333333334,"frame_rate_array":[5,11,14,17,17,17,16,17,15,17,16,17,16,19,34,22,10,17,16,17,16,16,17,17,15,17,16,17,16,17,17,17,17,17,17,17,16,19,17,14,16,17,17,17,17,17,16,17,17,17,17,17,17,17,17,17,17,18,21,12,17,17,17,16,17,17,17,16,17,15,17,17,17,17,20,19,11,16,17,17,17,17,17,19,16,17,18,16,17,17,17,17,17,17,17,17,17,15,16,16,17,18,17,17,16,17,17,18,17,17,16,16,17,17,17,16,17,16,17,17],"number_of_frames":120,"aperture_center_x":768,"aperture_center_y":432,"fixation_cross":true,"fixation_cross_width":15,"fixation_cross_height":15,"fixation_cross_color":"#111","fixation_cross_thickness":1,"border":true,"border_thickness":2,"border_color":"transparent","canvas_width":1536,"canvas_height":864,"trial_type":"rdk","trial_index":31,"plugin_version":"2.0.0","time_elapsed":244139,"target_direction":163,"distractor_direction":21},{"rt":6927,"stimulus":"\n        <div class=\"response-container\">\n          <div class=\"response-instruction\">\n            <p>rotate the bar by using the left and right arrow keys.</p>\n            <p>when you are determined, press the Enter key.</p>\n          </div>\n          <div class=\"response-circle\">\n            <div class=\"response-fixation\"></div>\n            <div id=\"bar\" class=\"rotating-bar\"></div>\n          </div>\n        </div>\n      ","response":"Enter","trial_type":"html-keyboard-response","trial_index":32,"plugin_version":"2.1.0","time_elapsed":251069,"random_initial_angle":11,"response_angle_css":-71,"response_angle_rdk":161,"angular_error_target":-2,"angular_error_distractor":140,"target_direction":163,"target_group":"white","reward_points":9},{"rt":null,"stimulus":"\n          <p style=\"color: #00FF00;\">Your reward: 9 points</p>\n        ","response":null,"trial_type":"html-keyboard-response","trial_index":33,"plugin_version":"2.1.0","time_elapsed":253074},{"rt":null,"stimulus":"<div class=\"fixation\" style=\"font-size: 60px;\">+</div>","response":null,"trial_type":"html-keyboard-response","trial_index":34,"plugin_version":"2.1.0","time_elapsed":254088},{"target_group":"black","target_index":1,"condition_label":"practice","rt":-1,"response":"","correct":false,"choices":"ALL_KEYS","correct_choice":["a"],"trial_duration":2000,"flip_timestamps":[],"response_ends_trial":false,"number_of_apertures":2,"number_of_dots":[60,100],"number_of_sets":1,"coherent_direction":[204,304],"coherence":1,"opposite_coherence":0,"dot_radius":2,"dot_side_length":1,"dot_life":-1,"move_distance":1,"aperture_width":300,"aperture_height":300,"dot_color":["white","black"],"dot_shape":"circle","background_color":"#AAA","RDK_type":3,"aperture_type":2,"reinsert_type":2,"frame_rate":16.758333333333333,"frame_rate_array":[24,1,8,17,17,17,16,18,15,18,16,17,23,28,16,18,16,17,17,16,21,16,13,16,17,16,17,16,17,17,17,16,17,16,18,17,17,16,18,15,15,16,18,17,17,16,17,17,17,17,17,17,17,16,17,17,17,17,16,17,16,17,17,16,17,20,12,17,17,17,17,17,17,16,17,16,17,17,17,17,21,14,15,17,16,17,17,16,17,17,17,17,17,17,17,17,17,18,17,17,16,17,17,17,17,17,17,17,16,17,17,17,16,16,17,17,17,17,17,17],"number_of_frames":120,"aperture_center_x":768,"aperture_center_y":432,"fixation_cross":true,"fixation_cross_width":15,"fixation_cross_height":15,"fixation_cross_color":"#111","fixation_cross_thickness":1,"border":true,"border_thickness":2,"border_color":"transparent","canvas_width":1536,"canvas_height":864,"trial_type":"rdk","trial_index":35,"plugin_version":"2.0.0","time_elapsed":256095,"target_direction":304,"distractor_direction":204},{"rt":3936,"stimulus":"\n        <div class=\"response-container\">\n          <div class=\"response-instruction\">\n            <p>rotate the bar by using the left and right arrow keys.</p>\n            <p>when you are determined, press the Enter key.</p>\n          </div>\n          <div class=\"response-circle\">\n            <div class=\"response-fixation\"></div>\n            <div id=\"bar\" class=\"rotating-bar\"></div>\n          </div>\n        </div>\n      ","response":"Enter","trial_type":"html-keyboard-response","trial_index":36,"plugin_version":"2.1.0","time_elapsed":260033,"random_initial_angle":209,"response_angle_css":135,"response_angle_rdk":315,"angular_error_target":11,"angular_error_distractor":111,"target_direction":304,"target_group":"black","reward_points":7},{"rt":null,"stimulus":"\n          <p style=\"color: #00FF00;\">Your reward: 7 points</p>\n        ","response":null,"trial_type":"html-keyboard-response","trial_index":37,"plugin_version":"2.1.0","time_elapsed":262048},{"rt":null,"stimulus":"<div class=\"fixation\" style=\"font-size: 60px;\">+</div>","response":null,"trial_type":"html-keyboard-response","trial_index":38,"plugin_version":"2.1.0","time_elapsed":263064},{"target_group":"black","target_index":1,"condition_label":"practice","rt":-1,"response":"","correct":false,"choices":"ALL_KEYS","correct_choice":["a"],"trial_duration":2000,"flip_timestamps":[],"response_ends_trial":false,"number_of_apertures":2,"number_of_dots":[92,100],"number_of_sets":1,"coherent_direction":[98,2],"coherence":1,"opposite_coherence":0,"dot_radius":2,"dot_side_length":1,"dot_life":-1,"move_distance":1,"aperture_width":300,"aperture_height":300,"dot_color":["white","black"],"dot_shape":"circle","background_color":"#AAA","RDK_type":3,"aperture_type":2,"reinsert_type":2,"frame_rate":16.808333333333334,"frame_rate_array":[5,16,14,10,17,17,17,17,17,17,23,15,14,17,33,18,17,17,17,17,17,17,18,14,16,17,18,15,17,17,17,17,17,17,17,16,22,13,17,17,17,15,18,17,16,18,16,17,16,15,17,17,17,17,17,17,19,17,17,17,17,16,17,17,16,15,18,15,17,17,17,17,19,21,13,17,17,19,14,16,14,17,17,16,17,17,19,15,18,16,17,17,17,17,17,16,17,17,17,18,16,17,17,18,15,17,17,17,17,17,17,17,19,20,14,16,17,17,17,16],"number_of_frames":120,"aperture_center_x":768,"aperture_center_y":432,"fixation_cross":true,"fixation_cross_width":15,"fixation_cross_height":15,"fixation_cross_color":"#111","fixation_cross_thickness":1,"border":true,"border_thickness":2,"border_color":"transparent","canvas_width":1536,"canvas_height":864,"trial_type":"rdk","trial_index":39,"plugin_version":"2.0.0","time_elapsed":265072,"target_direction":2,"distractor_direction":98},{"rt":3054,"stimulus":"\n        <div class=\"response-container\">\n          <div class=\"response-instruction\">\n            <p>rotate the bar by using the left and right arrow keys.</p>\n            <p>when you are determined, press the Enter key.</p>\n          </div>\n          <div class=\"response-circle\">\n            <div class=\"response-fixation\"></div>\n            <div id=\"bar\" class=\"rotating-bar\"></div>\n          </div>\n        </div>\n      ","response":"Enter","trial_type":"html-keyboard-response","trial_index":40,"plugin_version":"2.1.0","time_elapsed":268129,"random_initial_angle":228,"response_angle_css":133,"response_angle_rdk":317,"angular_error_target":-45,"angular_error_distractor":-141,"target_direction":2,"target_group":"black","reward_points":0},{"rt":null,"stimulus":"\n          <p style=\"color: #FF3333;\">Your reward: 0 points</p>\n        ","response":null,"trial_type":"html-keyboard-response","trial_index":41,"plugin_version":"2.1.0","time_elapsed":270140},{"rt":null,"stimulus":"<div class=\"fixation\" style=\"font-size: 60px;\">+</div>","response":null,"trial_type":"html-keyboard-response","trial_index":42,"plugin_version":"2.1.0","time_elapsed":271156},{"target_group":"white","target_index":0,"condition_label":"practice","rt":-1,"response":"","correct":false,"choices":"ALL_KEYS","correct_choice":["a"],"trial_duration":2000,"flip_timestamps":[],"response_ends_trial":false,"number_of_apertures":2,"number_of_dots":[100,97],"number_of_sets":1,"coherent_direction":[260,77],"coherence":1,"opposite_coherence":0,"dot_radius":2,"dot_side_length":1,"dot_life":-1,"move_distance":1,"aperture_width":300,"aperture_height":300,"dot_color":["white","black"],"dot_shape":"circle","background_color":"#AAA","RDK_type":3,"aperture_type":2,"reinsert_type":2,"frame_rate":16.833333333333332,"frame_rate_array":[8,8,17,17,17,17,20,13,17,16,17,17,17,16,17,36,17,20,13,17,17,16,20,16,13,16,17,17,17,19,17,17,17,15,17,16,17,17,17,17,18,16,17,17,17,16,16,17,17,17,16,17,17,16,17,17,16,17,17,17,17,16,17,17,17,17,17,17,17,17,17,17,17,17,19,15,16,17,17,17,17,17,19,14,17,17,19,16,17,17,17,17,15,18,17,18,15,16,16,16,16,17,17,17,17,17,16,17,19,17,17,17,17,16,16,17,17,19,17,17],"number_of_frames":120,"aperture_center_x":768,"aperture_center_y":432,"fixation_cross":true,"fixation_cross_width":15,"fixation_cross_height":15,"fixation_cross_color":"#111","fixation_cross_thickness":1,"border":true,"border_thickness":2,"border_color":"transparent","canvas_width":1536,"canvas_height":864,"trial_type":"rdk","trial_index":43,"plugin_version":"2.0.0","time_elapsed":273164,"target_direction":260,"distractor_direction":77},{"rt":7023,"stimulus":"\n        <div class=\"response-container\">\n          <div class=\"response-instruction\">\n            <p>rotate the bar by using the left and right arrow keys.</p>\n            <p>when you are determined, press the Enter key.</p>\n          </div>\n          <div class=\"response-circle\">\n            <div class=\"response-fixation\"></div>\n            <div id=\"bar\" class=\"rotating-bar\"></div>\n          </div>\n        </div>\n      ","response":"Enter","trial_type":"html-keyboard-response","trial_index":44,"plugin_version":"2.1.0","time_elapsed":280189,"random_initial_angle":256,"response_angle_css":2,"response_angle_rdk":88,"angular_error_target":-172,"angular_error_distractor":11,"target_direction":260,"target_group":"white","reward_points":0},{"rt":null,"stimulus":"\n          <p style=\"color: #FF3333;\">Your reward: 0 points</p>\n        ","response":null,"trial_type":"html-keyboard-response","trial_index":45,"plugin_version":"2.1.0","time_elapsed":282197},{"rt":null,"stimulus":"<div class=\"fixation\" style=\"font-size: 60px;\">+</div>","response":null,"trial_type":"html-keyboard-response","trial_index":46,"plugin_version":"2.1.0","time_elapsed":283212},{"target_group":"white","target_index":0,"condition_label":"practice","rt":-1,"response":"","correct":false,"choices":"ALL_KEYS","correct_choice":["a"],"trial_duration":2000,"flip_timestamps":[],"response_ends_trial":false,"number_of_apertures":2,"number_of_dots":[100,94],"number_of_sets":1,"coherent_direction":[258,73],"coherence":1,"opposite_coherence":0,"dot_radius":2,"dot_side_length":1,"dot_life":-1,"move_distance":1,"aperture_width":300,"aperture_height":300,"dot_color":["white","black"],"dot_shape":"circle","background_color":"#AAA","RDK_type":3,"aperture_type":2,"reinsert_type":2,"frame_rate":17.04237288135593,"frame_rate_array":[4,15,12,17,17,18,20,12,18,15,19,15,18,21,44,33,17,17,16,16,17,17,19,14,17,16,17,19,17,17,17,17,17,16,15,16,16,17,17,17,18,16,18,16,17,15,16,17,17,17,17,17,17,18,17,17,17,17,16,16,18,16,17,17,17,15,16,17,17,19,18,15,15,17,17,17,19,17,17,16,16,17,22,17,12,17,17,17,17,15,16,17,18,17,17,17,16,17,16,17,18,17,17,16,17,17,17,18,16,17,16,17,17,16,17,16,18,17],"number_of_frames":118,"aperture_center_x":768,"aperture_center_y":432,"fixation_cross":true,"fixation_cross_width":15,"fixation_cross_height":15,"fixation_cross_color":"#111","fixation_cross_thickness":1,"border":true,"border_thickness":2,"border_color":"transparent","canvas_width":1536,"canvas_height":864,"trial_type":"rdk","trial_index":47,"plugin_version":"2.0.0","time_elapsed":285219,"target_direction":258,"distractor_direction":73},{"rt":4822,"stimulus":"\n        <div class=\"response-container\">\n          <div class=\"response-instruction\">\n            <p>rotate the bar by using the left and right arrow keys.</p>\n            <p>when you are determined, press the Enter key.</p>\n          </div>\n          <div class=\"response-circle\">\n            <div class=\"response-fixation\"></div>\n            <div id=\"bar\" class=\"rotating-bar\"></div>\n          </div>\n        </div>\n      ","response":"Enter","trial_type":"html-keyboard-response","trial_index":48,"plugin_version":"2.1.0","time_elapsed":290043,"random_initial_angle":40,"response_angle_css":-181,"response_angle_rdk":271,"angular_error_target":13,"angular_error_distractor":-162,"target_direction":258,"target_group":"white","reward_points":7},{"rt":null,"stimulus":"\n          <p style=\"color: #00FF00;\">Your reward: 7 points</p>\n        ","response":null,"trial_type":"html-keyboard-response","trial_index":49,"plugin_version":"2.1.0","time_elapsed":292055},{"rt":null,"stimulus":"<div class=\"fixation\" style=\"font-size: 60px;\">+</div>","response":null,"trial_type":"html-keyboard-response","trial_index":50,"plugin_version":"2.1.0","time_elapsed":293069},{"target_group":"white","target_index":0,"condition_label":"practice","rt":-1,"response":"","correct":false,"choices":"ALL_KEYS","correct_choice":["a"],"trial_duration":2000,"flip_timestamps":[],"response_ends_trial":false,"number_of_apertures":2,"number_of_dots":[100,75],"number_of_sets":1,"coherent_direction":[308,144],"coherence":1,"opposite_coherence":0,"dot_radius":2,"dot_side_length":1,"dot_life":-1,"move_distance":1,"aperture_width":300,"aperture_height":300,"dot_color":["white","black"],"dot_shape":"circle","background_color":"#AAA","RDK_type":3,"aperture_type":2,"reinsert_type":2,"frame_rate":16.941176470588236,"frame_rate_array":[6,15,17,17,17,18,16,18,15,18,15,17,33,22,29,16,16,17,18,17,17,17,17,16,17,17,17,17,16,16,16,17,17,17,17,17,18,15,17,17,16,17,17,19,17,16,17,17,17,17,17,17,16,17,17,16,17,17,17,17,17,17,16,17,17,16,15,16,16,16,17,17,17,17,17,17,17,19,17,17,16,17,15,16,19,16,17,17,17,15,16,17,17,19,16,17,22,14,11,16,17,17,17,17,17,17,17,18,17,17,16,16,16,17,17,17,17,17,17],"number_of_frames":119,"aperture_center_x":768,"aperture_center_y":432,"fixation_cross":true,"fixation_cross_width":15,"fixation_cross_height":15,"fixation_cross_color":"#111","fixation_cross_thickness":1,"border":true,"border_thickness":2,"border_color":"transparent","canvas_width":1536,"canvas_height":864,"trial_type":"rdk","trial_index":51,"plugin_version":"2.0.0","time_elapsed":295075,"target_direction":308,"distractor_direction":144},{"rt":3879,"stimulus":"\n        <div class=\"response-container\">\n          <div class=\"response-instruction\">\n            <p>rotate the bar by using the left and right arrow keys.</p>\n            <p>when you are determined, press the Enter key.</p>\n          </div>\n          <div class=\"response-circle\">\n            <div class=\"response-fixation\"></div>\n            <div id=\"bar\" class=\"rotating-bar\"></div>\n          </div>\n        </div>\n      ","response":"Enter","trial_type":"html-keyboard-response","trial_index":52,"plugin_version":"2.1.0","time_elapsed":298957,"random_initial_angle":294,"response_angle_css":133,"response_angle_rdk":317,"angular_error_target":9,"angular_error_distractor":173,"target_direction":308,"target_group":"white","reward_points":8},{"rt":null,"stimulus":"\n          <p style=\"color: #00FF00;\">Your reward: 8 points</p>\n        ","response":null,"trial_type":"html-keyboard-response","trial_index":53,"plugin_version":"2.1.0","time_elapsed":300965},{"rt":null,"stimulus":"<div class=\"fixation\" style=\"font-size: 60px;\">+</div>","response":null,"trial_type":"html-keyboard-response","trial_index":54,"plugin_version":"2.1.0","time_elapsed":301979},{"target_group":"white","target_index":0,"condition_label":"practice","rt":-1,"response":"","correct":false,"choices":"ALL_KEYS","correct_choice":["a"],"trial_duration":2000,"flip_timestamps":[],"response_ends_trial":false,"number_of_apertures":2,"number_of_dots":[100,86],"number_of_sets":1,"coherent_direction":[226,328],"coherence":1,"opposite_coherence":0,"dot_radius":2,"dot_side_length":1,"dot_life":-1,"move_distance":1,"aperture_width":300,"aperture_height":300,"dot_color":["white","black"],"dot_shape":"circle","background_color":"#AAA","RDK_type":3,"aperture_type":2,"reinsert_type":2,"frame_rate":16.775,"frame_rate_array":[10,5,18,17,16,20,14,18,15,19,14,19,14,17,35,16,17,16,17,15,17,17,17,18,17,17,17,17,17,17,17,17,16,17,17,17,17,17,16,17,17,17,17,17,16,17,17,23,14,13,17,17,16,17,16,17,17,17,17,17,17,16,17,16,17,17,17,17,17,17,17,17,17,17,16,17,16,17,16,17,15,17,17,18,20,13,17,17,17,17,17,17,17,17,16,17,17,17,17,17,16,17,16,17,16,17,17,23,12,13,18,17,17,17,16,17,17,17,17,17],"number_of_frames":120,"aperture_center_x":768,"aperture_center_y":432,"fixation_cross":true,"fixation_cross_width":15,"fixation_cross_height":15,"fixation_cross_color":"#111","fixation_cross_thickness":1,"border":true,"border_thickness":2,"border_color":"transparent","canvas_width":1536,"canvas_height":864,"trial_type":"rdk","trial_index":55,"plugin_version":"2.0.0","time_elapsed":303987,"target_direction":226,"distractor_direction":328},{"rt":3113,"stimulus":"\n        <div class=\"response-container\">\n          <div class=\"response-instruction\">\n            <p>rotate the bar by using the left and right arrow keys.</p>\n            <p>when you are determined, press the Enter key.</p>\n          </div>\n          <div class=\"response-circle\">\n            <div class=\"response-fixation\"></div>\n            <div id=\"bar\" class=\"rotating-bar\"></div>\n          </div>\n        </div>\n      ","response":"Enter","trial_type":"html-keyboard-response","trial_index":56,"plugin_version":"2.1.0","time_elapsed":307102,"random_initial_angle":347,"response_angle_css":248,"response_angle_rdk":202,"angular_error_target":-24,"angular_error_distractor":-126,"target_direction":226,"target_group":"white","reward_points":5},{"rt":null,"stimulus":"\n          <p style=\"color: #00FF00;\">Your reward: 5 points</p>\n        ","response":null,"trial_type":"html-keyboard-response","trial_index":57,"plugin_version":"2.1.0","time_elapsed":309108},{"rt":null,"stimulus":"<div class=\"fixation\" style=\"font-size: 60px;\">+</div>","response":null,"trial_type":"html-keyboard-response","trial_index":58,"plugin_version":"2.1.0","time_elapsed":310122},{"target_group":"black","target_index":1,"condition_label":"practice","rt":-1,"response":"","correct":false,"choices":"ALL_KEYS","correct_choice":["a"],"trial_duration":2000,"flip_timestamps":[],"response_ends_trial":false,"number_of_apertures":2,"number_of_dots":[51,100],"number_of_sets":1,"coherent_direction":[204,15],"coherence":1,"opposite_coherence":0,"dot_radius":2,"dot_side_length":1,"dot_life":-1,"move_distance":1,"aperture_width":300,"aperture_height":300,"dot_color":["white","black"],"dot_shape":"circle","background_color":"#AAA","RDK_type":3,"aperture_type":2,"reinsert_type":2,"frame_rate":16.783333333333335,"frame_rate_array":[7,8,17,17,17,17,17,17,16,17,16,17,17,17,17,35,17,17,16,17,16,17,17,18,16,16,17,17,17,17,16,17,15,18,17,17,17,17,17,17,17,17,18,16,17,20,17,11,17,17,17,17,17,18,17,16,17,17,17,17,17,16,17,17,17,16,16,17,17,15,16,17,17,17,17,17,17,17,17,16,17,17,17,17,17,16,17,18,15,17,17,17,17,17,17,17,16,17,16,17,17,17,17,17,17,17,20,13,17,17,16,17,16,17,17,16,17,17,18,16],"number_of_frames":120,"aperture_center_x":768,"aperture_center_y":432,"fixation_cross":true,"fixation_cross_width":15,"fixation_cross_height":15,"fixation_cross_color":"#111","fixation_cross_thickness":1,"border":true,"border_thickness":2,"border_color":"transparent","canvas_width":1536,"canvas_height":864,"trial_type":"rdk","trial_index":59,"plugin_version":"2.0.0","time_elapsed":312130,"target_direction":15,"distractor_direction":204},{"rt":2851,"stimulus":"\n        <div class=\"response-container\">\n          <div class=\"response-instruction\">\n            <p>rotate the bar by using the left and right arrow keys.</p>\n            <p>when you are determined, press the Enter key.</p>\n          </div>\n          <div class=\"response-circle\">\n            <div class=\"response-fixation\"></div>\n            <div id=\"bar\" class=\"rotating-bar\"></div>\n          </div>\n        </div>\n      ","response":"Enter","trial_type":"html-keyboard-response","trial_index":60,"plugin_version":"2.1.0","time_elapsed":314983,"random_initial_angle":339,"response_angle_css":232,"response_angle_rdk":218,"angular_error_target":-157,"angular_error_distractor":14,"target_direction":15,"target_group":"black","reward_points":0},{"rt":null,"stimulus":"\n          <p style=\"color: #FF3333;\">Your reward: 0 points</p>\n        ","response":null,"trial_type":"html-keyboard-response","trial_index":61,"plugin_version":"2.1.0","time_elapsed":317000},{"rt":null,"stimulus":"<div class=\"fixation\" style=\"font-size: 60px;\">+</div>","response":null,"trial_type":"html-keyboard-response","trial_index":62,"plugin_version":"2.1.0","time_elapsed":318015},{"target_group":"black","target_index":1,"condition_label":"practice","rt":-1,"response":"","correct":false,"choices":"ALL_KEYS","correct_choice":["a"],"trial_duration":2000,"flip_timestamps":[],"response_ends_trial":false,"number_of_apertures":2,"number_of_dots":[56,100],"number_of_sets":1,"coherent_direction":[272,71],"coherence":1,"opposite_coherence":0,"dot_radius":2,"dot_side_length":1,"dot_life":-1,"move_distance":1,"aperture_width":300,"aperture_height":300,"dot_color":["white","black"],"dot_shape":"circle","background_color":"#AAA","RDK_type":3,"aperture_type":2,"reinsert_type":2,"frame_rate":17.24576271186441,"frame_rate_array":[51,14,16,19,14,17,17,17,17,17,17,16,17,17,33,17,17,17,17,17,17,17,16,17,16,17,17,16,17,17,17,17,17,17,16,17,17,17,17,17,17,17,17,17,16,17,17,17,17,17,17,17,16,17,16,17,17,17,17,17,18,16,17,17,16,17,17,17,17,17,17,17,17,17,16,17,16,17,17,17,17,17,17,17,17,16,17,17,17,17,17,17,17,17,16,17,17,17,17,17,17,17,17,17,16,17,17,17,17,17,17,17,15,17,16,17,17,18],"number_of_frames":118,"aperture_center_x":768,"aperture_center_y":432,"fixation_cross":true,"fixation_cross_width":15,"fixation_cross_height":15,"fixation_cross_color":"#111","fixation_cross_thickness":1,"border":true,"border_thickness":2,"border_color":"transparent","canvas_width":1536,"canvas_height":864,"trial_type":"rdk","trial_index":63,"plugin_version":"2.0.0","time_elapsed":320037,"target_direction":71,"distractor_direction":272},{"rt":7725,"stimulus":"\n        <div class=\"response-container\">\n          <div class=\"response-instruction\">\n            <p>rotate the bar by using the left and right arrow keys.</p>\n            <p>when you are determined, press the Enter key.</p>\n          </div>\n          <div class=\"response-circle\">\n            <div class=\"response-fixation\"></div>\n            <div id=\"bar\" class=\"rotating-bar\"></div>\n          </div>\n        </div>\n      ","response":"Enter","trial_type":"html-keyboard-response","trial_index":64,"plugin_version":"2.1.0","time_elapsed":327767,"random_initial_angle":280,"response_angle_css":185,"response_angle_rdk":265,"angular_error_target":-166,"angular_error_distractor":-7,"target_direction":71,"target_group":"black","reward_points":0},{"rt":null,"stimulus":"\n          <p style=\"color: #FF3333;\">Your reward: 0 points</p>\n        ","response":null,"trial_type":"html-keyboard-response","trial_index":65,"plugin_version":"2.1.0","time_elapsed":329773},{"rt":4996,"stimulus":"\n        <div class=\"instructions-container\">\n          <h2>End of Practice</h2>\n          <p>You have completed the practice trials.</p>\n          <p>Press <strong>Enter</strong> key to begin the main experiment.</p>\n        </div>\n      ","response":"Enter","trial_type":"html-keyboard-response","trial_index":66,"plugin_version":"2.1.0","time_elapsed":334773},{"rt":null,"stimulus":"<div class=\"fixation\" style=\"font-size: 60px;\">+</div>","response":null,"trial_type":"html-keyboard-response","trial_index":67,"plugin_version":"2.1.0","time_elapsed":335783},{"target_group":"white","condition_label":"W_H_vs_B_L_rep10","target_direction":74,"distractor_direction":342,"session_rotation":48,"rt":-1,"response":"","correct":false,"choices":"ALL_KEYS","correct_choice":["a"],"trial_duration":2000,"flip_timestamps":[],"response_ends_trial":false,"number_of_apertures":200,"number_of_dots":[1,1,1,1,1,1,1,1,1,1,1,1,1,1,1,1,1,1,1,1,1,1,1,1,1,1,1,1,1,1,1,1,1,1,1,1,1,1,1,1,1,1,1,1,1,1,1,1,1,1,1,1,1,1,1,1,1,1,1,1,1,1,1,1,1,1,1,1,1,1,1,1,1,1,1,1,1,1,1,1,1,1,1,1,1,1,1,1,1,1,1,1,1,1,1,1,1,1,1,1,1,1,1,1,1,1,1,1,1,1,1,1,1,1,1,1,1,1,1,1,1,1,1,1,1,1,1,1,1,1,1,1,1,1,1,1,1,1,1,1,1,1,1,1,1,1,1,1,1,1,1,1,1,1,1,1,1,1,1,1,1,1,1,1,1,1,1,1,1,1,1,1,1,1,1,1,1,1,1,1,1,1,1,1,1,1,1,1,1,1,1,1,1,1,1,1,1,1,1,1],"number_of_sets":1,"coherent_direction":[74,342,74,342,342,74,342,342,342,342,74,74,74,74,342,74,342,74,342,342,74,342,342,342,342,74,74,74,74,342,74,342,74,342,342,74,342,74,342,342,342,74,74,74,342,74,342,342,74,342,342,342,342,74,74,342,342,74,74,342,74,74,74,342,74,74,74,74,74,74,74,342,342,74,74,342,74,342,74,342,342,342,74,74,74,74,342,74,342,342,342,74,74,342,342,74,342,342,74,342,74,74,342,342,74,74,74,342,74,74,342,342,74,342,342,342,74,342,74,342,342,342,342,74,342,74,74,74,74,74,74,74,74,342,74,74,342,342,342,342,74,74,342,342,74,74,342,74,342,74,74,342,342,74,342,342,342,342,74,74,342,74,342,342,342,74,74,74,342,74,342,74,342,342,74,342,342,74,74,342,74,342,74,342,342,74,74,74,342,342,74,74,342,74,342,342,342,342,74,74],"coherence":1,"opposite_coherence":0,"dot_radius":2,"dot_side_length":1,"dot_life":-1,"move_distance":1,"aperture_width":300,"aperture_height":300,"dot_color":["white","black","white","black","black","white","black","black","black","black","white","white","white","white","black","white","black","white","black","black","white","black","black","black","black","white","white","white","white","black","white","black","white","black","black","white","black","white","black","black","black","white","white","white","black","white","black","black","white","black","black","black","black","white","white","black","black","white","white","black","white","white","white","black","white","white","white","white","white","white","white","black","black","white","white","black","white","black","white","black","black","black","white","white","white","white","black","white","black","black","black","white","white","black","black","white","black","black","white","black","white","white","black","black","white","white","white","black","white","white","black","black","white","black","black","black","white","black","white","black","black","black","black","white","black","white","white","white","white","white","white","white","white","black","white","white","black","black","black","black","white","white","black","black","white","white","black","white","black","white","white","black","black","white","black","black","black","black","white","white","black","white","black","black","black","white","white","white","black","white","black","white","black","black","white","black","black","white","white","black","white","black","white","black","black","white","white","white","black","black","white","white","black","white","black","black","black","black","white","white"],"dot_shape":"circle","background_color":"#AAA","RDK_type":3,"aperture_type":2,"reinsert_type":2,"frame_rate":16.75206611570248,"frame_rate_array":[16,11,5,8,17,17,17,33,22,19,16,11,16,16,21,12,17,17,17,17,17,17,16,16,17,19,17,18,17,17,17,17,17,17,17,17,17,17,16,14,16,17,17,17,17,16,17,17,17,17,17,17,16,17,17,17,19,17,17,17,17,16,17,17,17,17,17,17,17,17,18,15,17,16,28,7,15,17,17,17,16,17,16,17,17,17,17,17,17,17,16,17,16,17,17,17,17,17,18,16,17,17,17,16,17,17,17,17,19,14,17,17,17,17,17,17,17,17,17,16,17],"number_of_frames":121,"aperture_center_x":768,"aperture_center_y":432,"fixation_cross":true,"fixation_cross_width":15,"fixation_cross_height":15,"fixation_cross_color":"#111","fixation_cross_thickness":1,"border":true,"border_thickness":2,"border_color":"transparent","canvas_width":1536,"canvas_height":864,"trial_type":"rdk","trial_index":68,"plugin_version":"2.0.0","time_elapsed":337808},{"rt":4429,"stimulus":"\n        <div class=\"response-container\">\n          <div class=\"response-instruction\">\n            <p>rotate the bar by using the left and right arrow keys.</p>\n            <p>when you are determined, press the Enter key.</p>\n          </div>\n          <div class=\"response-circle\">\n            <div class=\"response-fixation\"></div>\n            <div id=\"bar\" class=\"rotating-bar\"></div>\n          </div>\n        </div>\n      ","response":"Enter","trial_type":"html-keyboard-response","trial_index":69,"plugin_version":"2.1.0","time_elapsed":342239,"random_initial_angle":245,"response_angle_css":302,"response_angle_rdk":148,"angular_error_target":74,"angular_error_distractor":166,"target_direction":74,"target_group":"white","reward_points":0},{"rt":null,"stimulus":"\n          <p style=\"color: #FF3333;\">Your reward: 0 points</p>\n        ","response":null,"trial_type":"html-keyboard-response","trial_index":70,"plugin_version":"2.1.0","time_elapsed":344244},{"rt":null,"stimulus":"<div class=\"fixation\" style=\"font-size: 60px;\">+</div>","response":null,"trial_type":"html-keyboard-response","trial_index":71,"plugin_version":"2.1.0","time_elapsed":345258},{"target_group":"white","condition_label":"W_H_vs_B_L_rep15","target_direction":53,"distractor_direction":321,"session_rotation":48,"rt":-1,"response":"","correct":false,"choices":"ALL_KEYS","correct_choice":["a"],"trial_duration":2000,"flip_timestamps":[],"response_ends_trial":false,"number_of_apertures":200,"number_of_dots":[1,1,1,1,1,1,1,1,1,1,1,1,1,1,1,1,1,1,1,1,1,1,1,1,1,1,1,1,1,1,1,1,1,1,1,1,1,1,1,1,1,1,1,1,1,1,1,1,1,1,1,1,1,1,1,1,1,1,1,1,1,1,1,1,1,1,1,1,1,1,1,1,1,1,1,1,1,1,1,1,1,1,1,1,1,1,1,1,1,1,1,1,1,1,1,1,1,1,1,1,1,1,1,1,1,1,1,1,1,1,1,1,1,1,1,1,1,1,1,1,1,1,1,1,1,1,1,1,1,1,1,1,1,1,1,1,1,1,1,1,1,1,1,1,1,1,1,1,1,1,1,1,1,1,1,1,1,1,1,1,1,1,1,1,1,1,1,1,1,1,1,1,1,1,1,1,1,1,1,1,1,1,1,1,1,1,1,1,1,1,1,1,1,1,1,1,1,1,1,1],"number_of_sets":1,"coherent_direction":[321,53,53,321,53,53,321,53,53,321,321,321,321,53,53,321,53,321,321,53,321,53,53,321,321,53,321,321,53,321,53,53,321,53,53,53,53,53,321,321,321,321,53,53,321,321,53,321,53,53,53,321,53,53,53,321,321,321,321,321,321,53,321,321,321,53,321,53,53,321,321,321,53,321,321,53,53,321,321,53,321,321,321,321,321,321,321,321,53,53,321,53,53,321,53,53,321,321,53,321,53,321,321,321,53,321,321,53,53,321,321,53,321,321,321,321,53,321,53,53,53,321,53,53,53,321,53,321,321,53,53,321,53,53,53,53,53,53,321,53,321,321,321,53,53,53,321,321,53,53,321,53,53,53,53,321,321,321,53,321,53,321,53,53,53,53,321,53,321,53,321,53,321,321,321,321,53,321,321,53,53,53,53,53,321,53,321,321,53,321,53,321,53,53,53,53,53,53,321,321],"coherence":1,"opposite_coherence":0,"dot_radius":2,"dot_side_length":1,"dot_life":-1,"move_distance":1,"aperture_width":300,"aperture_height":300,"dot_color":["black","white","white","black","white","white","black","white","white","black","black","black","black","white","white","black","white","black","black","white","black","white","white","black","black","white","black","black","white","black","white","white","black","white","white","white","white","white","black","black","black","black","white","white","black","black","white","black","white","white","white","black","white","white","white","black","black","black","black","black","black","white","black","black","black","white","black","white","white","black","black","black","white","black","black","white","white","black","black","white","black","black","black","black","black","black","black","black","white","white","black","white","white","black","white","white","black","black","white","black","white","black","black","black","white","black","black","white","white","black","black","white","black","black","black","black","white","black","white","white","white","black","white","white","white","black","white","black","black","white","white","black","white","white","white","white","white","white","black","white","black","black","black","white","white","white","black","black","white","white","black","white","white","white","white","black","black","black","white","black","white","black","white","white","white","white","black","white","black","white","black","white","black","black","black","black","white","black","black","white","white","white","white","white","black","white","black","black","white","black","white","black","white","white","white","white","white","white","black","black"],"dot_shape":"circle","background_color":"#AAA","RDK_type":3,"aperture_type":2,"reinsert_type":2,"frame_rate":16.932773109243698,"frame_rate_array":[12,2,14,17,17,16,17,16,17,17,17,16,17,16,17,33,17,17,17,17,17,17,17,17,17,17,17,17,17,19,17,17,17,17,16,17,17,17,17,17,17,17,17,17,16,17,17,17,16,17,17,17,19,14,16,17,17,17,17,17,17,17,16,17,17,16,17,17,17,17,17,17,16,17,18,15,33,15,17,16,16,17,17,17,17,17,17,17,17,16,17,17,17,17,17,17,17,17,17,17,17,17,17,17,19,17,17,17,17,17,17,25,8,14,17,17,17,17,18],"number_of_frames":119,"aperture_center_x":768,"aperture_center_y":432,"fixation_cross":true,"fixation_cross_width":15,"fixation_cross_height":15,"fixation_cross_color":"#111","fixation_cross_thickness":1,"border":true,"border_thickness":2,"border_color":"transparent","canvas_width":1536,"canvas_height":864,"trial_type":"rdk","trial_index":72,"plugin_version":"2.0.0","time_elapsed":347266},{"rt":6662,"stimulus":"\n        <div class=\"response-container\">\n          <div class=\"response-instruction\">\n            <p>rotate the bar by using the left and right arrow keys.</p>\n            <p>when you are determined, press the Enter key.</p>\n          </div>\n          <div class=\"response-circle\">\n            <div class=\"response-fixation\"></div>\n            <div id=\"bar\" class=\"rotating-bar\"></div>\n          </div>\n        </div>\n      ","response":"Enter","trial_type":"html-keyboard-response","trial_index":73,"plugin_version":"2.1.0","time_elapsed":353930,"random_initial_angle":231,"response_angle_css":138,"response_angle_rdk":312,"angular_error_target":-101,"angular_error_distractor":-9,"target_direction":53,"target_group":"white","reward_points":0},{"rt":null,"stimulus":"\n          <p style=\"color: #FF3333;\">Your reward: 0 points</p>\n        ","response":null,"trial_type":"html-keyboard-response","trial_index":74,"plugin_version":"2.1.0","time_elapsed":355934},{"rt":null,"stimulus":"<div class=\"fixation\" style=\"font-size: 60px;\">+</div>","response":null,"trial_type":"html-keyboard-response","trial_index":75,"plugin_version":"2.1.0","time_elapsed":356949},{"target_group":"black","condition_label":"B_H_vs_W_L_rep9","target_direction":175,"distractor_direction":272,"session_rotation":48,"rt":-1,"response":"","correct":false,"choices":"ALL_KEYS","correct_choice":["a"],"trial_duration":2000,"flip_timestamps":[],"response_ends_trial":false,"number_of_apertures":200,"number_of_dots":[1,1,1,1,1,1,1,1,1,1,1,1,1,1,1,1,1,1,1,1,1,1,1,1,1,1,1,1,1,1,1,1,1,1,1,1,1,1,1,1,1,1,1,1,1,1,1,1,1,1,1,1,1,1,1,1,1,1,1,1,1,1,1,1,1,1,1,1,1,1,1,1,1,1,1,1,1,1,1,1,1,1,1,1,1,1,1,1,1,1,1,1,1,1,1,1,1,1,1,1,1,1,1,1,1,1,1,1,1,1,1,1,1,1,1,1,1,1,1,1,1,1,1,1,1,1,1,1,1,1,1,1,1,1,1,1,1,1,1,1,1,1,1,1,1,1,1,1,1,1,1,1,1,1,1,1,1,1,1,1,1,1,1,1,1,1,1,1,1,1,1,1,1,1,1,1,1,1,1,1,1,1,1,1,1,1,1,1,1,1,1,1,1,1,1,1,1,1,1,1],"number_of_sets":1,"coherent_direction":[175,175,272,175,272,175,272,272,175,272,175,175,272,175,175,272,272,175,175,272,272,175,175,272,272,272,272,272,175,272,272,175,272,175,272,272,175,175,175,175,272,175,175,175,175,272,175,175,175,272,272,175,175,272,175,272,272,175,272,175,175,272,272,175,175,175,272,175,175,272,175,175,175,175,272,175,272,175,175,272,175,272,175,272,272,175,272,272,272,272,175,272,272,272,175,175,272,175,272,272,272,272,175,175,175,175,272,272,175,175,175,175,272,272,272,272,175,175,272,175,175,272,175,175,175,175,272,272,175,272,175,272,272,175,175,272,272,175,175,175,272,272,175,175,175,272,272,272,272,272,175,175,272,175,175,272,272,175,175,175,272,175,175,272,175,272,175,272,175,175,272,272,272,272,175,175,272,272,272,272,175,272,272,272,272,272,272,175,272,175,175,272,272,175,272,175,272,272,272,175],"coherence":1,"opposite_coherence":0,"dot_radius":2,"dot_side_length":1,"dot_life":-1,"move_distance":1,"aperture_width":300,"aperture_height":300,"dot_color":["black","black","white","black","white","black","white","white","black","white","black","black","white","black","black","white","white","black","black","white","white","black","black","white","white","white","white","white","black","white","white","black","white","black","white","white","black","black","black","black","white","black","black","black","black","white","black","black","black","white","white","black","black","white","black","white","white","black","white","black","black","white","white","black","black","black","white","black","black","white","black","black","black","black","white","black","white","black","black","white","black","white","black","white","white","black","white","white","white","white","black","white","white","white","black","black","white","black","white","white","white","white","black","black","black","black","white","white","black","black","black","black","white","white","white","white","black","black","white","black","black","white","black","black","black","black","white","white","black","white","black","white","white","black","black","white","white","black","black","black","white","white","black","black","black","white","white","white","white","white","black","black","white","black","black","white","white","black","black","black","white","black","black","white","black","white","black","white","black","black","white","white","white","white","black","black","white","white","white","white","black","white","white","white","white","white","white","black","white","black","black","white","white","black","white","black","white","white","white","black"],"dot_shape":"circle","background_color":"#AAA","RDK_type":3,"aperture_type":2,"reinsert_type":2,"frame_rate":16.841666666666665,"frame_rate_array":[10,9,16,13,15,16,33,19,18,16,18,15,16,17,17,17,17,17,16,17,18,16,13,16,17,17,17,17,17,17,17,17,17,17,17,17,17,17,17,17,17,17,17,17,17,17,17,17,17,17,17,17,17,17,17,17,17,17,17,17,17,17,17,17,17,17,17,17,17,17,17,17,17,17,17,17,17,16,17,17,16,17,21,12,16,17,17,17,17,16,17,17,17,17,17,17,17,18,18,16,17,17,17,17,17,17,17,17,16,17,17,17,17,17,17,17,17,16,17,17],"number_of_frames":120,"aperture_center_x":768,"aperture_center_y":432,"fixation_cross":true,"fixation_cross_width":15,"fixation_cross_height":15,"fixation_cross_color":"#111","fixation_cross_thickness":1,"border":true,"border_thickness":2,"border_color":"transparent","canvas_width":1536,"canvas_height":864,"trial_type":"rdk","trial_index":76,"plugin_version":"2.0.0","time_elapsed":358956},{"rt":3971,"stimulus":"\n        <div class=\"response-container\">\n          <div class=\"response-instruction\">\n            <p>rotate the bar by using the left and right arrow keys.</p>\n            <p>when you are determined, press the Enter key.</p>\n          </div>\n          <div class=\"response-circle\">\n            <div class=\"response-fixation\"></div>\n            <div id=\"bar\" class=\"rotating-bar\"></div>\n          </div>\n        </div>\n      ","response":"Enter","trial_type":"html-keyboard-response","trial_index":77,"plugin_version":"2.1.0","time_elapsed":362929,"random_initial_angle":277,"response_angle_css":313,"response_angle_rdk":137,"angular_error_target":-38,"angular_error_distractor":-135,"target_direction":175,"target_group":"black","reward_points":2},{"rt":null,"stimulus":"\n          <p style=\"color: #FF3333;\">Your reward: 2 points</p>\n        ","response":null,"trial_type":"html-keyboard-response","trial_index":78,"plugin_version":"2.1.0","time_elapsed":364944},{"rt":null,"stimulus":"<div class=\"fixation\" style=\"font-size: 60px;\">+</div>","response":null,"trial_type":"html-keyboard-response","trial_index":79,"plugin_version":"2.1.0","time_elapsed":365957},{"target_group":"black","condition_label":"B_H_vs_W_L_rep13","target_direction":152,"distractor_direction":259,"session_rotation":48,"rt":-1,"response":"","correct":false,"choices":"ALL_KEYS","correct_choice":["a"],"trial_duration":2000,"flip_timestamps":[],"response_ends_trial":false,"number_of_apertures":200,"number_of_dots":[1,1,1,1,1,1,1,1,1,1,1,1,1,1,1,1,1,1,1,1,1,1,1,1,1,1,1,1,1,1,1,1,1,1,1,1,1,1,1,1,1,1,1,1,1,1,1,1,1,1,1,1,1,1,1,1,1,1,1,1,1,1,1,1,1,1,1,1,1,1,1,1,1,1,1,1,1,1,1,1,1,1,1,1,1,1,1,1,1,1,1,1,1,1,1,1,1,1,1,1,1,1,1,1,1,1,1,1,1,1,1,1,1,1,1,1,1,1,1,1,1,1,1,1,1,1,1,1,1,1,1,1,1,1,1,1,1,1,1,1,1,1,1,1,1,1,1,1,1,1,1,1,1,1,1,1,1,1,1,1,1,1,1,1,1,1,1,1,1,1,1,1,1,1,1,1,1,1,1,1,1,1,1,1,1,1,1,1,1,1,1,1,1,1,1,1,1,1,1,1],"number_of_sets":1,"coherent_direction":[152,152,259,259,152,259,152,259,259,152,259,152,152,152,152,152,259,152,259,259,259,259,152,152,259,259,259,152,259,152,152,259,152,259,259,259,259,152,152,259,259,152,152,152,259,259,259,259,152,259,152,152,152,152,152,259,259,259,152,259,259,259,152,152,152,152,259,259,259,152,152,259,259,152,152,152,152,152,152,152,259,152,259,259,152,152,152,152,259,259,259,152,152,259,152,259,152,152,259,152,152,259,259,259,259,259,259,259,152,152,259,152,259,152,259,152,259,152,259,259,259,152,152,152,152,259,259,259,152,259,152,152,152,152,152,152,259,152,152,259,152,259,152,259,259,152,152,152,259,259,259,152,152,259,259,152,259,259,152,259,152,259,152,259,152,259,259,152,152,152,152,259,259,259,259,259,259,152,152,259,259,259,259,259,259,259,259,259,152,152,152,259,259,152,152,152,152,152,259,152],"coherence":1,"opposite_coherence":0,"dot_radius":2,"dot_side_length":1,"dot_life":-1,"move_distance":1,"aperture_width":300,"aperture_height":300,"dot_color":["black","black","white","white","black","white","black","white","white","black","white","black","black","black","black","black","white","black","white","white","white","white","black","black","white","white","white","black","white","black","black","white","black","white","white","white","white","black","black","white","white","black","black","black","white","white","white","white","black","white","black","black","black","black","black","white","white","white","black","white","white","white","black","black","black","black","white","white","white","black","black","white","white","black","black","black","black","black","black","black","white","black","white","white","black","black","black","black","white","white","white","black","black","white","black","white","black","black","white","black","black","white","white","white","white","white","white","white","black","black","white","black","white","black","white","black","white","black","white","white","white","black","black","black","black","white","white","white","black","white","black","black","black","black","black","black","white","black","black","white","black","white","black","white","white","black","black","black","white","white","white","black","black","white","white","black","white","white","black","white","black","white","black","white","black","white","white","black","black","black","black","white","white","white","white","white","white","black","black","white","white","white","white","white","white","white","white","white","black","black","black","white","white","black","black","black","black","black","white","black"],"dot_shape":"circle","background_color":"#AAA","RDK_type":3,"aperture_type":2,"reinsert_type":2,"frame_rate":16.801652892561982,"frame_rate_array":[11,11,10,13,15,17,17,17,33,17,17,16,17,16,16,17,17,17,17,17,17,17,17,17,17,17,17,17,17,17,17,17,19,30,2,15,17,17,17,17,17,17,17,17,17,17,17,17,17,17,19,17,16,17,17,17,17,17,16,17,16,17,17,17,17,16,17,16,17,17,22,9,17,17,17,17,17,17,17,17,17,16,17,17,17,17,17,17,17,17,17,17,17,17,17,17,17,17,17,17,17,17,17,17,17,17,17,17,17,17,17,17,19,17,16,17,17,17,14,17,16],"number_of_frames":121,"aperture_center_x":768,"aperture_center_y":432,"fixation_cross":true,"fixation_cross_width":15,"fixation_cross_height":15,"fixation_cross_color":"#111","fixation_cross_thickness":1,"border":true,"border_thickness":2,"border_color":"transparent","canvas_width":1536,"canvas_height":864,"trial_type":"rdk","trial_index":80,"plugin_version":"2.0.0","time_elapsed":367995},{"rt":3123,"stimulus":"\n        <div class=\"response-container\">\n          <div class=\"response-instruction\">\n            <p>rotate the bar by using the left and right arrow keys.</p>\n            <p>when you are determined, press the Enter key.</p>\n          </div>\n          <div class=\"response-circle\">\n            <div class=\"response-fixation\"></div>\n            <div id=\"bar\" class=\"rotating-bar\"></div>\n          </div>\n        </div>\n      ","response":"Enter","trial_type":"html-keyboard-response","trial_index":81,"plugin_version":"2.1.0","time_elapsed":371119,"random_initial_angle":335,"response_angle_css":323,"response_angle_rdk":127,"angular_error_target":-25,"angular_error_distractor":-132,"target_direction":152,"target_group":"black","reward_points":5},{"rt":null,"stimulus":"\n          <p style=\"color: #00FF00;\">Your reward: 5 points</p>\n        ","response":null,"trial_type":"html-keyboard-response","trial_index":82,"plugin_version":"2.1.0","time_elapsed":373134},{"rt":null,"stimulus":"<div class=\"fixation\" style=\"font-size: 60px;\">+</div>","response":null,"trial_type":"html-keyboard-response","trial_index":83,"plugin_version":"2.1.0","time_elapsed":374151},{"target_group":"white","condition_label":"W_H_vs_B_L_rep22","target_direction":87,"distractor_direction":348,"session_rotation":48,"rt":-1,"response":"","correct":false,"choices":"ALL_KEYS","correct_choice":["a"],"trial_duration":2000,"flip_timestamps":[],"response_ends_trial":false,"number_of_apertures":200,"number_of_dots":[1,1,1,1,1,1,1,1,1,1,1,1,1,1,1,1,1,1,1,1,1,1,1,1,1,1,1,1,1,1,1,1,1,1,1,1,1,1,1,1,1,1,1,1,1,1,1,1,1,1,1,1,1,1,1,1,1,1,1,1,1,1,1,1,1,1,1,1,1,1,1,1,1,1,1,1,1,1,1,1,1,1,1,1,1,1,1,1,1,1,1,1,1,1,1,1,1,1,1,1,1,1,1,1,1,1,1,1,1,1,1,1,1,1,1,1,1,1,1,1,1,1,1,1,1,1,1,1,1,1,1,1,1,1,1,1,1,1,1,1,1,1,1,1,1,1,1,1,1,1,1,1,1,1,1,1,1,1,1,1,1,1,1,1,1,1,1,1,1,1,1,1,1,1,1,1,1,1,1,1,1,1,1,1,1,1,1,1,1,1,1,1,1,1,1,1,1,1,1,1],"number_of_sets":1,"coherent_direction":[87,87,348,87,87,348,348,87,348,87,87,348,87,87,348,87,87,348,87,87,348,348,87,87,87,348,87,348,87,87,348,348,348,87,87,348,87,348,87,348,348,348,87,348,348,87,348,87,348,87,348,348,87,87,348,348,87,87,348,348,87,348,87,87,87,87,348,87,87,87,87,348,87,348,87,87,348,87,348,348,87,348,87,348,348,348,348,87,348,348,87,87,87,87,87,87,87,348,87,87,87,87,87,348,87,348,87,87,348,348,348,348,87,87,87,348,348,87,87,87,87,87,348,348,348,87,348,87,87,348,87,348,87,87,348,87,348,348,87,348,87,87,87,87,348,87,87,87,348,87,87,348,348,87,348,348,87,87,87,348,348,348,87,348,348,348,348,348,348,348,87,348,348,348,87,348,348,87,87,348,348,348,348,87,348,348,87,348,348,348,348,348,348,348,348,348,87,87,348,348],"coherence":1,"opposite_coherence":0,"dot_radius":2,"dot_side_length":1,"dot_life":-1,"move_distance":1,"aperture_width":300,"aperture_height":300,"dot_color":["white","white","black","white","white","black","black","white","black","white","white","black","white","white","black","white","white","black","white","white","black","black","white","white","white","black","white","black","white","white","black","black","black","white","white","black","white","black","white","black","black","black","white","black","black","white","black","white","black","white","black","black","white","white","black","black","white","white","black","black","white","black","white","white","white","white","black","white","white","white","white","black","white","black","white","white","black","white","black","black","white","black","white","black","black","black","black","white","black","black","white","white","white","white","white","white","white","black","white","white","white","white","white","black","white","black","white","white","black","black","black","black","white","white","white","black","black","white","white","white","white","white","black","black","black","white","black","white","white","black","white","black","white","white","black","white","black","black","white","black","white","white","white","white","black","white","white","white","black","white","white","black","black","white","black","black","white","white","white","black","black","black","white","black","black","black","black","black","black","black","white","black","black","black","white","black","black","white","white","black","black","black","black","white","black","black","white","black","black","black","black","black","black","black","black","black","white","white","black","black"],"dot_shape":"circle","background_color":"#AAA","RDK_type":3,"aperture_type":2,"reinsert_type":2,"frame_rate":16.907563025210084,"frame_rate_array":[16,11,17,17,18,16,16,17,18,16,18,15,18,15,17,36,17,17,17,17,17,17,16,17,17,17,30,6,12,16,17,17,17,17,17,16,17,17,17,17,18,16,17,17,17,17,17,17,16,17,16,17,17,17,17,17,17,17,16,17,17,17,17,17,17,17,17,17,17,17,17,17,17,17,17,17,17,17,17,17,16,16,17,17,17,17,21,12,17,17,17,16,17,20,13,17,16,17,17,17,16,17,17,17,17,17,16,17,17,17,17,16,17,16,17,17,18,15,17],"number_of_frames":119,"aperture_center_x":768,"aperture_center_y":432,"fixation_cross":true,"fixation_cross_width":15,"fixation_cross_height":15,"fixation_cross_color":"#111","fixation_cross_thickness":1,"border":true,"border_thickness":2,"border_color":"transparent","canvas_width":1536,"canvas_height":864,"trial_type":"rdk","trial_index":84,"plugin_version":"2.0.0","time_elapsed":376169},{"rt":4496,"stimulus":"\n        <div class=\"response-container\">\n          <div class=\"response-instruction\">\n            <p>rotate the bar by using the left and right arrow keys.</p>\n            <p>when you are determined, press the Enter key.</p>\n          </div>\n          <div class=\"response-circle\">\n            <div class=\"response-fixation\"></div>\n            <div id=\"bar\" class=\"rotating-bar\"></div>\n          </div>\n        </div>\n      ","response":"Enter","trial_type":"html-keyboard-response","trial_index":85,"plugin_version":"2.1.0","time_elapsed":380667,"random_initial_angle":48,"response_angle_css":110,"response_angle_rdk":340,"angular_error_target":-107,"angular_error_distractor":-8,"target_direction":87,"target_group":"white","reward_points":0},{"rt":null,"stimulus":"\n          <p style=\"color: #FF3333;\">Your reward: 0 points</p>\n        ","response":null,"trial_type":"html-keyboard-response","trial_index":86,"plugin_version":"2.1.0","time_elapsed":382677},{"rt":null,"stimulus":"<div class=\"fixation\" style=\"font-size: 60px;\">+</div>","response":null,"trial_type":"html-keyboard-response","trial_index":87,"plugin_version":"2.1.0","time_elapsed":383692},{"target_group":"black","condition_label":"B_H_vs_W_L_rep1","target_direction":146,"distractor_direction":262,"session_rotation":48,"rt":-1,"response":"","correct":false,"choices":"ALL_KEYS","correct_choice":["a"],"trial_duration":2000,"flip_timestamps":[],"response_ends_trial":false,"number_of_apertures":200,"number_of_dots":[1,1,1,1,1,1,1,1,1,1,1,1,1,1,1,1,1,1,1,1,1,1,1,1,1,1,1,1,1,1,1,1,1,1,1,1,1,1,1,1,1,1,1,1,1,1,1,1,1,1,1,1,1,1,1,1,1,1,1,1,1,1,1,1,1,1,1,1,1,1,1,1,1,1,1,1,1,1,1,1,1,1,1,1,1,1,1,1,1,1,1,1,1,1,1,1,1,1,1,1,1,1,1,1,1,1,1,1,1,1,1,1,1,1,1,1,1,1,1,1,1,1,1,1,1,1,1,1,1,1,1,1,1,1,1,1,1,1,1,1,1,1,1,1,1,1,1,1,1,1,1,1,1,1,1,1,1,1,1,1,1,1,1,1,1,1,1,1,1,1,1,1,1,1,1,1,1,1,1,1,1,1,1,1,1,1,1,1,1,1,1,1,1,1,1,1,1,1,1,1],"number_of_sets":1,"coherent_direction":[146,262,146,262,262,262,262,146,146,146,146,262,146,262,146,146,262,262,146,262,262,262,146,146,146,146,262,146,262,146,262,262,146,146,262,146,146,146,262,146,146,262,262,262,146,146,262,262,262,262,146,262,262,146,146,146,262,262,262,262,262,146,146,146,146,146,262,262,262,146,146,262,146,146,146,262,262,262,146,262,262,262,146,146,262,262,262,262,262,262,262,262,146,262,262,146,146,146,262,262,262,262,146,146,262,262,262,146,146,146,146,262,146,262,262,146,262,262,146,146,146,146,262,146,146,262,262,262,146,262,262,146,262,262,262,146,262,262,146,146,146,146,146,146,262,146,262,146,146,146,262,262,146,146,146,146,262,146,262,146,262,146,262,262,146,262,262,262,146,262,262,146,146,146,146,146,262,146,146,146,262,262,146,262,262,146,262,146,146,262,262,146,262,146,146,262,146,146,262,146],"coherence":1,"opposite_coherence":0,"dot_radius":2,"dot_side_length":1,"dot_life":-1,"move_distance":1,"aperture_width":300,"aperture_height":300,"dot_color":["black","white","black","white","white","white","white","black","black","black","black","white","black","white","black","black","white","white","black","white","white","white","black","black","black","black","white","black","white","black","white","white","black","black","white","black","black","black","white","black","black","white","white","white","black","black","white","white","white","white","black","white","white","black","black","black","white","white","white","white","white","black","black","black","black","black","white","white","white","black","black","white","black","black","black","white","white","white","black","white","white","white","black","black","white","white","white","white","white","white","white","white","black","white","white","black","black","black","white","white","white","white","black","black","white","white","white","black","black","black","black","white","black","white","white","black","white","white","black","black","black","black","white","black","black","white","white","white","black","white","white","black","white","white","white","black","white","white","black","black","black","black","black","black","white","black","white","black","black","black","white","white","black","black","black","black","white","black","white","black","white","black","white","white","black","white","white","white","black","white","white","black","black","black","black","black","white","black","black","black","white","white","black","white","white","black","white","black","black","white","white","black","white","black","black","white","black","black","white","black"],"dot_shape":"circle","background_color":"#AAA","RDK_type":3,"aperture_type":2,"reinsert_type":2,"frame_rate":16.958333333333332,"frame_rate_array":[9,15,16,17,17,33,16,17,16,18,16,17,17,17,17,17,17,17,17,17,17,17,17,17,17,17,17,17,17,17,17,17,16,17,17,17,17,17,17,16,17,17,17,17,17,17,17,17,17,17,17,17,17,17,17,17,17,17,16,17,17,17,17,17,17,17,17,17,17,17,17,16,17,17,17,17,17,17,17,17,17,17,17,16,17,17,17,17,17,17,17,16,17,17,17,17,17,17,17,17,17,17,17,17,17,17,17,16,17,17,17,17,17,17,17,17,17,17,16,17],"number_of_frames":120,"aperture_center_x":768,"aperture_center_y":432,"fixation_cross":true,"fixation_cross_width":15,"fixation_cross_height":15,"fixation_cross_color":"#111","fixation_cross_thickness":1,"border":true,"border_thickness":2,"border_color":"transparent","canvas_width":1536,"canvas_height":864,"trial_type":"rdk","trial_index":88,"plugin_version":"2.0.0","time_elapsed":385713},{"rt":5171,"stimulus":"\n        <div class=\"response-container\">\n          <div class=\"response-instruction\">\n            <p>rotate the bar by using the left and right arrow keys.</p>\n            <p>when you are determined, press the Enter key.</p>\n          </div>\n          <div class=\"response-circle\">\n            <div class=\"response-fixation\"></div>\n            <div id=\"bar\" class=\"rotating-bar\"></div>\n          </div>\n        </div>\n      ","response":"Enter","trial_type":"html-keyboard-response","trial_index":89,"plugin_version":"2.1.0","time_elapsed":390885,"random_initial_angle":15,"response_angle_css":131,"response_angle_rdk":319,"angular_error_target":173,"angular_error_distractor":57,"target_direction":146,"target_group":"black","reward_points":0},{"rt":null,"stimulus":"\n          <p style=\"color: #FF3333;\">Your reward: 0 points</p>\n        ","response":null,"trial_type":"html-keyboard-response","trial_index":90,"plugin_version":"2.1.0","time_elapsed":392901},{"rt":null,"stimulus":"<div class=\"fixation\" style=\"font-size: 60px;\">+</div>","response":null,"trial_type":"html-keyboard-response","trial_index":91,"plugin_version":"2.1.0","time_elapsed":393916},{"target_group":"black","condition_label":"B_H_vs_W_L_rep17","target_direction":140,"distractor_direction":246,"session_rotation":48,"rt":-1,"response":"","correct":false,"choices":"ALL_KEYS","correct_choice":["a"],"trial_duration":2000,"flip_timestamps":[],"response_ends_trial":false,"number_of_apertures":200,"number_of_dots":[1,1,1,1,1,1,1,1,1,1,1,1,1,1,1,1,1,1,1,1,1,1,1,1,1,1,1,1,1,1,1,1,1,1,1,1,1,1,1,1,1,1,1,1,1,1,1,1,1,1,1,1,1,1,1,1,1,1,1,1,1,1,1,1,1,1,1,1,1,1,1,1,1,1,1,1,1,1,1,1,1,1,1,1,1,1,1,1,1,1,1,1,1,1,1,1,1,1,1,1,1,1,1,1,1,1,1,1,1,1,1,1,1,1,1,1,1,1,1,1,1,1,1,1,1,1,1,1,1,1,1,1,1,1,1,1,1,1,1,1,1,1,1,1,1,1,1,1,1,1,1,1,1,1,1,1,1,1,1,1,1,1,1,1,1,1,1,1,1,1,1,1,1,1,1,1,1,1,1,1,1,1,1,1,1,1,1,1,1,1,1,1,1,1,1,1,1,1,1,1],"number_of_sets":1,"coherent_direction":[140,140,246,246,140,140,246,140,140,246,246,140,140,140,140,140,246,140,140,140,246,140,246,140,246,140,140,246,140,246,246,246,246,246,140,246,246,246,140,246,140,140,140,140,140,140,246,246,246,140,246,140,140,140,140,140,140,140,140,246,246,140,140,246,140,140,140,246,246,246,246,140,246,140,140,246,246,140,140,246,246,140,246,140,246,246,140,140,246,140,246,140,246,246,140,246,140,246,140,246,246,246,246,140,140,246,140,140,140,246,140,246,246,246,140,140,246,140,140,246,246,140,246,246,140,246,246,246,246,246,246,140,140,246,140,246,246,140,140,246,246,246,140,246,246,140,246,140,246,246,140,140,140,140,246,246,246,246,246,140,246,140,140,246,246,246,246,140,246,140,140,246,246,140,246,140,246,246,140,246,140,140,140,140,140,140,140,246,246,140,140,140,246,246,140,246,246,246,140,246],"coherence":1,"opposite_coherence":0,"dot_radius":2,"dot_side_length":1,"dot_life":-1,"move_distance":1,"aperture_width":300,"aperture_height":300,"dot_color":["black","black","white","white","black","black","white","black","black","white","white","black","black","black","black","black","white","black","black","black","white","black","white","black","white","black","black","white","black","white","white","white","white","white","black","white","white","white","black","white","black","black","black","black","black","black","white","white","white","black","white","black","black","black","black","black","black","black","black","white","white","black","black","white","black","black","black","white","white","white","white","black","white","black","black","white","white","black","black","white","white","black","white","black","white","white","black","black","white","black","white","black","white","white","black","white","black","white","black","white","white","white","white","black","black","white","black","black","black","white","black","white","white","white","black","black","white","black","black","white","white","black","white","white","black","white","white","white","white","white","white","black","black","white","black","white","white","black","black","white","white","white","black","white","white","black","white","black","white","white","black","black","black","black","white","white","white","white","white","black","white","black","black","white","white","white","white","black","white","black","black","white","white","black","white","black","white","white","black","white","black","black","black","black","black","black","black","white","white","black","black","black","white","white","black","white","white","white","black","white"],"dot_shape":"circle","background_color":"#AAA","RDK_type":3,"aperture_type":2,"reinsert_type":2,"frame_rate":16.9,"frame_rate_array":[14,5,10,17,17,17,33,16,17,16,17,16,17,17,17,17,17,17,17,17,17,17,17,17,17,17,17,17,17,17,17,17,17,17,17,17,17,17,17,17,17,17,17,17,17,17,17,17,17,17,17,17,17,17,17,17,17,17,17,17,17,17,17,17,17,17,17,17,17,16,17,17,17,17,17,17,17,17,17,17,17,17,17,19,17,17,17,17,17,17,17,17,17,17,17,17,17,17,17,17,17,17,17,17,17,17,17,17,17,24,12,15,15,17,20,13,16,17,17,17],"number_of_frames":120,"aperture_center_x":768,"aperture_center_y":432,"fixation_cross":true,"fixation_cross_width":15,"fixation_cross_height":15,"fixation_cross_color":"#111","fixation_cross_thickness":1,"border":true,"border_thickness":2,"border_color":"transparent","canvas_width":1536,"canvas_height":864,"trial_type":"rdk","trial_index":92,"plugin_version":"2.0.0","time_elapsed":395925},{"rt":3728,"stimulus":"\n        <div class=\"response-container\">\n          <div class=\"response-instruction\">\n            <p>rotate the bar by using the left and right arrow keys.</p>\n            <p>when you are determined, press the Enter key.</p>\n          </div>\n          <div class=\"response-circle\">\n            <div class=\"response-fixation\"></div>\n            <div id=\"bar\" class=\"rotating-bar\"></div>\n          </div>\n        </div>\n      ","response":"Enter","trial_type":"html-keyboard-response","trial_index":93,"plugin_version":"2.1.0","time_elapsed":399655,"random_initial_angle":55,"response_angle_css":-40,"response_angle_rdk":130,"angular_error_target":-10,"angular_error_distractor":-116,"target_direction":140,"target_group":"black","reward_points":8},{"rt":null,"stimulus":"\n          <p style=\"color: #00FF00;\">Your reward: 8 points</p>\n        ","response":null,"trial_type":"html-keyboard-response","trial_index":94,"plugin_version":"2.1.0","time_elapsed":401661},{"rt":null,"stimulus":"<div class=\"fixation\" style=\"font-size: 60px;\">+</div>","response":null,"trial_type":"html-keyboard-response","trial_index":95,"plugin_version":"2.1.0","time_elapsed":402677},{"target_group":"white","condition_label":"W_H_vs_B_L_rep13","target_direction":92,"distractor_direction":359,"session_rotation":48,"rt":-1,"response":"","correct":false,"choices":"ALL_KEYS","correct_choice":["a"],"trial_duration":2000,"flip_timestamps":[],"response_ends_trial":false,"number_of_apertures":200,"number_of_dots":[1,1,1,1,1,1,1,1,1,1,1,1,1,1,1,1,1,1,1,1,1,1,1,1,1,1,1,1,1,1,1,1,1,1,1,1,1,1,1,1,1,1,1,1,1,1,1,1,1,1,1,1,1,1,1,1,1,1,1,1,1,1,1,1,1,1,1,1,1,1,1,1,1,1,1,1,1,1,1,1,1,1,1,1,1,1,1,1,1,1,1,1,1,1,1,1,1,1,1,1,1,1,1,1,1,1,1,1,1,1,1,1,1,1,1,1,1,1,1,1,1,1,1,1,1,1,1,1,1,1,1,1,1,1,1,1,1,1,1,1,1,1,1,1,1,1,1,1,1,1,1,1,1,1,1,1,1,1,1,1,1,1,1,1,1,1,1,1,1,1,1,1,1,1,1,1,1,1,1,1,1,1,1,1,1,1,1,1,1,1,1,1,1,1,1,1,1,1,1,1],"number_of_sets":1,"coherent_direction":[92,359,359,359,359,359,359,92,359,92,92,92,359,359,359,359,359,359,359,359,92,359,359,359,359,359,359,92,92,359,92,359,359,92,359,92,359,92,92,92,92,92,92,92,92,359,359,92,92,359,92,92,92,92,359,92,92,359,92,359,92,92,359,92,359,359,92,92,92,92,92,92,359,92,92,359,359,359,92,92,92,359,92,359,359,92,92,359,359,92,92,92,92,359,359,92,359,92,359,92,92,92,92,92,359,359,359,359,92,359,359,92,92,92,359,92,92,92,359,92,92,359,92,92,359,359,359,92,359,92,92,359,359,92,92,92,359,359,359,92,92,92,359,92,359,359,92,359,359,359,92,359,359,359,92,359,359,92,359,359,359,92,359,92,359,359,359,92,92,92,92,92,359,92,359,359,92,359,359,92,92,92,92,92,92,359,359,92,92,359,359,359,359,92,359,92,359,359,359,359],"coherence":1,"opposite_coherence":0,"dot_radius":2,"dot_side_length":1,"dot_life":-1,"move_distance":1,"aperture_width":300,"aperture_height":300,"dot_color":["white","black","black","black","black","black","black","white","black","white","white","white","black","black","black","black","black","black","black","black","white","black","black","black","black","black","black","white","white","black","white","black","black","white","black","white","black","white","white","white","white","white","white","white","white","black","black","white","white","black","white","white","white","white","black","white","white","black","white","black","white","white","black","white","black","black","white","white","white","white","white","white","black","white","white","black","black","black","white","white","white","black","white","black","black","white","white","black","black","white","white","white","white","black","black","white","black","white","black","white","white","white","white","white","black","black","black","black","white","black","black","white","white","white","black","white","white","white","black","white","white","black","white","white","black","black","black","white","black","white","white","black","black","white","white","white","black","black","black","white","white","white","black","white","black","black","white","black","black","black","white","black","black","black","white","black","black","white","black","black","black","white","black","white","black","black","black","white","white","white","white","white","black","white","black","black","white","black","black","white","white","white","white","white","white","black","black","white","white","black","black","black","black","white","black","white","black","black","black","black"],"dot_shape":"circle","background_color":"#AAA","RDK_type":3,"aperture_type":2,"reinsert_type":2,"frame_rate":16.883333333333333,"frame_rate_array":[11,5,11,17,17,17,17,33,20,18,12,17,19,14,17,17,17,17,17,17,17,17,17,17,17,17,17,17,17,17,17,17,17,17,17,17,17,17,17,17,17,17,17,17,17,17,17,17,17,17,17,17,17,16,17,17,17,17,17,19,17,17,16,17,17,17,17,17,17,17,18,15,27,7,16,17,17,18,16,17,17,17,17,17,17,17,17,17,17,17,17,17,17,17,17,17,17,17,17,16,17,17,18,16,17,16,17,17,17,17,17,17,17,17,17,17,17,17,17,17],"number_of_frames":120,"aperture_center_x":768,"aperture_center_y":432,"fixation_cross":true,"fixation_cross_width":15,"fixation_cross_height":15,"fixation_cross_color":"#111","fixation_cross_thickness":1,"border":true,"border_thickness":2,"border_color":"transparent","canvas_width":1536,"canvas_height":864,"trial_type":"rdk","trial_index":96,"plugin_version":"2.0.0","time_elapsed":404684},{"rt":6525,"stimulus":"\n        <div class=\"response-container\">\n          <div class=\"response-instruction\">\n            <p>rotate the bar by using the left and right arrow keys.</p>\n            <p>when you are determined, press the Enter key.</p>\n          </div>\n          <div class=\"response-circle\">\n            <div class=\"response-fixation\"></div>\n            <div id=\"bar\" class=\"rotating-bar\"></div>\n          </div>\n        </div>\n      ","response":"Enter","trial_type":"html-keyboard-response","trial_index":97,"plugin_version":"2.1.0","time_elapsed":411211,"random_initial_angle":270,"response_angle_css":129,"response_angle_rdk":321,"angular_error_target":-131,"angular_error_distractor":-38,"target_direction":92,"target_group":"white","reward_points":0},{"rt":null,"stimulus":"\n          <p style=\"color: #FF3333;\">Your reward: 0 points</p>\n        ","response":null,"trial_type":"html-keyboard-response","trial_index":98,"plugin_version":"2.1.0","time_elapsed":413218},{"rt":null,"stimulus":"<div class=\"fixation\" style=\"font-size: 60px;\">+</div>","response":null,"trial_type":"html-keyboard-response","trial_index":99,"plugin_version":"2.1.0","time_elapsed":414232},{"target_group":"black","condition_label":"B_H_vs_W_L_rep4","target_direction":139,"distractor_direction":245,"session_rotation":48,"rt":-1,"response":"","correct":false,"choices":"ALL_KEYS","correct_choice":["a"],"trial_duration":2000,"flip_timestamps":[],"response_ends_trial":false,"number_of_apertures":200,"number_of_dots":[1,1,1,1,1,1,1,1,1,1,1,1,1,1,1,1,1,1,1,1,1,1,1,1,1,1,1,1,1,1,1,1,1,1,1,1,1,1,1,1,1,1,1,1,1,1,1,1,1,1,1,1,1,1,1,1,1,1,1,1,1,1,1,1,1,1,1,1,1,1,1,1,1,1,1,1,1,1,1,1,1,1,1,1,1,1,1,1,1,1,1,1,1,1,1,1,1,1,1,1,1,1,1,1,1,1,1,1,1,1,1,1,1,1,1,1,1,1,1,1,1,1,1,1,1,1,1,1,1,1,1,1,1,1,1,1,1,1,1,1,1,1,1,1,1,1,1,1,1,1,1,1,1,1,1,1,1,1,1,1,1,1,1,1,1,1,1,1,1,1,1,1,1,1,1,1,1,1,1,1,1,1,1,1,1,1,1,1,1,1,1,1,1,1,1,1,1,1,1,1],"number_of_sets":1,"coherent_direction":[245,245,245,139,139,245,139,139,245,139,139,245,139,245,139,245,245,245,139,245,245,139,245,245,245,139,139,245,139,245,245,245,245,245,245,245,139,245,139,139,139,245,245,245,139,139,139,139,139,139,139,245,245,245,139,245,245,139,139,139,139,139,139,245,139,139,245,139,139,139,139,245,139,245,139,139,245,139,139,139,139,245,139,245,245,245,139,245,245,245,245,139,245,139,139,139,139,139,245,245,245,245,245,245,245,245,139,139,245,139,139,139,245,245,245,245,139,139,139,139,245,139,245,139,245,245,139,139,245,139,245,245,245,139,139,139,245,245,139,139,139,139,245,139,245,139,245,139,139,245,245,245,139,245,245,139,245,245,245,139,139,139,139,139,139,245,139,245,139,139,139,245,245,139,139,245,139,139,139,139,245,245,245,245,139,139,245,139,139,245,245,139,245,245,245,245,245,245,245,245],"coherence":1,"opposite_coherence":0,"dot_radius":2,"dot_side_length":1,"dot_life":-1,"move_distance":1,"aperture_width":300,"aperture_height":300,"dot_color":["white","white","white","black","black","white","black","black","white","black","black","white","black","white","black","white","white","white","black","white","white","black","white","white","white","black","black","white","black","white","white","white","white","white","white","white","black","white","black","black","black","white","white","white","black","black","black","black","black","black","black","white","white","white","black","white","white","black","black","black","black","black","black","white","black","black","white","black","black","black","black","white","black","white","black","black","white","black","black","black","black","white","black","white","white","white","black","white","white","white","white","black","white","black","black","black","black","black","white","white","white","white","white","white","white","white","black","black","white","black","black","black","white","white","white","white","black","black","black","black","white","black","white","black","white","white","black","black","white","black","white","white","white","black","black","black","white","white","black","black","black","black","white","black","white","black","white","black","black","white","white","white","black","white","white","black","white","white","white","black","black","black","black","black","black","white","black","white","black","black","black","white","white","black","black","white","black","black","black","black","white","white","white","white","black","black","white","black","black","white","white","black","white","white","white","white","white","white","white","white"],"dot_shape":"circle","background_color":"#AAA","RDK_type":3,"aperture_type":2,"reinsert_type":2,"frame_rate":16.841666666666665,"frame_rate_array":[11,12,13,14,12,16,17,17,33,19,18,15,18,12,17,17,17,17,17,17,16,17,17,17,17,17,17,17,17,17,17,17,17,17,17,17,17,17,17,17,17,17,17,17,17,17,17,17,17,17,17,16,17,16,17,17,17,17,17,17,17,17,17,17,17,17,17,17,17,17,17,17,17,16,17,17,17,17,17,17,17,17,17,17,17,17,17,17,17,17,17,17,17,16,17,17,17,17,17,17,18,15,17,17,17,17,16,17,17,17,17,17,17,16,17,17,17,17,17,17],"number_of_frames":120,"aperture_center_x":768,"aperture_center_y":432,"fixation_cross":true,"fixation_cross_width":15,"fixation_cross_height":15,"fixation_cross_color":"#111","fixation_cross_thickness":1,"border":true,"border_thickness":2,"border_color":"transparent","canvas_width":1536,"canvas_height":864,"trial_type":"rdk","trial_index":100,"plugin_version":"2.0.0","time_elapsed":416244},{"rt":2168,"stimulus":"\n        <div class=\"response-container\">\n          <div class=\"response-instruction\">\n            <p>rotate the bar by using the left and right arrow keys.</p>\n            <p>when you are determined, press the Enter key.</p>\n          </div>\n          <div class=\"response-circle\">\n            <div class=\"response-fixation\"></div>\n            <div id=\"bar\" class=\"rotating-bar\"></div>\n          </div>\n        </div>\n      ","response":"Enter","trial_type":"html-keyboard-response","trial_index":101,"plugin_version":"2.1.0","time_elapsed":418414,"random_initial_angle":299,"response_angle_css":299,"response_angle_rdk":151,"angular_error_target":12,"angular_error_distractor":-94,"target_direction":139,"target_group":"black","reward_points":7},{"rt":null,"stimulus":"\n          <p style=\"color: #00FF00;\">Your reward: 7 points</p>\n        ","response":null,"trial_type":"html-keyboard-response","trial_index":102,"plugin_version":"2.1.0","time_elapsed":420427},{"rt":null,"stimulus":"<div class=\"fixation\" style=\"font-size: 60px;\">+</div>","response":null,"trial_type":"html-keyboard-response","trial_index":103,"plugin_version":"2.1.0","time_elapsed":421442},{"target_group":"white","condition_label":"W_H_vs_B_L_rep19","target_direction":91,"distractor_direction":1,"session_rotation":48,"rt":-1,"response":"","correct":false,"choices":"ALL_KEYS","correct_choice":["a"],"trial_duration":2000,"flip_timestamps":[],"response_ends_trial":false,"number_of_apertures":200,"number_of_dots":[1,1,1,1,1,1,1,1,1,1,1,1,1,1,1,1,1,1,1,1,1,1,1,1,1,1,1,1,1,1,1,1,1,1,1,1,1,1,1,1,1,1,1,1,1,1,1,1,1,1,1,1,1,1,1,1,1,1,1,1,1,1,1,1,1,1,1,1,1,1,1,1,1,1,1,1,1,1,1,1,1,1,1,1,1,1,1,1,1,1,1,1,1,1,1,1,1,1,1,1,1,1,1,1,1,1,1,1,1,1,1,1,1,1,1,1,1,1,1,1,1,1,1,1,1,1,1,1,1,1,1,1,1,1,1,1,1,1,1,1,1,1,1,1,1,1,1,1,1,1,1,1,1,1,1,1,1,1,1,1,1,1,1,1,1,1,1,1,1,1,1,1,1,1,1,1,1,1,1,1,1,1,1,1,1,1,1,1,1,1,1,1,1,1,1,1,1,1,1,1],"number_of_sets":1,"coherent_direction":[91,1,1,91,91,91,1,1,91,91,1,91,1,1,91,91,91,91,1,1,91,1,1,91,1,1,1,91,91,91,1,1,91,91,1,91,91,91,91,91,91,91,91,91,91,1,91,1,91,91,1,91,1,91,1,1,1,91,91,1,91,1,1,1,91,91,91,91,1,91,91,1,1,91,1,91,91,91,91,91,91,1,1,1,91,1,91,91,1,91,1,91,1,91,1,1,1,1,91,1,1,91,91,1,1,1,91,91,1,1,1,1,1,91,91,1,1,1,91,1,1,91,1,1,1,91,91,1,1,1,1,1,1,1,1,1,91,1,1,91,1,1,91,1,91,91,91,91,91,1,91,1,91,1,1,1,91,1,1,91,91,1,91,91,91,91,1,91,91,91,91,1,1,91,1,91,91,91,1,1,1,1,91,91,1,91,91,91,91,1,1,1,1,1,91,1,91,91,1,1],"coherence":1,"opposite_coherence":0,"dot_radius":2,"dot_side_length":1,"dot_life":-1,"move_distance":1,"aperture_width":300,"aperture_height":300,"dot_color":["white","black","black","white","white","white","black","black","white","white","black","white","black","black","white","white","white","white","black","black","white","black","black","white","black","black","black","white","white","white","black","black","white","white","black","white","white","white","white","white","white","white","white","white","white","black","white","black","white","white","black","white","black","white","black","black","black","white","white","black","white","black","black","black","white","white","white","white","black","white","white","black","black","white","black","white","white","white","white","white","white","black","black","black","white","black","white","white","black","white","black","white","black","white","black","black","black","black","white","black","black","white","white","black","black","black","white","white","black","black","black","black","black","white","white","black","black","black","white","black","black","white","black","black","black","white","white","black","black","black","black","black","black","black","black","black","white","black","black","white","black","black","white","black","white","white","white","white","white","black","white","black","white","black","black","black","white","black","black","white","white","black","white","white","white","white","black","white","white","white","white","black","black","white","black","white","white","white","black","black","black","black","white","white","black","white","white","white","white","black","black","black","black","black","white","black","white","white","black","black"],"dot_shape":"circle","background_color":"#AAA","RDK_type":3,"aperture_type":2,"reinsert_type":2,"frame_rate":17.194915254237287,"frame_rate_array":[30,3,12,16,17,17,17,16,17,16,18,15,17,22,48,16,17,16,17,17,17,17,16,17,17,17,17,22,12,16,17,17,17,17,30,17,17,17,17,17,17,17,17,17,17,16,17,17,17,17,17,16,17,17,17,16,18,16,16,17,17,17,17,17,17,17,17,17,17,17,17,16,17,17,17,17,17,17,17,17,17,17,17,17,17,17,16,17,17,16,17,16,17,23,11,16,17,17,17,17,17,17,17,16,17,17,17,17,17,17,16,17,17,17,17,17,17,16],"number_of_frames":118,"aperture_center_x":768,"aperture_center_y":432,"fixation_cross":true,"fixation_cross_width":15,"fixation_cross_height":15,"fixation_cross_color":"#111","fixation_cross_thickness":1,"border":true,"border_thickness":2,"border_color":"transparent","canvas_width":1536,"canvas_height":864,"trial_type":"rdk","trial_index":104,"plugin_version":"2.0.0","time_elapsed":423464},{"rt":6130,"stimulus":"\n        <div class=\"response-container\">\n          <div class=\"response-instruction\">\n            <p>rotate the bar by using the left and right arrow keys.</p>\n            <p>when you are determined, press the Enter key.</p>\n          </div>\n          <div class=\"response-circle\">\n            <div class=\"response-fixation\"></div>\n            <div id=\"bar\" class=\"rotating-bar\"></div>\n          </div>\n        </div>\n      ","response":"Enter","trial_type":"html-keyboard-response","trial_index":105,"plugin_version":"2.1.0","time_elapsed":429595,"random_initial_angle":343,"response_angle_css":359,"response_angle_rdk":91,"angular_error_target":0,"angular_error_distractor":90,"target_direction":91,"target_group":"white","reward_points":10},{"rt":null,"stimulus":"\n          <p style=\"color: #00FF00;\">Your reward: 10 points</p>\n        ","response":null,"trial_type":"html-keyboard-response","trial_index":106,"plugin_version":"2.1.0","time_elapsed":431604},{"rt":null,"stimulus":"<div class=\"fixation\" style=\"font-size: 60px;\">+</div>","response":null,"trial_type":"html-keyboard-response","trial_index":107,"plugin_version":"2.1.0","time_elapsed":432616},{"target_group":"black","condition_label":"B_H_vs_W_L_rep20","target_direction":142,"distractor_direction":257,"session_rotation":48,"rt":-1,"response":"","correct":false,"choices":"ALL_KEYS","correct_choice":["a"],"trial_duration":2000,"flip_timestamps":[],"response_ends_trial":false,"number_of_apertures":200,"number_of_dots":[1,1,1,1,1,1,1,1,1,1,1,1,1,1,1,1,1,1,1,1,1,1,1,1,1,1,1,1,1,1,1,1,1,1,1,1,1,1,1,1,1,1,1,1,1,1,1,1,1,1,1,1,1,1,1,1,1,1,1,1,1,1,1,1,1,1,1,1,1,1,1,1,1,1,1,1,1,1,1,1,1,1,1,1,1,1,1,1,1,1,1,1,1,1,1,1,1,1,1,1,1,1,1,1,1,1,1,1,1,1,1,1,1,1,1,1,1,1,1,1,1,1,1,1,1,1,1,1,1,1,1,1,1,1,1,1,1,1,1,1,1,1,1,1,1,1,1,1,1,1,1,1,1,1,1,1,1,1,1,1,1,1,1,1,1,1,1,1,1,1,1,1,1,1,1,1,1,1,1,1,1,1,1,1,1,1,1,1,1,1,1,1,1,1,1,1,1,1,1,1],"number_of_sets":1,"coherent_direction":[257,257,142,257,257,142,257,257,257,257,257,142,142,257,142,257,257,142,257,142,257,1