[{"rt":3318,"stimulus":"Welcome to the experiment. Press any key to begin.","response":" ","trial_type":"html-keyboard-response","trial_index":0,"plugin_version":"2.1.0","time_elapsed":3321},{"rt":60010,"stimulus":"\n        <div class=\"instructions-container\">\n          <h2>Instructions</h2>\n\n          <p>\n          In this experiment, you will see <strong>two Random Dot Kinematograms (RDKs)</strong> displayed simultaneously.\n          </p>\n\n          <p>\n          An RDK is a visual stimulus consisting of many small dots that move coherently in a single direction. \n          In this experiment, the dots will be either <strong>white</strong> or <strong>black</strong> \n          (see the short demo below for an example of an RDK stimulus).\n          </p>\n\n          <p>\n          On each trial, the two RDKs will move in different directions. \n          Your task is to decide <strong>which RDK appears to contain more dots</strong>.\n          </p>\n\n          <p>\n          The RDK that you judge to have more dots is called the <strong>target RDK</strong>. \n          For example, if the white RDK appears to have more dots than the black RDK, \n          you should report the motion direction of the white RDK.\n          </p>\n\n          <p>\n          After viewing the RDKs, you will rotate a bar to indicate the perceived direction of the target RDK \n          using the <strong>left</strong> and <strong>right arrow keys</strong>. \n          Press <strong>Enter</strong> when you are satisfied with your response.\n          When the bar is held down, the rotation speed increases.\n          </p>\n\n          <p>\n          You will receive points based on the <strong>accuracy of your response</strong>, \n          and your final <strong>bonus reward</strong> may depend on your overall performance. \n          Please try to respond as accurately as possible.\n          </p>\n\n          <p>\n          You will first complete <strong>16 practice trials</strong>. \n          Press the <strong>Enter</strong> key to start the practice phase.\n          </p>\n\n          <canvas id=\"instruction-demo-rdk\" width=\"200\" height=\"200\"style=\"display:block;margin:12px auto; border-radius: 50%;\"></canvas>\n        </div>\n      ","response":"Enter","trial_type":"html-keyboard-response","trial_index":1,"plugin_version":"2.1.0","time_elapsed":63335},{"rt":null,"stimulus":"<div class=\"fixation\" style=\"font-size: 60px;\">+</div>","response":null,"trial_type":"html-keyboard-response","trial_index":2,"plugin_version":"2.1.0","time_elapsed":64339},{"target_group":"black","target_index":1,"condition_label":"practice","rt":-1,"response":"","correct":false,"choices":"ALL_KEYS","correct_choice":["a"],"trial_duration":2000,"flip_timestamps":[],"response_ends_trial":false,"number_of_apertures":2,"number_of_dots":[81,100],"number_of_sets":1,"coherent_direction":[140,259],"coherence":1,"opposite_coherence":0,"dot_radius":2,"dot_side_length":1,"dot_life":-1,"move_distance":1,"aperture_width":300,"aperture_height":300,"dot_color":["white","black"],"dot_shape":"circle","background_color":"#AAA","RDK_type":3,"aperture_type":2,"reinsert_type":2,"frame_rate":17,"frame_rate_array":[10,18,49,16,17,17,17,17,17,17,17,17,17,17,16,17,17,16,17,16,17,17,17,17,16,16,17,18,17,16,16,17,17,17,17,17,17,18,17,16,17,16,16,17,17,16,17,18,16,17,17,16,17,16,18,15,17,17,16,18,16,17,17,16,17,17,17,17,16,17,17,17,17,17,17,16,17,17,16,17,19,15,16,17,17,17,17,17,16,17,15,17,17,17,17,17,17,16,17,17,18,18,15,17,17,17,17,18,15,17,17,16,17,17,17,17,16,17,17],"number_of_frames":119,"aperture_center_x":768,"aperture_center_y":432,"fixation_cross":true,"fixation_cross_width":15,"fixation_cross_height":15,"fixation_cross_color":"#111","fixation_cross_thickness":1,"border":true,"border_thickness":2,"border_color":"transparent","canvas_width":1536,"canvas_height":864,"trial_type":"rdk","trial_index":3,"plugin_version":"2.0.0","time_elapsed":66361,"phase":"practice","target_direction":259,"distractor_direction":140},{"rt":12873,"stimulus":"\n        <div class=\"response-container\">\n          <div class=\"response-instruction\">\n            <p>rotate the bar by using the left and right arrow keys.</p>\n            <p>when you are determined, press the Enter key.</p>\n          </div>\n          <div class=\"response-circle\">\n            <div class=\"response-fixation\"></div>\n            <div id=\"bar\" class=\"rotating-bar\"></div>\n          </div>\n        </div>\n      ","response":"Enter","trial_type":"html-keyboard-response","trial_index":4,"plugin_version":"2.1.0","time_elapsed":79236,"random_initial_angle":63,"response_angle_css":180,"response_angle_rdk":270,"angular_error_target":11,"angular_error_distractor":130,"target_direction":259,"target_group":"black","reward_points":7},{"rt":null,"stimulus":"\n          <p style=\"color: #00FF00;\">Your reward: 7 points</p>\n        ","response":null,"trial_type":"html-keyboard-response","trial_index":5,"plugin_version":"2.1.0","time_elapsed":81245},{"rt":null,"stimulus":"<div class=\"fixation\" style=\"font-size: 60px;\">+</div>","response":null,"trial_type":"html-keyboard-response","trial_index":6,"plugin_version":"2.1.0","time_elapsed":82261},{"target_group":"black","target_index":1,"condition_label":"practice","rt":-1,"response":"","correct":false,"choices":"ALL_KEYS","correct_choice":["a"],"trial_duration":2000,"flip_timestamps":[],"response_ends_trial":false,"number_of_apertures":2,"number_of_dots":[74,100],"number_of_sets":1,"coherent_direction":[259,350],"coherence":1,"opposite_coherence":0,"dot_radius":2,"dot_side_length":1,"dot_life":-1,"move_distance":1,"aperture_width":300,"aperture_height":300,"dot_color":["white","black"],"dot_shape":"circle","background_color":"#AAA","RDK_type":3,"aperture_type":2,"reinsert_type":2,"frame_rate":16.716666666666665,"frame_rate_array":[8,29,5,16,16,17,17,16,17,17,17,17,19,16,16,17,17,17,16,16,17,17,17,16,17,17,17,17,18,16,16,18,16,17,16,17,18,16,17,18,17,16,17,18,17,17,16,17,16,17,16,17,17,18,16,17,17,16,17,16,17,17,18,15,17,17,17,18,16,17,17,15,18,15,17,17,17,17,18,16,17,17,17,17,19,15,17,17,16,16,17,16,17,17,17,16,17,17,17,17,17,16,17,17,16,17,17,16,17,17,17,17,16,17,17,16,17,17,17,17],"number_of_frames":120,"aperture_center_x":768,"aperture_center_y":432,"fixation_cross":true,"fixation_cross_width":15,"fixation_cross_height":15,"fixation_cross_color":"#111","fixation_cross_thickness":1,"border":true,"border_thickness":2,"border_color":"transparent","canvas_width":1536,"canvas_height":864,"trial_type":"rdk","trial_index":7,"plugin_version":"2.0.0","time_elapsed":84267,"phase":"practice","target_direction":350,"distractor_direction":259},{"rt":3567,"stimulus":"\n        <div class=\"response-container\">\n          <div class=\"response-instruction\">\n            <p>rotate the bar by using the left and right arrow keys.</p>\n            <p>when you are determined, press the Enter key.</p>\n          </div>\n          <div class=\"response-circle\">\n            <div class=\"response-fixation\"></div>\n            <div id=\"bar\" class=\"rotating-bar\"></div>\n          </div>\n        </div>\n      ","response":"Enter","trial_type":"html-keyboard-response","trial_index":8,"plugin_version":"2.1.0","time_elapsed":87837,"random_initial_angle":7,"response_angle_css":90,"response_angle_rdk":0,"angular_error_target":10,"angular_error_distractor":101,"target_direction":350,"target_group":"black","reward_points":8},{"rt":null,"stimulus":"\n          <p style=\"color: #00FF00;\">Your reward: 8 points</p>\n        ","response":null,"trial_type":"html-keyboard-response","trial_index":9,"plugin_version":"2.1.0","time_elapsed":89853},{"rt":null,"stimulus":"<div class=\"fixation\" style=\"font-size: 60px;\">+</div>","response":null,"trial_type":"html-keyboard-response","trial_index":10,"plugin_version":"2.1.0","time_elapsed":90858},{"target_group":"black","target_index":1,"condition_label":"practice","rt":-1,"response":"","correct":false,"choices":"ALL_KEYS","correct_choice":["a"],"trial_duration":2000,"flip_timestamps":[],"response_ends_trial":false,"number_of_apertures":2,"number_of_dots":[89,100],"number_of_sets":1,"coherent_direction":[324,75],"coherence":1,"opposite_coherence":0,"dot_radius":2,"dot_side_length":1,"dot_life":-1,"move_distance":1,"aperture_width":300,"aperture_height":300,"dot_color":["white","black"],"dot_shape":"circle","background_color":"#AAA","RDK_type":3,"aperture_type":2,"reinsert_type":2,"frame_rate":16.725,"frame_rate_array":[11,17,16,17,17,17,16,17,17,17,17,17,16,18,15,17,16,17,17,17,16,17,17,18,17,16,17,16,17,17,17,18,17,15,17,17,17,17,17,16,18,16,17,16,18,16,17,17,18,17,16,17,17,18,15,16,17,16,17,17,17,15,16,17,17,18,17,16,17,18,16,16,17,16,17,18,16,17,17,17,17,18,17,17,15,18,16,16,17,17,16,17,16,17,17,18,17,16,17,16,18,16,17,17,17,17,17,17,16,17,17,17,15,18,16,17,17,17,16,17],"number_of_frames":120,"aperture_center_x":768,"aperture_center_y":432,"fixation_cross":true,"fixation_cross_width":15,"fixation_cross_height":15,"fixation_cross_color":"#111","fixation_cross_thickness":1,"border":true,"border_thickness":2,"border_color":"transparent","canvas_width":1536,"canvas_height":864,"trial_type":"rdk","trial_index":11,"plugin_version":"2.0.0","time_elapsed":92865,"phase":"practice","target_direction":75,"distractor_direction":324},{"rt":3198,"stimulus":"\n        <div class=\"response-container\">\n          <div class=\"response-instruction\">\n            <p>rotate the bar by using the left and right arrow keys.</p>\n            <p>when you are determined, press the Enter key.</p>\n          </div>\n          <div class=\"response-circle\">\n            <div class=\"response-fixation\"></div>\n            <div id=\"bar\" class=\"rotating-bar\"></div>\n          </div>\n        </div>\n      ","response":"Enter","trial_type":"html-keyboard-response","trial_index":12,"plugin_version":"2.1.0","time_elapsed":96066,"random_initial_angle":331,"response_angle_css":356,"response_angle_rdk":94,"angular_error_target":19,"angular_error_distractor":130,"target_direction":75,"target_group":"black","reward_points":6},{"rt":null,"stimulus":"\n          <p style=\"color: #00FF00;\">Your reward: 6 points</p>\n        ","response":null,"trial_type":"html-keyboard-response","trial_index":13,"plugin_version":"2.1.0","time_elapsed":98079},{"rt":null,"stimulus":"<div class=\"fixation\" style=\"font-size: 60px;\">+</div>","response":null,"trial_type":"html-keyboard-response","trial_index":14,"plugin_version":"2.1.0","time_elapsed":99097},{"target_group":"white","target_index":0,"condition_label":"practice","rt":-1,"response":"","correct":false,"choices":"ALL_KEYS","correct_choice":["a"],"trial_duration":2000,"flip_timestamps":[],"response_ends_trial":false,"number_of_apertures":2,"number_of_dots":[100,90],"number_of_sets":1,"coherent_direction":[138,20],"coherence":1,"opposite_coherence":0,"dot_radius":2,"dot_side_length":1,"dot_life":-1,"move_distance":1,"aperture_width":300,"aperture_height":300,"dot_color":["white","black"],"dot_shape":"circle","background_color":"#AAA","RDK_type":3,"aperture_type":2,"reinsert_type":2,"frame_rate":16.616666666666667,"frame_rate_array":[7,15,16,17,17,17,16,17,16,17,17,18,15,17,20,13,16,17,16,17,16,17,19,15,17,16,17,17,15,17,17,17,17,17,17,18,15,16,18,16,18,16,17,16,18,16,15,17,18,17,16,17,17,17,16,17,17,17,17,15,17,17,17,17,16,17,16,17,17,18,16,17,17,16,17,18,16,16,17,16,18,16,16,17,17,17,17,17,17,16,17,17,18,16,17,17,17,16,18,16,16,16,18,16,17,17,16,16,17,16,17,17,17,17,17,16,17,17,16,17],"number_of_frames":120,"aperture_center_x":768,"aperture_center_y":432,"fixation_cross":true,"fixation_cross_width":15,"fixation_cross_height":15,"fixation_cross_color":"#111","fixation_cross_thickness":1,"border":true,"border_thickness":2,"border_color":"transparent","canvas_width":1536,"canvas_height":864,"trial_type":"rdk","trial_index":15,"plugin_version":"2.0.0","time_elapsed":101104,"phase":"practice","target_direction":138,"distractor_direction":20},{"rt":3854,"stimulus":"\n        <div class=\"response-container\">\n          <div class=\"response-instruction\">\n            <p>rotate the bar by using the left and right arrow keys.</p>\n            <p>when you are determined, press the Enter key.</p>\n          </div>\n          <div class=\"response-circle\">\n            <div class=\"response-fixation\"></div>\n            <div id=\"bar\" class=\"rotating-bar\"></div>\n          </div>\n        </div>\n      ","response":"Enter","trial_type":"html-keyboard-response","trial_index":16,"plugin_version":"2.1.0","time_elapsed":104961,"random_initial_angle":88,"response_angle_css":-50,"response_angle_rdk":140,"angular_error_target":2,"angular_error_distractor":120,"target_direction":138,"target_group":"white","reward_points":9},{"rt":null,"stimulus":"\n          <p style=\"color: #00FF00;\">Your reward: 9 points</p>\n        ","response":null,"trial_type":"html-keyboard-response","trial_index":17,"plugin_version":"2.1.0","time_elapsed":106966},{"rt":null,"stimulus":"<div class=\"fixation\" style=\"font-size: 60px;\">+</div>","response":null,"trial_type":"html-keyboard-response","trial_index":18,"plugin_version":"2.1.0","time_elapsed":107976},{"target_group":"black","target_index":1,"condition_label":"practice","rt":-1,"response":"","correct":false,"choices":"ALL_KEYS","correct_choice":["a"],"trial_duration":2000,"flip_timestamps":[],"response_ends_trial":false,"number_of_apertures":2,"number_of_dots":[99,100],"number_of_sets":1,"coherent_direction":[216,63],"coherence":1,"opposite_coherence":0,"dot_radius":2,"dot_side_length":1,"dot_life":-1,"move_distance":1,"aperture_width":300,"aperture_height":300,"dot_color":["white","black"],"dot_shape":"circle","background_color":"#AAA","RDK_type":3,"aperture_type":2,"reinsert_type":2,"frame_rate":16.65,"frame_rate_array":[10,15,17,16,17,17,16,17,17,16,17,17,17,17,18,17,15,17,17,16,17,18,16,17,17,17,16,17,19,15,17,18,16,18,17,16,17,16,17,17,16,17,17,19,15,16,17,17,17,17,17,17,16,16,16,17,17,17,17,17,17,16,18,16,17,16,16,17,17,17,16,17,17,16,17,16,16,18,17,17,17,16,16,16,17,17,16,17,17,16,17,17,17,17,16,16,17,18,16,17,16,21,13,16,17,16,17,16,17,16,17,17,17,16,17,18,16,16,16,17],"number_of_frames":120,"aperture_center_x":768,"aperture_center_y":432,"fixation_cross":true,"fixation_cross_width":15,"fixation_cross_height":15,"fixation_cross_color":"#111","fixation_cross_thickness":1,"border":true,"border_thickness":2,"border_color":"transparent","canvas_width":1536,"canvas_height":864,"trial_type":"rdk","trial_index":19,"plugin_version":"2.0.0","time_elapsed":109984,"phase":"practice","target_direction":63,"distractor_direction":216},{"rt":5190,"stimulus":"\n        <div class=\"response-container\">\n          <div class=\"response-instruction\">\n            <p>rotate the bar by using the left and right arrow keys.</p>\n            <p>when you are determined, press the Enter key.</p>\n          </div>\n          <div class=\"response-circle\">\n            <div class=\"response-fixation\"></div>\n            <div id=\"bar\" class=\"rotating-bar\"></div>\n          </div>\n        </div>\n      ","response":"Enter","trial_type":"html-keyboard-response","trial_index":20,"plugin_version":"2.1.0","time_elapsed":115175,"random_initial_angle":108,"response_angle_css":46,"response_angle_rdk":44,"angular_error_target":-19,"angular_error_distractor":-172,"target_direction":63,"target_group":"black","reward_points":6},{"rt":null,"stimulus":"\n          <p style=\"color: #00FF00;\">Your reward: 6 points</p>\n        ","response":null,"trial_type":"html-keyboard-response","trial_index":21,"plugin_version":"2.1.0","time_elapsed":117183},{"rt":null,"stimulus":"<div class=\"fixation\" style=\"font-size: 60px;\">+</div>","response":null,"trial_type":"html-keyboard-response","trial_index":22,"plugin_version":"2.1.0","time_elapsed":118196},{"target_group":"white","target_index":0,"condition_label":"practice","rt":-1,"response":"","correct":false,"choices":"ALL_KEYS","correct_choice":["a"],"trial_duration":2000,"flip_timestamps":[],"response_ends_trial":false,"number_of_apertures":2,"number_of_dots":[100,60],"number_of_sets":1,"coherent_direction":[48,172],"coherence":1,"opposite_coherence":0,"dot_radius":2,"dot_side_length":1,"dot_life":-1,"move_distance":1,"aperture_width":300,"aperture_height":300,"dot_color":["white","black"],"dot_shape":"circle","background_color":"#AAA","RDK_type":3,"aperture_type":2,"reinsert_type":2,"frame_rate":16.65289256198347,"frame_rate_array":[7,17,16,16,17,17,17,16,17,16,17,17,16,17,17,17,17,17,16,17,17,16,16,17,17,17,16,17,17,17,17,17,17,18,16,17,16,18,16,17,15,16,17,16,17,17,18,16,17,17,17,17,16,17,16,17,17,17,16,17,17,17,16,17,18,16,16,17,17,16,17,17,16,17,17,17,17,17,16,18,16,16,17,17,17,15,16,17,17,17,17,17,17,17,17,16,18,17,16,17,16,17,17,17,17,15,17,17,17,16,17,17,17,17,17,16,17,17,17,17,17],"number_of_frames":121,"aperture_center_x":768,"aperture_center_y":432,"fixation_cross":true,"fixation_cross_width":15,"fixation_cross_height":15,"fixation_cross_color":"#111","fixation_cross_thickness":1,"border":true,"border_thickness":2,"border_color":"transparent","canvas_width":1536,"canvas_height":864,"trial_type":"rdk","trial_index":23,"plugin_version":"2.0.0","time_elapsed":120206,"phase":"practice","target_direction":48,"distractor_direction":172},{"rt":3784,"stimulus":"\n        <div class=\"response-container\">\n          <div class=\"response-instruction\">\n            <p>rotate the bar by using the left and right arrow keys.</p>\n            <p>when you are determined, press the Enter key.</p>\n          </div>\n          <div class=\"response-circle\">\n            <div class=\"response-fixation\"></div>\n            <div id=\"bar\" class=\"rotating-bar\"></div>\n          </div>\n        </div>\n      ","response":"Enter","trial_type":"html-keyboard-response","trial_index":24,"plugin_version":"2.1.0","time_elapsed":123991,"random_initial_angle":168,"response_angle_css":51,"response_angle_rdk":39,"angular_error_target":-9,"angular_error_distractor":-133,"target_direction":48,"target_group":"white","reward_points":8},{"rt":null,"stimulus":"\n          <p style=\"color: #00FF00;\">Your reward: 8 points</p>\n        ","response":null,"trial_type":"html-keyboard-response","trial_index":25,"plugin_version":"2.1.0","time_elapsed":126005},{"rt":null,"stimulus":"<div class=\"fixation\" style=\"font-size: 60px;\">+</div>","response":null,"trial_type":"html-keyboard-response","trial_index":26,"plugin_version":"2.1.0","time_elapsed":127021},{"target_group":"white","target_index":0,"condition_label":"practice","rt":-1,"response":"","correct":false,"choices":"ALL_KEYS","correct_choice":["a"],"trial_duration":2000,"flip_timestamps":[],"response_ends_trial":false,"number_of_apertures":2,"number_of_dots":[100,92],"number_of_sets":1,"coherent_direction":[63,156],"coherence":1,"opposite_coherence":0,"dot_radius":2,"dot_side_length":1,"dot_life":-1,"move_distance":1,"aperture_width":300,"aperture_height":300,"dot_color":["white","black"],"dot_shape":"circle","background_color":"#AAA","RDK_type":3,"aperture_type":2,"reinsert_type":2,"frame_rate":16.708333333333332,"frame_rate_array":[15,18,13,17,17,16,17,18,16,17,17,17,17,17,16,16,17,17,17,17,17,17,17,16,18,16,18,17,16,17,16,17,16,17,17,16,17,17,17,17,17,17,17,17,16,16,17,17,17,17,15,18,17,17,17,17,17,16,17,16,18,16,17,16,17,17,16,17,17,17,17,16,17,16,18,16,17,17,16,16,19,15,17,16,18,17,16,16,17,16,17,17,17,17,18,16,17,17,17,16,16,17,18,16,16,17,16,16,17,17,17,15,18,15,17,16,17,17,17,17],"number_of_frames":120,"aperture_center_x":768,"aperture_center_y":432,"fixation_cross":true,"fixation_cross_width":15,"fixation_cross_height":15,"fixation_cross_color":"#111","fixation_cross_thickness":1,"border":true,"border_thickness":2,"border_color":"transparent","canvas_width":1536,"canvas_height":864,"trial_type":"rdk","trial_index":27,"plugin_version":"2.0.0","time_elapsed":129028,"phase":"practice","target_direction":63,"distractor_direction":156},{"rt":2631,"stimulus":"\n        <div class=\"response-container\">\n          <div class=\"response-instruction\">\n            <p>rotate the bar by using the left and right arrow keys.</p>\n            <p>when you are determined, press the Enter key.</p>\n          </div>\n          <div class=\"response-circle\">\n            <div class=\"response-fixation\"></div>\n            <div id=\"bar\" class=\"rotating-bar\"></div>\n          </div>\n        </div>\n      ","response":"Enter","trial_type":"html-keyboard-response","trial_index":28,"plugin_version":"2.1.0","time_elapsed":131660,"random_initial_angle":108,"response_angle_css":49,"response_angle_rdk":41,"angular_error_target":-22,"angular_error_distractor":-115,"target_direction":63,"target_group":"white","reward_points":5},{"rt":null,"stimulus":"\n          <p style=\"color: #00FF00;\">Your reward: 5 points</p>\n        ","response":null,"trial_type":"html-keyboard-response","trial_index":29,"plugin_version":"2.1.0","time_elapsed":133667},{"rt":null,"stimulus":"<div class=\"fixation\" style=\"font-size: 60px;\">+</div>","response":null,"trial_type":"html-keyboard-response","trial_index":30,"plugin_version":"2.1.0","time_elapsed":134683},{"target_group":"white","target_index":0,"condition_label":"practice","rt":-1,"response":"","correct":false,"choices":"ALL_KEYS","correct_choice":["a"],"trial_duration":2000,"flip_timestamps":[],"response_ends_trial":false,"number_of_apertures":2,"number_of_dots":[100,52],"number_of_sets":1,"coherent_direction":[247,52],"coherence":1,"opposite_coherence":0,"dot_radius":2,"dot_side_length":1,"dot_life":-1,"move_distance":1,"aperture_width":300,"aperture_height":300,"dot_color":["white","black"],"dot_shape":"circle","background_color":"#AAA","RDK_type":3,"aperture_type":2,"reinsert_type":2,"frame_rate":16.611570247933884,"frame_rate_array":[1,17,17,16,17,17,17,16,17,17,17,17,17,17,18,16,17,16,17,17,17,17,16,17,16,17,17,17,16,17,17,18,15,17,17,16,17,16,18,15,18,17,15,17,17,16,17,17,17,17,17,17,17,17,17,17,17,16,17,17,17,16,16,17,17,17,18,17,16,17,16,16,16,17,17,16,16,18,16,17,16,17,17,17,17,17,17,16,16,17,17,17,16,17,17,16,17,17,16,17,16,17,17,17,17,17,17,16,17,16,17,17,17,16,17,17,17,17,16,17,17],"number_of_frames":121,"aperture_center_x":768,"aperture_center_y":432,"fixation_cross":true,"fixation_cross_width":15,"fixation_cross_height":15,"fixation_cross_color":"#111","fixation_cross_thickness":1,"border":true,"border_thickness":2,"border_color":"transparent","canvas_width":1536,"canvas_height":864,"trial_type":"rdk","trial_index":31,"plugin_version":"2.0.0","time_elapsed":136689,"phase":"practice","target_direction":247,"distractor_direction":52},{"rt":1471,"stimulus":"\n        <div class=\"response-container\">\n          <div class=\"response-instruction\">\n            <p>rotate the bar by using the left and right arrow keys.</p>\n            <p>when you are determined, press the Enter key.</p>\n          </div>\n          <div class=\"response-circle\">\n            <div class=\"response-fixation\"></div>\n            <div id=\"bar\" class=\"rotating-bar\"></div>\n          </div>\n        </div>\n      ","response":"Enter","trial_type":"html-keyboard-response","trial_index":32,"plugin_version":"2.1.0","time_elapsed":138162,"random_initial_angle":219,"response_angle_css":209,"response_angle_rdk":241,"angular_error_target":-6,"angular_error_distractor":-171,"target_direction":247,"target_group":"white","reward_points":8},{"rt":null,"stimulus":"\n          <p style=\"color: #00FF00;\">Your reward: 8 points</p>\n        ","response":null,"trial_type":"html-keyboard-response","trial_index":33,"plugin_version":"2.1.0","time_elapsed":140170},{"rt":null,"stimulus":"<div class=\"fixation\" style=\"font-size: 60px;\">+</div>","response":null,"trial_type":"html-keyboard-response","trial_index":34,"plugin_version":"2.1.0","time_elapsed":141185},{"target_group":"white","target_index":0,"condition_label":"practice","rt":-1,"response":"","correct":false,"choices":"ALL_KEYS","correct_choice":["a"],"trial_duration":2000,"flip_timestamps":[],"response_ends_trial":false,"number_of_apertures":2,"number_of_dots":[100,70],"number_of_sets":1,"coherent_direction":[327,82],"coherence":1,"opposite_coherence":0,"dot_radius":2,"dot_side_length":1,"dot_life":-1,"move_distance":1,"aperture_width":300,"aperture_height":300,"dot_color":["white","black"],"dot_shape":"circle","background_color":"#AAA","RDK_type":3,"aperture_type":2,"reinsert_type":2,"frame_rate":16.733333333333334,"frame_rate_array":[15,15,17,16,17,17,16,17,17,17,16,17,16,17,16,19,16,16,17,17,17,17,18,16,16,16,17,18,15,17,17,17,16,17,17,17,17,17,17,19,15,16,17,16,17,17,17,17,17,16,18,16,17,17,17,16,17,16,17,17,17,17,16,17,17,17,16,16,16,18,17,16,19,14,17,16,17,17,17,17,17,17,17,16,17,17,16,17,17,17,17,16,17,17,16,17,17,17,18,16,16,17,17,17,17,18,16,17,17,16,17,15,17,17,17,16,18,17,17,17],"number_of_frames":120,"aperture_center_x":768,"aperture_center_y":432,"fixation_cross":true,"fixation_cross_width":15,"fixation_cross_height":15,"fixation_cross_color":"#111","fixation_cross_thickness":1,"border":true,"border_thickness":2,"border_color":"transparent","canvas_width":1536,"canvas_height":864,"trial_type":"rdk","trial_index":35,"plugin_version":"2.0.0","time_elapsed":143190,"phase":"practice","target_direction":327,"distractor_direction":82},{"rt":3889,"stimulus":"\n        <div class=\"response-container\">\n          <div class=\"response-instruction\">\n            <p>rotate the bar by using the left and right arrow keys.</p>\n            <p>when you are determined, press the Enter key.</p>\n          </div>\n          <div class=\"response-circle\">\n            <div class=\"response-fixation\"></div>\n            <div id=\"bar\" class=\"rotating-bar\"></div>\n          </div>\n        </div>\n      ","response":"Enter","trial_type":"html-keyboard-response","trial_index":36,"plugin_version":"2.1.0","time_elapsed":147080,"random_initial_angle":320,"response_angle_css":141,"response_angle_rdk":309,"angular_error_target":-18,"angular_error_distractor":-133,"target_direction":327,"target_group":"white","reward_points":6},{"rt":null,"stimulus":"\n          <p style=\"color: #00FF00;\">Your reward: 6 points</p>\n        ","response":null,"trial_type":"html-keyboard-response","trial_index":37,"plugin_version":"2.1.0","time_elapsed":149094},{"rt":null,"stimulus":"<div class=\"fixation\" style=\"font-size: 60px;\">+</div>","response":null,"trial_type":"html-keyboard-response","trial_index":38,"plugin_version":"2.1.0","time_elapsed":150106},{"target_group":"black","target_index":1,"condition_label":"practice","rt":-1,"response":"","correct":false,"choices":"ALL_KEYS","correct_choice":["a"],"trial_duration":2000,"flip_timestamps":[],"response_ends_trial":false,"number_of_apertures":2,"number_of_dots":[68,100],"number_of_sets":1,"coherent_direction":[157,271],"coherence":1,"opposite_coherence":0,"dot_radius":2,"dot_side_length":1,"dot_life":-1,"move_distance":1,"aperture_width":300,"aperture_height":300,"dot_color":["white","black"],"dot_shape":"circle","background_color":"#AAA","RDK_type":3,"aperture_type":2,"reinsert_type":2,"frame_rate":16.725,"frame_rate_array":[10,20,14,16,17,17,17,17,17,17,16,16,16,17,17,17,17,16,17,16,18,17,16,17,17,18,16,17,17,17,16,17,16,17,16,18,20,13,19,15,17,17,16,18,17,15,17,16,17,17,17,17,17,17,17,17,17,17,17,17,16,18,15,18,16,18,16,16,17,17,17,17,17,16,17,17,15,17,17,17,16,17,17,18,16,16,17,17,17,17,16,17,17,17,16,17,17,19,15,17,16,17,17,18,16,15,17,16,18,17,17,17,16,17,17,18,16,17,17,17],"number_of_frames":120,"aperture_center_x":768,"aperture_center_y":432,"fixation_cross":true,"fixation_cross_width":15,"fixation_cross_height":15,"fixation_cross_color":"#111","fixation_cross_thickness":1,"border":true,"border_thickness":2,"border_color":"transparent","canvas_width":1536,"canvas_height":864,"trial_type":"rdk","trial_index":39,"plugin_version":"2.0.0","time_elapsed":152118,"phase":"practice","target_direction":271,"distractor_direction":157},{"rt":2528,"stimulus":"\n        <div class=\"response-container\">\n          <div class=\"response-instruction\">\n            <p>rotate the bar by using the left and right arrow keys.</p>\n            <p>when you are determined, press the Enter key.</p>\n          </div>\n          <div class=\"response-circle\">\n            <div class=\"response-fixation\"></div>\n            <div id=\"bar\" class=\"rotating-bar\"></div>\n          </div>\n        </div>\n      ","response":"Enter","trial_type":"html-keyboard-response","trial_index":40,"plugin_version":"2.1.0","time_elapsed":154648,"random_initial_angle":255,"response_angle_css":150,"response_angle_rdk":300,"angular_error_target":29,"angular_error_distractor":143,"target_direction":271,"target_group":"black","reward_points":4},{"rt":null,"stimulus":"\n          <p style=\"color: #00FF00;\">Your reward: 4 points</p>\n        ","response":null,"trial_type":"html-keyboard-response","trial_index":41,"plugin_version":"2.1.0","time_elapsed":156656},{"rt":null,"stimulus":"<div class=\"fixation\" style=\"font-size: 60px;\">+</div>","response":null,"trial_type":"html-keyboard-response","trial_index":42,"plugin_version":"2.1.0","time_elapsed":157671},{"target_group":"black","target_index":1,"condition_label":"practice","rt":-1,"response":"","correct":false,"choices":"ALL_KEYS","correct_choice":["a"],"trial_duration":2000,"flip_timestamps":[],"response_ends_trial":false,"number_of_apertures":2,"number_of_dots":[83,100],"number_of_sets":1,"coherent_direction":[310,91],"coherence":1,"opposite_coherence":0,"dot_radius":2,"dot_side_length":1,"dot_life":-1,"move_distance":1,"aperture_width":300,"aperture_height":300,"dot_color":["white","black"],"dot_shape":"circle","background_color":"#AAA","RDK_type":3,"aperture_type":2,"reinsert_type":2,"frame_rate":16.677685950413224,"frame_rate_array":[11,17,17,17,17,17,16,17,16,17,17,16,17,16,17,17,16,17,17,17,16,17,17,18,16,16,16,17,17,17,16,16,18,16,17,17,16,17,17,17,17,17,16,16,17,17,17,16,17,17,17,16,17,17,17,17,16,17,17,17,17,16,17,16,18,16,17,17,17,17,17,16,17,16,17,20,13,17,17,17,17,16,16,18,16,17,18,16,16,16,17,17,16,17,17,18,16,17,16,16,18,15,18,16,18,17,17,17,16,17,17,18,16,16,17,16,16,17,17,17,16],"number_of_frames":121,"aperture_center_x":768,"aperture_center_y":432,"fixation_cross":true,"fixation_cross_width":15,"fixation_cross_height":15,"fixation_cross_color":"#111","fixation_cross_thickness":1,"border":true,"border_thickness":2,"border_color":"transparent","canvas_width":1536,"canvas_height":864,"trial_type":"rdk","trial_index":43,"plugin_version":"2.0.0","time_elapsed":159688,"phase":"practice","target_direction":91,"distractor_direction":310},{"rt":3116,"stimulus":"\n        <div class=\"response-container\">\n          <div class=\"response-instruction\">\n            <p>rotate the bar by using the left and right arrow keys.</p>\n            <p>when you are determined, press the Enter key.</p>\n          </div>\n          <div class=\"response-circle\">\n            <div class=\"response-fixation\"></div>\n            <div id=\"bar\" class=\"rotating-bar\"></div>\n          </div>\n        </div>\n      ","response":"Enter","trial_type":"html-keyboard-response","trial_index":44,"plugin_version":"2.1.0","time_elapsed":162805,"random_initial_angle":125,"response_angle_css":-2,"response_angle_rdk":92,"angular_error_target":1,"angular_error_distractor":142,"target_direction":91,"target_group":"black","reward_points":9},{"rt":null,"stimulus":"\n          <p style=\"color: #00FF00;\">Your reward: 9 points</p>\n        ","response":null,"trial_type":"html-keyboard-response","trial_index":45,"plugin_version":"2.1.0","time_elapsed":164821},{"rt":null,"stimulus":"<div class=\"fixation\" style=\"font-size: 60px;\">+</div>","response":null,"trial_type":"html-keyboard-response","trial_index":46,"plugin_version":"2.1.0","time_elapsed":165833},{"target_group":"white","target_index":0,"condition_label":"practice","rt":-1,"response":"","correct":false,"choices":"ALL_KEYS","correct_choice":["a"],"trial_duration":2000,"flip_timestamps":[],"response_ends_trial":false,"number_of_apertures":2,"number_of_dots":[100,84],"number_of_sets":1,"coherent_direction":[29,149],"coherence":1,"opposite_coherence":0,"dot_radius":2,"dot_side_length":1,"dot_life":-1,"move_distance":1,"aperture_width":300,"aperture_height":300,"dot_color":["white","black"],"dot_shape":"circle","background_color":"#AAA","RDK_type":3,"aperture_type":2,"reinsert_type":2,"frame_rate":16.570247933884296,"frame_rate_array":[1,15,19,15,17,16,17,17,17,18,17,17,17,15,17,17,16,17,16,17,16,17,16,17,17,17,17,16,17,17,17,17,17,17,17,17,17,16,17,16,17,16,16,18,16,18,16,17,17,17,16,16,17,17,17,16,16,18,16,17,18,17,16,15,18,16,21,13,17,16,18,17,15,16,17,16,18,16,17,16,16,17,17,17,17,17,17,16,16,18,18,15,17,17,17,15,18,17,19,16,16,16,16,16,17,16,17,16,17,17,16,17,16,17,17,17,16,17,17,17,17],"number_of_frames":121,"aperture_center_x":768,"aperture_center_y":432,"fixation_cross":true,"fixation_cross_width":15,"fixation_cross_height":15,"fixation_cross_color":"#111","fixation_cross_thickness":1,"border":true,"border_thickness":2,"border_color":"transparent","canvas_width":1536,"canvas_height":864,"trial_type":"rdk","trial_index":47,"plugin_version":"2.0.0","time_elapsed":167838,"phase":"practice","target_direction":29,"distractor_direction":149},{"rt":2354,"stimulus":"\n        <div class=\"response-container\">\n          <div class=\"response-instruction\">\n            <p>rotate the bar by using the left and right arrow keys.</p>\n            <p>when you are determined, press the Enter key.</p>\n          </div>\n          <div class=\"response-circle\">\n            <div class=\"response-fixation\"></div>\n            <div id=\"bar\" class=\"rotating-bar\"></div>\n          </div>\n        </div>\n      ","response":"Enter","trial_type":"html-keyboard-response","trial_index":48,"plugin_version":"2.1.0","time_elapsed":170194,"random_initial_angle":129,"response_angle_css":68,"response_angle_rdk":22,"angular_error_target":-7,"angular_error_distractor":-127,"target_direction":29,"target_group":"white","reward_points":8},{"rt":null,"stimulus":"\n          <p style=\"color: #00FF00;\">Your reward: 8 points</p>\n        ","response":null,"trial_type":"html-keyboard-response","trial_index":49,"plugin_version":"2.1.0","time_elapsed":172198},{"rt":null,"stimulus":"<div class=\"fixation\" style=\"font-size: 60px;\">+</div>","response":null,"trial_type":"html-keyboard-response","trial_index":50,"plugin_version":"2.1.0","time_elapsed":173212},{"target_group":"white","target_index":0,"condition_label":"practice","rt":-1,"response":"","correct":false,"choices":"ALL_KEYS","correct_choice":["a"],"trial_duration":2000,"flip_timestamps":[],"response_ends_trial":false,"number_of_apertures":2,"number_of_dots":[100,54],"number_of_sets":1,"coherent_direction":[345,191],"coherence":1,"opposite_coherence":0,"dot_radius":2,"dot_side_length":1,"dot_life":-1,"move_distance":1,"aperture_width":300,"aperture_height":300,"dot_color":["white","black"],"dot_shape":"circle","background_color":"#AAA","RDK_type":3,"aperture_type":2,"reinsert_type":2,"frame_rate":16.619834710743802,"frame_rate_array":[4,25,8,17,17,17,18,16,16,17,16,17,17,16,17,16,17,17,17,16,17,18,15,16,17,17,17,17,16,17,17,17,16,17,17,17,16,17,18,16,16,16,18,17,16,17,16,17,18,16,17,17,17,16,16,17,17,17,17,17,16,17,18,17,16,17,17,17,16,17,17,16,17,17,17,17,17,18,15,17,17,16,18,17,15,16,16,17,18,16,18,16,16,17,16,17,16,17,16,17,17,17,16,19,15,17,17,16,18,16,17,17,15,18,16,17,17,17,18,16,16],"number_of_frames":121,"aperture_center_x":768,"aperture_center_y":432,"fixation_cross":true,"fixation_cross_width":15,"fixation_cross_height":15,"fixation_cross_color":"#111","fixation_cross_thickness":1,"border":true,"border_thickness":2,"border_color":"transparent","canvas_width":1536,"canvas_height":864,"trial_type":"rdk","trial_index":51,"plugin_version":"2.0.0","time_elapsed":175220,"phase":"practice","target_direction":345,"distractor_direction":191},{"rt":2911,"stimulus":"\n        <div class=\"response-container\">\n          <div class=\"response-instruction\">\n            <p>rotate the bar by using the left and right arrow keys.</p>\n            <p>when you are determined, press the Enter key.</p>\n          </div>\n          <div class=\"response-circle\">\n            <div class=\"response-fixation\"></div>\n            <div id=\"bar\" class=\"rotating-bar\"></div>\n          </div>\n        </div>\n      ","response":"Enter","trial_type":"html-keyboard-response","trial_index":52,"plugin_version":"2.1.0","time_elapsed":178134,"random_initial_angle":340,"response_angle_css":474,"response_angle_rdk":336,"angular_error_target":-9,"angular_error_distractor":145,"target_direction":345,"target_group":"white","reward_points":8},{"rt":null,"stimulus":"\n          <p style=\"color: #00FF00;\">Your reward: 8 points</p>\n        ","response":null,"trial_type":"html-keyboard-response","trial_index":53,"plugin_version":"2.1.0","time_elapsed":180138},{"rt":null,"stimulus":"<div class=\"fixation\" style=\"font-size: 60px;\">+</div>","response":null,"trial_type":"html-keyboard-response","trial_index":54,"plugin_version":"2.1.0","time_elapsed":181154},{"target_group":"white","target_index":0,"condition_label":"practice","rt":-1,"response":"","correct":false,"choices":"ALL_KEYS","correct_choice":["a"],"trial_duration":2000,"flip_timestamps":[],"response_ends_trial":false,"number_of_apertures":2,"number_of_dots":[100,61],"number_of_sets":1,"coherent_direction":[81,189],"coherence":1,"opposite_coherence":0,"dot_radius":2,"dot_side_length":1,"dot_life":-1,"move_distance":1,"aperture_width":300,"aperture_height":300,"dot_color":["white","black"],"dot_shape":"circle","background_color":"#AAA","RDK_type":3,"aperture_type":2,"reinsert_type":2,"frame_rate":16.733333333333334,"frame_rate_array":[12,18,16,17,17,16,18,16,16,17,16,17,17,17,17,16,17,17,17,16,17,17,17,17,18,16,16,17,17,17,16,17,18,16,18,16,17,17,17,16,18,17,15,17,17,18,17,17,16,17,17,17,17,16,17,17,16,17,16,17,16,17,16,17,17,17,18,15,17,17,16,17,16,18,17,15,17,17,17,17,17,16,17,17,17,16,17,18,15,18,16,16,17,17,17,17,17,17,18,17,16,17,16,18,16,17,16,17,17,17,16,17,17,17,16,18,17,16,16,17],"number_of_frames":120,"aperture_center_x":768,"aperture_center_y":432,"fixation_cross":true,"fixation_cross_width":15,"fixation_cross_height":15,"fixation_cross_color":"#111","fixation_cross_thickness":1,"border":true,"border_thickness":2,"border_color":"transparent","canvas_width":1536,"canvas_height":864,"trial_type":"rdk","trial_index":55,"plugin_version":"2.0.0","time_elapsed":183164,"phase":"practice","target_direction":81,"distractor_direction":189},{"rt":4397,"stimulus":"\n        <div class=\"response-container\">\n          <div class=\"response-instruction\">\n            <p>rotate the bar by using the left and right arrow keys.</p>\n            <p>when you are determined, press the Enter key.</p>\n          </div>\n          <div class=\"response-circle\">\n            <div class=\"response-fixation\"></div>\n            <div id=\"bar\" class=\"rotating-bar\"></div>\n          </div>\n        </div>\n      ","response":"Enter","trial_type":"html-keyboard-response","trial_index":56,"plugin_version":"2.1.0","time_elapsed":187564,"random_initial_angle":221,"response_angle_css":3,"response_angle_rdk":87,"angular_error_target":6,"angular_error_distractor":-102,"target_direction":81,"target_group":"white","reward_points":8},{"rt":null,"stimulus":"\n          <p style=\"color: #00FF00;\">Your reward: 8 points</p>\n        ","response":null,"trial_type":"html-keyboard-response","trial_index":57,"plugin_version":"2.1.0","time_elapsed":189571},{"rt":null,"stimulus":"<div class=\"fixation\" style=\"font-size: 60px;\">+</div>","response":null,"trial_type":"html-keyboard-response","trial_index":58,"plugin_version":"2.1.0","time_elapsed":190588},{"target_group":"black","target_index":1,"condition_label":"practice","rt":-1,"response":"","correct":false,"choices":"ALL_KEYS","correct_choice":["a"],"trial_duration":2000,"flip_timestamps":[],"response_ends_trial":false,"number_of_apertures":2,"number_of_dots":[74,100],"number_of_sets":1,"coherent_direction":[1,94],"coherence":1,"opposite_coherence":0,"dot_radius":2,"dot_side_length":1,"dot_life":-1,"move_distance":1,"aperture_width":300,"aperture_height":300,"dot_color":["white","black"],"dot_shape":"circle","background_color":"#AAA","RDK_type":3,"aperture_type":2,"reinsert_type":2,"frame_rate":16.658333333333335,"frame_rate_array":[10,16,17,16,17,17,16,16,17,17,17,17,17,16,17,18,15,17,17,18,16,17,18,16,17,16,17,16,17,18,17,16,17,17,16,17,17,17,16,17,17,18,15,17,16,17,15,16,18,16,17,17,17,16,17,16,18,16,17,16,16,16,17,16,17,17,16,17,17,17,17,17,17,16,17,16,17,16,17,18,16,16,17,17,17,16,19,16,15,17,17,16,18,16,17,17,16,17,17,16,18,17,16,16,17,16,17,18,16,18,16,18,17,16,17,18,17,16,17,16],"number_of_frames":120,"aperture_center_x":768,"aperture_center_y":432,"fixation_cross":true,"fixation_cross_width":15,"fixation_cross_height":15,"fixation_cross_color":"#111","fixation_cross_thickness":1,"border":true,"border_thickness":2,"border_color":"transparent","canvas_width":1536,"canvas_height":864,"trial_type":"rdk","trial_index":59,"plugin_version":"2.0.0","time_elapsed":192595,"phase":"practice","target_direction":94,"distractor_direction":1},{"rt":4201,"stimulus":"\n        <div class=\"response-container\">\n          <div class=\"response-instruction\">\n            <p>rotate the bar by using the left and right arrow keys.</p>\n            <p>when you are determined, press the Enter key.</p>\n          </div>\n          <div class=\"response-circle\">\n            <div class=\"response-fixation\"></div>\n            <div id=\"bar\" class=\"rotating-bar\"></div>\n          </div>\n        </div>\n      ","response":"Enter","trial_type":"html-keyboard-response","trial_index":60,"plugin_version":"2.1.0","time_elapsed":196798,"random_initial_angle":76,"response_angle_css":93,"response_angle_rdk":357,"angular_error_target":-97,"angular_error_distractor":-4,"target_direction":94,"target_group":"black","reward_points":0},{"rt":null,"stimulus":"\n          <p style=\"color: #FF3333;\">Your reward: 0 points</p>\n        ","response":null,"trial_type":"html-keyboard-response","trial_index":61,"plugin_version":"2.1.0","time_elapsed":198808},{"rt":null,"stimulus":"<div class=\"fixation\" style=\"font-size: 60px;\">+</div>","response":null,"trial_type":"html-keyboard-response","trial_index":62,"plugin_version":"2.1.0","time_elapsed":199811},{"target_group":"black","target_index":1,"condition_label":"practice","rt":-1,"response":"","correct":false,"choices":"ALL_KEYS","correct_choice":["a"],"trial_duration":2000,"flip_timestamps":[],"response_ends_trial":false,"number_of_apertures":2,"number_of_dots":[63,100],"number_of_sets":1,"coherent_direction":[56,194],"coherence":1,"opposite_coherence":0,"dot_radius":2,"dot_side_length":1,"dot_life":-1,"move_distance":1,"aperture_width":300,"aperture_height":300,"dot_color":["white","black"],"dot_shape":"circle","background_color":"#AAA","RDK_type":3,"aperture_type":2,"reinsert_type":2,"frame_rate":16.75,"frame_rate_array":[4,39,11,16,16,17,17,18,16,17,17,17,17,16,17,16,17,16,17,17,17,17,16,17,17,17,16,17,17,16,18,16,17,17,16,17,20,13,16,17,15,17,17,17,17,17,17,17,18,16,17,16,17,16,17,16,18,18,15,17,18,15,17,16,16,19,16,16,17,17,18,17,17,17,16,17,17,17,17,17,16,16,17,18,17,16,17,17,16,17,17,16,16,16,17,17,17,17,17,16,17,17,17,16,16,17,17,17,17,16,16,17,16,18,16,17,17,17,16,16],"number_of_frames":120,"aperture_center_x":768,"aperture_center_y":432,"fixation_cross":true,"fixation_cross_width":15,"fixation_cross_height":15,"fixation_cross_color":"#111","fixation_cross_thickness":1,"border":true,"border_thickness":2,"border_color":"transparent","canvas_width":1536,"canvas_height":864,"trial_type":"rdk","trial_index":63,"plugin_version":"2.0.0","time_elapsed":201818,"phase":"practice","target_direction":194,"distractor_direction":56},{"rt":3496,"stimulus":"\n        <div class=\"response-container\">\n          <div class=\"response-instruction\">\n            <p>rotate the bar by using the left and right arrow keys.</p>\n            <p>when you are determined, press the Enter key.</p>\n          </div>\n          <div class=\"response-circle\">\n            <div class=\"response-fixation\"></div>\n            <div id=\"bar\" class=\"rotating-bar\"></div>\n          </div>\n        </div>\n      ","response":"Enter","trial_type":"html-keyboard-response","trial_index":64,"plugin_version":"2.1.0","time_elapsed":205316,"random_initial_angle":63,"response_angle_css":-123,"response_angle_rdk":213,"angular_error_target":19,"angular_error_distractor":157,"target_direction":194,"target_group":"black","reward_points":6},{"rt":null,"stimulus":"\n          <p style=\"color: #00FF00;\">Your reward: 6 points</p>\n        ","response":null,"trial_type":"html-keyboard-response","trial_index":65,"plugin_version":"2.1.0","time_elapsed":207321},{"rt":2162,"stimulus":"\n        <div class=\"instructions-container\">\n          <h2>End of Practice</h2>\n          <p>You have completed the practice trials.</p>\n          <p>Press <strong>Enter</strong> key to begin the main experiment.</p>\n        </div>\n      ","response":"Enter","trial_type":"html-keyboard-response","trial_index":66,"plugin_version":"2.1.0","time_elapsed":209484},{"rt":null,"stimulus":"<div class=\"fixation\" style=\"font-size: 60px;\">+</div>","response":null,"trial_type":"html-keyboard-response","trial_index":67,"plugin_version":"2.1.0","time_elapsed":210494},{"phase":"learning-awareness","target_group":"black","condition_label":"B_H_vs_W_L_rep8","target_direction":172,"distractor_direction":267,"session_rotation":59,"rt":-1,"response":"","correct":false,"choices":"ALL_KEYS","correct_choice":["a"],"trial_duration":2000,"flip_timestamps":[],"response_ends_trial":false,"number_of_apertures":200,"number_of_dots":[1,1,1,1,1,1,1,1,1,1,1,1,1,1,1,1,1,1,1,1,1,1,1,1,1,1,1,1,1,1,1,1,1,1,1,1,1,1,1,1,1,1,1,1,1,1,1,1,1,1,1,1,1,1,1,1,1,1,1,1,1,1,1,1,1,1,1,1,1,1,1,1,1,1,1,1,1,1,1,1,1,1,1,1,1,1,1,1,1,1,1,1,1,1,1,1,1,1,1,1,1,1,1,1,1,1,1,1,1,1,1,1,1,1,1,1,1,1,1,1,1,1,1,1,1,1,1,1,1,1,1,1,1,1,1,1,1,1,1,1,1,1,1,1,1,1,1,1,1,1,1,1,1,1,1,1,1,1,1,1,1,1,1,1,1,1,1,1,1,1,1,1,1,1,1,1,1,1,1,1,1,1,1,1,1,1,1,1,1,1,1,1,1,1,1,1,1,1,1,1],"number_of_sets":1,"coherent_direction":[267,172,267,267,267,267,172,172,267,267,267,267,267,172,267,172,267,267,267,172,267,172,267,172,172,172,172,267,172,267,267,172,172,267,172,172,172,267,172,172,172,172,267,267,172,172,267,267,267,172,172,172,267,172,172,267,172,267,267,267,172,172,267,172,267,172,172,172,172,172,267,267,172,172,172,267,172,267,267,267,172,267,267,267,267,172,267,172,267,172,267,267,267,267,172,172,267,172,172,172,267,267,267,172,267,172,267,172,172,267,172,172,172,267,267,267,267,172,267,172,172,172,172,172,267,172,267,172,267,267,267,267,267,267,172,172,267,172,267,172,172,267,267,172,172,267,267,172,172,267,172,267,172,267,267,172,267,267,267,267,172,267,172,267,172,172,172,172,267,172,172,267,172,172,172,172,172,267,172,172,267,267,172,267,172,267,172,172,267,172,267,267,267,172,172,267,267,172,267,267],"coherence":1,"opposite_coherence":0,"dot_radius":2,"dot_side_length":1,"dot_life":-1,"move_distance":1,"aperture_width":300,"aperture_height":300,"dot_color":["white","black","white","white","white","white","black","black","white","white","white","white","white","black","white","black","white","white","white","black","white","black","white","black","black","black","black","white","black","white","white","black","black","white","black","black","black","white","black","black","black","black","white","white","black","black","white","white","white","black","black","black","white","black","black","white","black","white","white","white","black","black","white","black","white","black","black","black","black","black","white","white","black","black","black","white","black","white","white","white","black","white","white","white","white","black","white","black","white","black","white","white","white","white","black","black","white","black","black","black","white","white","white","black","white","black","white","black","black","white","black","black","black","white","white","white","white","black","white","black","black","black","black","black","white","black","white","black","white","white","white","white","white","white","black","black","white","black","white","black","black","white","white","black","black","white","white","black","black","white","black","white","black","white","white","black","white","white","white","white","black","white","black","white","black","black","black","black","white","black","black","white","black","black","black","black","black","white","black","black","white","white","black","white","black","white","black","black","white","black","white","white","white","black","black","white","white","black","white","white"],"dot_shape":"circle","background_color":"#AAA","RDK_type":3,"aperture_type":2,"reinsert_type":2,"frame_rate":16.710743801652892,"frame_rate_array":[3,18,17,15,17,16,17,17,17,17,18,16,17,20,14,15,17,16,17,16,20,13,16,17,17,17,17,16,17,17,17,17,17,17,17,16,17,17,17,17,17,17,16,17,17,17,16,17,18,17,17,17,16,17,17,16,16,17,17,17,18,16,17,17,16,19,16,17,19,14,17,18,17,16,19,18,16,17,14,18,19,16,15,15,17,16,17,17,16,17,17,17,17,17,16,17,17,18,16,17,18,15,17,19,14,17,16,18,17,16,17,17,19,15,19,17,15,18,15,18,20],"number_of_frames":121,"aperture_center_x":768,"aperture_center_y":432,"fixation_cross":true,"fixation_cross_width":15,"fixation_cross_height":15,"fixation_cross_color":"#111","fixation_cross_thickness":1,"border":true,"border_thickness":2,"border_color":"transparent","canvas_width":1536,"canvas_height":864,"trial_type":"rdk","trial_index":68,"plugin_version":"2.0.0","time_elapsed":212508},{"rt":1119,"stimulus":"\n        <div class=\"response-container\">\n          <div class=\"response-instruction\">\n            <p>rotate the bar by using the left and right arrow keys.</p>\n            <p>when you are determined, press the Enter key.</p>\n          </div>\n          <div class=\"response-circle\">\n            <div class=\"response-fixation\"></div>\n            <div id=\"bar\" class=\"rotating-bar\"></div>\n          </div>\n        </div>\n      ","response":"Enter","trial_type":"html-keyboard-response","trial_index":69,"plugin_version":"2.1.0","time_elapsed":213629,"random_initial_angle":289,"response_angle_css":289,"response_angle_rdk":161,"angular_error_target":-11,"angular_error_distractor":-106,"target_direction":172,"target_group":"black","reward_points":7},{"rt":null,"stimulus":"\n          <p style=\"color: #00FF00;\">Your reward: 7 points</p>\n        ","response":null,"trial_type":"html-keyboard-response","trial_index":70,"plugin_version":"2.1.0","time_elapsed":215633},{"rt":null,"stimulus":"<div class=\"fixation\" style=\"font-size: 60px;\">+</div>","response":null,"trial_type":"html-keyboard-response","trial_index":71,"plugin_version":"2.1.0","time_elapsed":216653},{"phase":"learning-awareness","target_group":"black","condition_label":"B_H_vs_W_L_rep14","target_direction":188,"distractor_direction":279,"session_rotation":59,"rt":-1,"response":"","correct":false,"choices":"ALL_KEYS","correct_choice":["a"],"trial_duration":2000,"flip_timestamps":[],"response_ends_trial":false,"number_of_apertures":200,"number_of_dots":[1,1,1,1,1,1,1,1,1,1,1,1,1,1,1,1,1,1,1,1,1,1,1,1,1,1,1,1,1,1,1,1,1,1,1,1,1,1,1,1,1,1,1,1,1,1,1,1,1,1,1,1,1,1,1,1,1,1,1,1,1,1,1,1,1,1,1,1,1,1,1,1,1,1,1,1,1,1,1,1,1,1,1,1,1,1,1,1,1,1,1,1,1,1,1,1,1,1,1,1,1,1,1,1,1,1,1,1,1,1,1,1,1,1,1,1,1,1,1,1,1,1,1,1,1,1,1,1,1,1,1,1,1,1,1,1,1,1,1,1,1,1,1,1,1,1,1,1,1,1,1,1,1,1,1,1,1,1,1,1,1,1,1,1,1,1,1,1,1,1,1,1,1,1,1,1,1,1,1,1,1,1,1,1,1,1,1,1,1,1,1,1,1,1,1,1,1,1,1,1],"number_of_sets":1,"coherent_direction":[279,188,188,279,188,279,188,188,188,188,188,279,188,188,188,279,188,188,279,279,188,279,279,188,279,279,188,279,188,188,279,188,188,279,188,279,279,188,188,279,279,279,279,188,279,188,279,188,188,279,188,188,188,188,188,279,188,279,279,188,279,279,279,188,188,279,188,279,188,188,279,279,188,188,188,188,188,279,279,279,279,279,279,188,279,188,279,188,188,279,279,279,279,188,188,279,279,188,188,188,188,188,279,279,188,279,188,279,279,188,188,279,279,279,188,279,279,279,279,279,188,279,188,188,188,188,279,188,279,188,279,188,188,188,279,188,279,188,188,279,279,279,279,279,279,188,188,188,279,279,188,188,188,188,279,279,188,188,188,188,188,279,188,279,279,188,279,188,279,279,279,188,188,279,279,279,188,188,188,188,188,279,279,188,279,188,279,188,279,279,279,188,279,188,279,279,279,279,279,279],"coherence":1,"opposite_coherence":0,"dot_radius":2,"dot_side_length":1,"dot_life":-1,"move_distance":1,"aperture_width":300,"aperture_height":300,"dot_color":["white","black","black","white","black","white","black","black","black","black","black","white","black","black","black","white","black","black","white","white","black","white","white","black","white","white","black","white","black","black","white","black","black","white","black","white","white","black","black","white","white","white","white","black","white","black","white","black","black","white","black","black","black","black","black","white","black","white","white","black","white","white","white","black","black","white","black","white","black","black","white","white","black","black","black","black","black","white","white","white","white","white","white","black","white","black","white","black","black","white","white","white","white","black","black","white","white","black","black","black","black","black","white","white","black","white","black","white","white","black","black","white","white","white","black","white","white","white","white","white","black","white","black","black","black","black","white","black","white","black","white","black","black","black","white","black","white","black","black","white","white","white","white","white","white","black","black","black","white","white","black","black","black","black","white","white","black","black","black","black","black","white","black","white","white","black","white","black","white","white","white","black","black","white","white","white","black","black","black","black","black","white","white","black","white","black","white","black","white","white","white","black","white","black","white","white","white","white","white","white"],"dot_shape":"circle","background_color":"#AAA","RDK_type":3,"aperture_type":2,"reinsert_type":2,"frame_rate":16.628099173553718,"frame_rate_array":[10,17,14,17,17,17,18,15,17,17,16,19,15,17,17,17,18,16,16,17,17,16,17,16,16,17,18,16,17,17,17,19,16,15,16,17,16,17,18,17,16,16,16,17,16,17,17,17,17,15,17,16,18,18,15,17,17,17,16,16,16,17,17,19,14,16,16,17,17,17,16,17,16,17,17,18,17,16,17,18,16,17,16,18,17,16,17,17,17,17,18,17,15,17,16,17,16,17,17,17,17,15,19,15,17,17,17,17,15,17,16,17,17,17,16,16,17,17,17,17,16],"number_of_frames":121,"aperture_center_x":768,"aperture_center_y":432,"fixation_cross":true,"fixation_cross_width":15,"fixation_cross_height":15,"fixation_cross_color":"#111","fixation_cross_thickness":1,"border":true,"border_thickness":2,"border_color":"transparent","canvas_width":1536,"canvas_height":864,"trial_type":"rdk","trial_index":72,"plugin_version":"2.0.0","time_elapsed":218669},{"rt":2636,"stimulus":"\n        <div class=\"response-container\">\n          <div class=\"response-instruction\">\n            <p>rotate the bar by using the left and right arrow keys.</p>\n            <p>when you are determined, press the Enter key.</p>\n          </div>\n          <div class=\"response-circle\">\n            <div class=\"response-fixation\"></div>\n            <div id=\"bar\" class=\"rotating-bar\"></div>\n          </div>\n        </div>\n      ","response":"Enter","trial_type":"html-keyboard-response","trial_index":73,"plugin_version":"2.1.0","time_elapsed":221306,"random_initial_angle":12,"response_angle_css":-93,"response_angle_rdk":183,"angular_error_target":-5,"angular_error_distractor":-96,"target_direction":188,"target_group":"black","reward_points":9},{"rt":null,"stimulus":"\n          <p style=\"color: #00FF00;\">Your reward: 9 points</p>\n        ","response":null,"trial_type":"html-keyboard-response","trial_index":74,"plugin_version":"2.1.0","time_elapsed":223322},{"rt":null,"stimulus":"<div class=\"fixation\" style=\"font-size: 60px;\">+</div>","response":null,"trial_type":"html-keyboard-response","trial_index":75,"plugin_version":"2.1.0","time_elapsed":224337},{"phase":"learning-awareness","target_group":"white","condition_label":"W_H_vs_B_L_rep13","target_direction":67,"distractor_direction":333,"session_rotation":59,"rt":-1,"response":"","correct":false,"choices":"ALL_KEYS","correct_choice":["a"],"trial_duration":2000,"flip_timestamps":[],"response_ends_trial":false,"number_of_apertures":200,"number_of_dots":[1,1,1,1,1,1,1,1,1,1,1,1,1,1,1,1,1,1,1,1,1,1,1,1,1,1,1,1,1,1,1,1,1,1,1,1,1,1,1,1,1,1,1,1,1,1,1,1,1,1,1,1,1,1,1,1,1,1,1,1,1,1,1,1,1,1,1,1,1,1,1,1,1,1,1,1,1,1,1,1,1,1,1,1,1,1,1,1,1,1,1,1,1,1,1,1,1,1,1,1,1,1,1,1,1,1,1,1,1,1,1,1,1,1,1,1,1,1,1,1,1,1,1,1,1,1,1,1,1,1,1,1,1,1,1,1,1,1,1,1,1,1,1,1,1,1,1,1,1,1,1,1,1,1,1,1,1,1,1,1,1,1,1,1,1,1,1,1,1,1,1,1,1,1,1,1,1,1,1,1,1,1,1,1,1,1,1,1,1,1,1,1,1,1,1,1,1,1,1,1],"number_of_sets":1,"coherent_direction":[333,67,333,333,333,333,67,67,333,333,67,67,67,67,333,333,333,333,333,67,333,333,67,333,333,67,67,67,333,67,333,333,333,67,333,67,67,67,333,67,67,67,333,67,67,67,67,333,333,67,67,67,333,67,333,333,67,333,67,67,333,67,333,333,333,67,67,333,333,333,333,333,333,333,333,333,333,67,67,67,333,67,67,333,333,333,333,333,333,67,67,333,333,67,333,333,333,67,333,333,333,67,67,67,333,333,333,333,333,333,67,67,333,67,333,67,67,67,333,67,67,67,333,67,67,67,333,333,67,67,67,333,333,67,333,67,333,67,67,333,333,333,333,67,333,67,67,67,67,67,333,67,333,333,67,67,333,67,67,67,67,333,67,67,333,333,67,333,333,67,333,67,333,67,67,67,333,67,333,67,67,67,67,333,333,67,333,333,333,67,333,67,67,333,67,67,333,67,67,67],"coherence":1,"opposite_coherence":0,"dot_radius":2,"dot_side_length":1,"dot_life":-1,"move_distance":1,"aperture_width":300,"aperture_height":300,"dot_color":["black","white","black","black","black","black","white","white","black","black","white","white","white","white","black","black","black","black","black","white","black","black","white","black","black","white","white","white","black","white","black","black","black","white","black","white","white","white","black","white","white","white","black","white","white","white","white","black","black","white","white","white","black","white","black","black","white","black","white","white","black","white","black","black","black","white","white","black","black","black","black","black","black","black","black","black","black","white","white","white","black","white","white","black","black","black","black","black","black","white","white","black","black","white","black","black","black","white","black","black","black","white","white","white","black","black","black","black","black","black","white","white","black","white","black","white","white","white","black","white","white","white","black","white","white","white","black","black","white","white","white","black","black","white","black","white","black","white","white","black","black","black","black","white","black","white","white","white","white","white","black","white","black","black","white","white","black","white","white","white","white","black","white","white","black","black","white","black","black","white","black","white","black","white","white","white","black","white","black","white","white","white","white","black","black","white","black","black","black","white","black","white","white","black","white","white","black","white","white","white"],"dot_shape":"circle","background_color":"#AAA","RDK_type":3,"aperture_type":2,"reinsert_type":2,"frame_rate":16.644628099173552,"frame_rate_array":[10,15,17,16,17,16,16,17,16,17,17,17,17,17,16,17,17,16,18,17,16,16,17,16,17,17,16,17,17,15,18,15,17,17,18,17,16,17,16,17,17,17,17,16,17,16,17,17,17,17,17,15,16,17,17,18,20,12,17,17,17,17,17,19,16,17,17,15,16,17,18,17,15,17,16,17,17,17,16,17,17,16,17,17,17,16,17,16,17,19,15,16,17,18,17,16,17,17,17,17,17,17,17,17,16,17,17,17,16,18,16,17,16,17,19,14,17,18,16,16,16],"number_of_frames":121,"aperture_center_x":768,"aperture_center_y":432,"fixation_cross":true,"fixation_cross_width":15,"fixation_cross_height":15,"fixation_cross_color":"#111","fixation_cross_thickness":1,"border":true,"border_thickness":2,"border_color":"transparent","canvas_width":1536,"canvas_height":864,"trial_type":"rdk","trial_index":76,"plugin_version":"2.0.0","time_elapsed":226352},{"rt":3603,"stimulus":"\n        <div class=\"response-container\">\n          <div class=\"response-instruction\">\n            <p>rotate the bar by using the left and right arrow keys.</p>\n            <p>when you are determined, press the Enter key.</p>\n          </div>\n          <div class=\"response-circle\">\n            <div class=\"response-fixation\"></div>\n            <div id=\"bar\" class=\"rotating-bar\"></div>\n          </div>\n        </div>\n      ","response":"Enter","trial_type":"html-keyboard-response","trial_index":77,"plugin_version":"2.1.0","time_elapsed":229956,"random_initial_angle":154,"response_angle_css":5,"response_angle_rdk":85,"angular_error_target":18,"angular_error_distractor":112,"target_direction":67,"target_group":"white","reward_points":6},{"rt":null,"stimulus":"\n          <p style=\"color: #00FF00;\">Your reward: 6 points</p>\n        ","response":null,"trial_type":"html-keyboard-response","trial_index":78,"plugin_version":"2.1.0","time_elapsed":231973},{"rt":null,"stimulus":"<div class=\"fixation\" style=\"font-size: 60px;\">+</div>","response":null,"trial_type":"html-keyboard-response","trial_index":79,"plugin_version":"2.1.0","time_elapsed":232990},{"phase":"learning-awareness","target_group":"white","condition_label":"W_H_vs_B_L_rep7","target_direction":95,"distractor_direction":339,"session_rotation":59,"rt":-1,"response":"","correct":false,"choices":"ALL_KEYS","correct_choice":["a"],"trial_duration":2000,"flip_timestamps":[],"response_ends_trial":false,"number_of_apertures":200,"number_of_dots":[1,1,1,1,1,1,1,1,1,1,1,1,1,1,1,1,1,1,1,1,1,1,1,1,1,1,1,1,1,1,1,1,1,1,1,1,1,1,1,1,1,1,1,1,1,1,1,1,1,1,1,1,1,1,1,1,1,1,1,1,1,1,1,1,1,1,1,1,1,1,1,1,1,1,1,1,1,1,1,1,1,1,1,1,1,1,1,1,1,1,1,1,1,1,1,1,1,1,1,1,1,1,1,1,1,1,1,1,1,1,1,1,1,1,1,1,1,1,1,1,1,1,1,1,1,1,1,1,1,1,1,1,1,1,1,1,1,1,1,1,1,1,1,1,1,1,1,1,1,1,1,1,1,1,1,1,1,1,1,1,1,1,1,1,1,1,1,1,1,1,1,1,1,1,1,1,1,1,1,1,1,1,1,1,1,1,1,1,1,1,1,1,1,1,1,1,1,1,1,1],"number_of_sets":1,"coherent_direction":[339,339,339,339,339,95,339,95,339,95,339,339,95,95,95,339,95,95,95,339,95,339,339,339,95,95,339,95,339,339,339,339,95,339,339,339,339,339,339,95,339,95,95,95,95,339,95,95,339,95,95,95,95,339,339,339,339,339,95,339,95,339,95,95,339,95,95,95,95,95,339,339,339,339,95,95,95,95,339,95,339,95,95,95,95,339,339,339,339,95,339,95,339,95,339,339,339,339,339,95,95,339,95,95,339,95,95,95,339,95,339,95,95,339,339,95,95,339,95,95,95,95,95,95,95,339,95,95,339,95,95,95,95,339,95,339,339,339,339,95,95,339,339,95,95,339,339,95,95,339,339,95,339,339,339,339,95,95,95,339,95,95,339,339,339,95,95,339,339,95,339,339,95,339,339,95,95,95,339,339,95,339,95,339,339,95,339,339,339,339,95,95,339,95,95,95,339,339,339,95],"coherence":1,"opposite_coherence":0,"dot_radius":2,"dot_side_length":1,"dot_life":-1,"move_distance":1,"aperture_width":300,"aperture_height":300,"dot_color":["black","black","black","black","black","white","black","white","black","white","black","black","white","white","white","black","white","white","white","black","white","black","black","black","white","white","black","white","black","black","black","black","white","black","black","black","black","black","black","white","black","white","white","white","white","black","white","white","black","white","white","white","white","black","black","black","black","black","white","black","white","black","white","white","black","white","white","white","white","white","black","black","black","black","white","white","white","white","black","white","black","white","white","white","white","black","black","black","black","white","black","white","black","white","black","black","black","black","black","white","white","black","white","white","black","white","white","white","black","white","black","white","white","black","black","white","white","black","white","white","white","white","white","white","white","black","white","white","black","white","white","white","white","black","white","black","black","black","black","white","white","black","black","white","white","black","black","white","white","black","black","white","black","black","black","black","white","white","white","black","white","white","black","black","black","white","white","black","black","white","black","black","white","black","black","white","white","white","black","black","white","black","white","black","black","white","black","black","black","black","white","white","black","white","white","white","black","black","black","white"],"dot_shape":"circle","background_color":"#AAA","RDK_type":3,"aperture_type":2,"reinsert_type":2,"frame_rate":16.628099173553718,"frame_rate_array":[5,15,16,17,17,17,17,16,17,17,16,17,17,17,17,17,17,18,16,16,17,16,18,16,17,16,16,17,17,17,17,17,17,17,16,17,16,16,17,17,18,16,15,17,17,16,18,17,17,18,17,15,16,17,16,17,17,17,17,17,17,17,18,15,16,17,17,18,16,16,17,17,17,17,17,17,16,17,17,16,17,16,19,15,16,17,17,17,16,18,16,17,17,17,17,16,17,17,17,17,16,17,17,16,16,17,17,17,17,16,17,16,16,17,17,17,17,17,17,16,17],"number_of_frames":121,"aperture_center_x":768,"aperture_center_y":432,"fixation_cross":true,"fixation_cross_width":15,"fixation_cross_height":15,"fixation_cross_color":"#111","fixation_cross_thickness":1,"border":true,"border_thickness":2,"border_color":"transparent","canvas_width":1536,"canvas_height":864,"trial_type":"rdk","trial_index":80,"plugin_version":"2.0.0","time_elapsed":235000},{"rt":1937,"stimulus":"\n        <div class=\"response-container\">\n          <div class=\"response-instruction\">\n            <p>rotate the bar by using the left and right arrow keys.</p>\n            <p>when you are determined, press the Enter key.</p>\n          </div>\n          <div class=\"response-circle\">\n            <div class=\"response-fixation\"></div>\n            <div id=\"bar\" class=\"rotating-bar\"></div>\n          </div>\n        </div>\n      ","response":"Enter","trial_type":"html-keyboard-response","trial_index":81,"plugin_version":"2.1.0","time_elapsed":236940,"random_initial_angle":68,"response_angle_css":-7,"response_angle_rdk":97,"angular_error_target":2,"angular_error_distractor":118,"target_direction":95,"target_group":"white","reward_points":9},{"rt":null,"stimulus":"\n          <p style=\"color: #00FF00;\">Your reward: 9 points</p>\n        ","response":null,"trial_type":"html-keyboard-response","trial_index":82,"plugin_version":"2.1.0","time_elapsed":238953},{"rt":null,"stimulus":"<div class=\"fixation\" style=\"font-size: 60px;\">+</div>","response":null,"trial_type":"html-keyboard-response","trial_index":83,"plugin_version":"2.1.0","time_elapsed":239966},{"phase":"learning-awareness","target_group":"black","condition_label":"B_H_vs_W_L_rep19","target_direction":185,"distractor_direction":283,"session_rotation":59,"rt":-1,"response":"","correct":false,"choices":"ALL_KEYS","correct_choice":["a"],"trial_duration":2000,"flip_timestamps":[],"response_ends_trial":false,"number_of_apertures":200,"number_of_dots":[1,1,1,1,1,1,1,1,1,1,1,1,1,1,1,1,1,1,1,1,1,1,1,1,1,1,1,1,1,1,1,1,1,1,1,1,1,1,1,1,1,1,1,1,1,1,1,1,1,1,1,1,1,1,1,1,1,1,1,1,1,1,1,1,1,1,1,1,1,1,1,1,1,1,1,1,1,1,1,1,1,1,1,1,1,1,1,1,1,1,1,1,1,1,1,1,1,1,1,1,1,1,1,1,1,1,1,1,1,1,1,1,1,1,1,1,1,1,1,1,1,1,1,1,1,1,1,1,1,1,1,1,1,1,1,1,1,1,1,1,1,1,1,1,1,1,1,1,1,1,1,1,1,1,1,1,1,1,1,1,1,1,1,1,1,1,1,1,1,1,1,1,1,1,1,1,1,1,1,1,1,1,1,1,1,1,1,1,1,1,1,1,1,1,1,1,1,1,1,1],"number_of_sets":1,"coherent_direction":[185,185,185,283,283,185,185,283,185,283,283,185,185,185,283,283,185,283,283,185,283,185,283,283,283,283,185,283,283,185,185,283,185,283,185,283,185,283,283,283,283,185,283,185,283,185,283,185,283,185,283,185,283,283,283,283,283,185,283,185,283,283,283,283,283,283,283,185,185,283,185,283,283,283,283,283,185,185,283,185,283,185,283,185,283,283,283,283,185,185,283,283,283,185,283,283,185,185,283,283,185,185,185,283,185,283,185,185,185,185,283,185,283,185,185,185,185,283,283,283,185,283,283,185,283,283,185,283,283,283,185,283,185,185,283,185,185,185,185,283,185,283,185,185,185,185,185,185,283,185,283,185,283,185,283,283,283,185,283,283,185,283,283,185,283,283,185,185,185,185,283,185,283,283,185,185,283,185,185,185,283,185,185,185,185,185,185,185,185,283,185,185,283,185,185,185,283,185,185,283],"coherence":1,"opposite_coherence":0,"dot_radius":2,"dot_side_length":1,"dot_life":-1,"move_distance":1,"aperture_width":300,"aperture_height":300,"dot_color":["black","black","black","white","white","black","black","white","black","white","white","black","black","black","white","white","black","white","white","black","white","black","white","white","white","white","black","white","white","black","black","white","black","white","black","white","black","white","white","white","white","black","white","black","white","black","white","black","white","black","white","black","white","white","white","white","white","black","white","black","white","white","white","white","white","white","white","black","black","white","black","white","white","white","white","white","black","black","white","black","white","black","white","black","white","white","white","white","black","black","white","white","white","black","white","white","black","black","white","white","black","black","black","white","black","white","black","black","black","black","white","black","white","black","black","black","black","white","white","white","black","white","white","black","white","white","black","white","white","white","black","white","black","black","white","black","black","black","black","white","black","white","black","black","black","black","black","black","white","black","white","black","white","black","white","white","white","black","white","white","black","white","white","black","white","white","black","black","black","black","white","black","white","white","black","black","white","black","black","black","white","black","black","black","black","black","black","black","black","white","black","black","white","black","black","black","white","black","black","white"],"dot_shape":"circle","background_color":"#AAA","RDK_type":3,"aperture_type":2,"reinsert_type":2,"frame_rate":16.725,"frame_rate_array":[14,15,16,17,17,17,17,16,17,17,17,16,18,16,17,17,18,16,16,18,16,17,16,17,17,16,18,16,17,16,17,17,17,17,17,19,14,16,17,17,16,17,17,17,17,17,17,17,17,17,17,18,16,16,17,17,16,18,16,16,17,16,17,17,17,17,16,17,16,17,17,18,16,17,16,16,17,17,17,17,17,16,17,17,18,17,16,17,17,17,17,17,16,17,17,16,17,18,16,17,17,16,16,17,17,16,18,17,16,17,16,17,17,15,16,17,17,17,18,16],"number_of_frames":120,"aperture_center_x":768,"aperture_center_y":432,"fixation_cross":true,"fixation_cross_width":15,"fixation_cross_height":15,"fixation_cross_color":"#111","fixation_cross_thickness":1,"border":true,"border_thickness":2,"border_color":"transparent","canvas_width":1536,"canvas_height":864,"trial_type":"rdk","trial_index":84,"plugin_version":"2.0.0","time_elapsed":241971},{"rt":1397,"stimulus":"\n        <div class=\"response-container\">\n          <div class=\"response-instruction\">\n            <p>rotate the bar by using the left and right arrow keys.</p>\n            <p>when you are determined, press the Enter key.</p>\n          </div>\n          <div class=\"response-circle\">\n            <div class=\"response-fixation\"></div>\n            <div id=\"bar\" class=\"rotating-bar\"></div>\n          </div>\n        </div>\n      ","response":"Enter","trial_type":"html-keyboard-response","trial_index":85,"plugin_version":"2.1.0","time_elapsed":243369,"random_initial_angle":133,"response_angle_css":149,"response_angle_rdk":301,"angular_error_target":116,"angular_error_distractor":18,"target_direction":185,"target_group":"black","reward_points":0},{"rt":null,"stimulus":"\n          <p style=\"color: #FF3333;\">Your reward: 0 points</p>\n        ","response":null,"trial_type":"html-keyboard-response","trial_index":86,"plugin_version":"2.1.0","time_elapsed":245385},{"rt":null,"stimulus":"<div class=\"fixation\" style=\"font-size: 60px;\">+</div>","response":null,"trial_type":"html-keyboard-response","trial_index":87,"plugin_version":"2.1.0","time_elapsed":246389},{"phase":"learning-awareness","target_group":"white","condition_label":"W_H_vs_B_L_rep9","target_direction":87,"distractor_direction":342,"session_rotation":59,"rt":-1,"response":"","correct":false,"choices":"ALL_KEYS","correct_choice":["a"],"trial_duration":2000,"flip_timestamps":[],"response_ends_trial":false,"number_of_apertures":200,"number_of_dots":[1,1,1,1,1,1,1,1,1,1,1,1,1,1,1,1,1,1,1,1,1,1,1,1,1,1,1,1,1,1,1,1,1,1,1,1,1,1,1,1,1,1,1,1,1,1,1,1,1,1,1,1,1,1,1,1,1,1,1,1,1,1,1,1,1,1,1,1,1,1,1,1,1,1,1,1,1,1,1,1,1,1,1,1,1,1,1,1,1,1,1,1,1,1,1,1,1,1,1,1,1,1,1,1,1,1,1,1,1,1,1,1,1,1,1,1,1,1,1,1,1,1,1,1,1,1,1,1,1,1,1,1,1,1,1,1,1,1,1,1,1,1,1,1,1,1,1,1,1,1,1,1,1,1,1,1,1,1,1,1,1,1,1,1,1,1,1,1,1,1,1,1,1,1,1,1,1,1,1,1,1,1,1,1,1,1,1,1,1,1,1,1,1,1,1,1,1,1,1,1],"number_of_sets":1,"coherent_direction":[87,342,87,342,342,342,342,87,342,87,342,342,87,342,87,342,87,87,87,87,87,342,87,87,87,87,342,87,342,342,87,342,87,342,342,87,87,87,87,342,342,87,342,87,87,87,87,87,87,87,87,87,342,87,342,342,342,342,87,342,342,342,342,87,87,87,87,342,87,342,87,87,342,87,87,87,342,87,342,342,87,87,342,342,342,87,87,87,342,342,342,342,87,342,342,342,87,87,342,342,342,342,87,87,87,87,342,87,342,87,87,87,87,87,342,342,342,87,87,87,87,87,87,87,342,342,342,342,342,87,342,87,342,87,342,342,87,87,342,87,87,342,342,342,87,342,342,342,342,342,342,342,87,87,87,342,342,342,342,342,87,342,342,87,87,342,342,342,87,87,87,342,342,87,87,87,342,87,342,342,87,342,87,342,87,342,342,87,87,342,87,342,87,342,87,342,342,342,342,87],"coherence":1,"opposite_coherence":0,"dot_radius":2,"dot_side_length":1,"dot_life":-1,"move_distance":1,"aperture_width":300,"aperture_height":300,"dot_color":["white","black","white","black","black","black","black","white","black","white","black","black","white","black","white","black","white","white","white","white","white","black","white","white","white","white","black","white","black","black","white","black","white","black","black","white","white","white","white","black","black","white","black","white","white","white","white","white","white","white","white","white","black","white","black","black","black","black","white","black","black","black","black","white","white","white","white","black","white","black","white","white","black","white","white","white","black","white","black","black","white","white","black","black","black","white","white","white","black","black","black","black","white","black","black","black","white","white","black","black","black","black","white","white","white","white","black","white","black","white","white","white","white","white","black","black","black","white","white","white","white","white","white","white","black","black","black","black","black","white","black","white","black","white","black","black","white","white","black","white","white","black","black","black","white","black","black","black","black","black","black","black","white","white","white","black","black","black","black","black","white","black","black","white","white","black","black","black","white","white","white","black","black","white","white","white","black","white","black","black","white","black","white","black","white","black","black","white","white","black","white","black","white","black","white","black","black","black","black","white"],"dot_shape":"circle","background_color":"#AAA","RDK_type":3,"aperture_type":2,"reinsert_type":2,"frame_rate":16.608333333333334,"frame_rate_array":[5,18,15,16,17,17,17,16,17,17,17,17,16,17,17,17,16,16,17,18,17,17,16,16,17,16,17,18,16,15,17,17,17,17,16,17,17,17,17,17,16,17,16,17,16,18,17,16,17,17,17,16,17,16,18,17,16,16,17,17,17,16,18,15,17,17,16,16,16,17,16,17,19,16,17,17,16,17,17,16,17,16,17,18,17,17,17,18,15,17,17,17,16,17,16,17,17,17,17,17,17,16,16,16,16,17,17,17,16,17,17,16,17,17,16,17,16,17,17,17],"number_of_frames":120,"aperture_center_x":768,"aperture_center_y":432,"fixation_cross":true,"fixation_cross_width":15,"fixation_cross_height":15,"fixation_cross_color":"#111","fixation_cross_thickness":1,"border":true,"border_thickness":2,"border_color":"transparent","canvas_width":1536,"canvas_height":864,"trial_type":"rdk","trial_index":88,"plugin_version":"2.0.0","time_elapsed":248398},{"rt":2034,"stimulus":"\n        <div class=\"response-container\">\n          <div class=\"response-instruction\">\n            <p>rotate the bar by using the left and right arrow keys.</p>\n            <p>when you are determined, press the Enter key.</p>\n          </div>\n          <div class=\"response-circle\">\n            <div class=\"response-fixation\"></div>\n            <div id=\"bar\" class=\"rotating-bar\"></div>\n          </div>\n        </div>\n      ","response":"Enter","trial_type":"html-keyboard-response","trial_index":89,"plugin_version":"2.1.0","time_elapsed":250434,"random_initial_angle":56,"response_angle_css":-7,"response_angle_rdk":97,"angular_error_target":10,"angular_error_distractor":115,"target_direction":87,"target_group":"white","reward_points":8},{"rt":null,"stimulus":"\n          <p style=\"color: #00FF00;\">Your reward: 8 points</p>\n        ","response":null,"trial_type":"html-keyboard-response","trial_index":90,"plugin_version":"2.1.0","time_elapsed":252449},{"rt":null,"stimulus":"<div class=\"fixation\" style=\"font-size: 60px;\">+</div>","response":null,"trial_type":"html-keyboard-response","trial_index":91,"plugin_version":"2.1.0","time_elapsed":253463},{"phase":"learning-awareness","target_group":"white","condition_label":"W_H_vs_B_L_rep17","target_direction":94,"distractor_direction":332,"session_rotation":59,"rt":-1,"response":"","correct":false,"choices":"ALL_KEYS","correct_choice":["a"],"trial_duration":2000,"flip_timestamps":[],"response_ends_trial":false,"number_of_apertures":200,"number_of_dots":[1,1,1,1,1,1,1,1,1,1,1,1,1,1,1,1,1,1,1,1,1,1,1,1,1,1,1,1,1,1,1,1,1,1,1,1,1,1,1,1,1,1,1,1,1,1,1,1,1,1,1,1,1,1,1,1,1,1,1,1,1,1,1,1,1,1,1,1,1,1,1,1,1,1,1,1,1,1,1,1,1,1,1,1,1,1,1,1,1,1,1,1,1,1,1,1,1,1,1,1,1,1,1,1,1,1,1,1,1,1,1,1,1,1,1,1,1,1,1,1,1,1,1,1,1,1,1,1,1,1,1,1,1,1,1,1,1,1,1,1,1,1,1,1,1,1,1,1,1,1,1,1,1,1,1,1,1,1,1,1,1,1,1,1,1,1,1,1,1,1,1,1,1,1,1,1,1,1,1,1,1,1,1,1,1,1,1,1,1,1,1,1,1,1,1,1,1,1,1,1],"number_of_sets":1,"coherent_direction":[332,94,94,94,332,94,94,332,94,94,94,94,94,94,332,94,332,94,332,94,332,94,94,332,332,332,332,94,332,94,332,332,94,94,94,94,332,332,332,332,94,94,94,332,94,94,94,332,332,94,332,332,332,332,332,94,94,332,94,94,332,94,332,94,94,94,332,332,332,94,94,94,332,94,94,94,332,332,94,94,332,332,332,94,332,94,94,94,94,94,332,94,332,332,332,332,332,94,332,332,94,332,94,332,94,94,332,332,94,94,94,332,94,332,332,332,94,94,94,332,332,94,94,332,94,332,94,94,94,94,332,332,94,94,332,332,94,332,332,332,332,94,332,332,94,94,94,94,94,94,94,94,332,332,332,332,332,332,94,332,94,332,94,332,94,94,332,332,94,332,332,332,94,94,94,94,332,94,332,332,332,332,94,94,332,94,332,332,332,332,332,94,332,332,94,332,332,332,332,94],"coherence":1,"opposite_coherence":0,"dot_radius":2,"dot_side_length":1,"dot_life":-1,"move_distance":1,"aperture_width":300,"aperture_height":300,"dot_color":["black","white","white","white","black","white","white","black","white","white","white","white","white","white","black","white","black","white","black","white","black","white","white","black","black","black","black","white","black","white","black","black","white","white","white","white","black","black","black","black","white","white","white","black","white","white","white","black","black","white","black","black","black","black","black","white","white","black","white","white","black","white","black","white","white","white","black","black","black","white","white","white","black","white","white","white","black","black","white","white","black","black","black","white","black","white","white","white","white","white","black","white","black","black","black","black","black","white","black","black","white","black","white","black","white","white","black","black","white","white","white","black","white","black","black","black","white","white","white","black","black","white","white","black","white","black","white","white","white","white","black","black","white","white","black","black","white","black","black","black","black","white","black","black","white","white","white","white","white","white","white","white","black","black","black","black","black","black","white","black","white","black","white","black","white","white","black","black","white","black","black","black","white","white","white","white","black","white","black","black","black","black","white","white","black","white","black","black","black","black","black","white","black","black","white","black","black","black","black","white"],"dot_shape":"circle","background_color":"#AAA","RDK_type":3,"aperture_type":2,"reinsert_type":2,"frame_rate":16.570247933884296,"frame_rate_array":[4,8,16,16,17,17,17,17,17,17,17,16,17,17,17,16,17,16,17,16,17,17,17,16,17,17,18,16,17,17,17,17,17,16,17,17,18,15,17,16,17,16,17,16,17,17,17,16,17,16,17,17,17,17,16,17,16,17,17,17,16,17,17,17,17,17,17,17,17,16,16,17,18,16,17,17,17,17,16,17,17,17,17,16,17,17,17,17,17,17,17,17,16,17,17,17,17,18,16,17,17,16,17,16,17,16,16,17,18,17,17,16,18,16,17,16,17,17,15,16,17],"number_of_frames":121,"aperture_center_x":768,"aperture_center_y":432,"fixation_cross":true,"fixation_cross_width":15,"fixation_cross_height":15,"fixation_cross_color":"#111","fixation_cross_thickness":1,"border":true,"border_thickness":2,"border_color":"transparent","canvas_width":1536,"canvas_height":864,"trial_type":"rdk","trial_index":92,"plugin_version":"2.0.0","time_elapsed":255472},{"rt":2209,"stimulus":"\n        <div class=\"response-container\">\n          <div class=\"response-instruction\">\n            <p>rotate the bar by using the left and right arrow keys.</p>\n            <p>when you are determined, press the Enter key.</p>\n          </div>\n          <div class=\"response-circle\">\n            <div class=\"response-fixation\"></div>\n            <div id=\"bar\" class=\"rotating-bar\"></div>\n          </div>\n        </div>\n      ","response":"Enter","trial_type":"html-keyboard-response","trial_index":93,"plugin_version":"2.1.0","time_elapsed":257683,"random_initial_angle":335,"response_angle_css":362,"response_angle_rdk":88,"angular_error_target":-6,"angular_error_distractor":116,"target_direction":94,"target_group":"white","reward_points":8},{"rt":null,"stimulus":"\n          <p style=\"color: #00FF00;\">Your reward: 8 points</p>\n        ","response":null,"trial_type":"html-keyboard-response","trial_index":94,"plugin_version":"2.1.0","time_elapsed":259688},{"rt":null,"stimulus":"<div class=\"fixation\" style=\"font-size: 60px;\">+</div>","response":null,"trial_type":"html-keyboard-response","trial_index":95,"plugin_version":"2.1.0","time_elapsed":260694},{"phase":"learning-awareness","target_group":"black","condition_label":"B_H_vs_W_L_rep9","target_direction":169,"distractor_direction":269,"session_rotation":59,"rt":-1,"response":"","correct":false,"choices":"ALL_KEYS","correct_choice":["a"],"trial_duration":2000,"flip_timestamps":[],"response_ends_trial":false,"number_of_apertures":200,"number_of_dots":[1,1,1,1,1,1,1,1,1,1,1,1,1,1,1,1,1,1,1,1,1,1,1,1,1,1,1,1,1,1,1,1,1,1,1,1,1,1,1,1,1,1,1,1,1,1,1,1,1,1,1,1,1,1,1,1,1,1,1,1,1,1,1,1,1,1,1,1,1,1,1,1,1,1,1,1,1,1,1,1,1,1,1,1,1,1,1,1,1,1,1,1,1,1,1,1,1,1,1,1,1,1,1,1,1,1,1,1,1,1,1,1,1,1,1,1,1,1,1,1,1,1,1,1,1,1,1,1,1,1,1,1,1,1,1,1,1,1,1,1,1,1,1,1,1,1,1,1,1,1,1,1,1,1,1,1,1,1,1,1,1,1,1,1,1,1,1,1,1,1,1,1,1,1,1,1,1,1,1,1,1,1,1,1,1,1,1,1,1,1,1,1,1,1,1,1,1,1,1,1],"number_of_sets":1,"coherent_direction":[269,169,169,269,169,269,169,269,169,269,169,169,169,169,169,269,169,269,269,269,269,169,269,169,169,269,169,269,169,269,169,169,169,269,269,269,269,269,269,169,269,269,169,269,269,169,269,269,269,269,269,269,269,269,269,169,169,269,169,269,269,269,269,169,269,169,269,269,269,169,269,269,269,269,169,169,169,169,169,269,169,269,169,169,169,269,269,269,269,169,269,169,269,269,169,169,169,269,269,169,169,169,169,269,169,169,169,169,169,169,169,269,269,169,269,169,269,169,269,169,269,169,269,169,269,169,169,269,169,169,169,269,169,269,269,169,269,169,169,269,169,169,269,169,269,169,269,169,269,169,269,269,269,169,169,269,169,269,269,269,169,169,269,169,269,169,169,169,169,269,169,169,169,169,169,169,269,269,269,269,269,169,169,269,169,169,269,169,169,269,169,269,169,269,269,169,169,269,269,269],"coherence":1,"opposite_coherence":0,"dot_radius":2,"dot_side_length":1,"dot_life":-1,"move_distance":1,"aperture_width":300,"aperture_height":300,"dot_color":["white","black","black","white","black","white","black","white","black","white","black","black","black","black","black","white","black","white","white","white","white","black","white","black","black","white","black","white","black","white","black","black","black","white","white","white","white","white","white","black","white","white","black","white","white","black","white","white","white","white","white","white","white","white","white","black","black","white","black","white","white","white","white","black","white","black","white","white","white","black","white","white","white","white","black","black","black","black","black","white","black","white","black","black","black","white","white","white","white","black","white","black","white","white","black","black","black","white","white","black","black","black","black","white","black","black","black","black","black","black","black","white","white","black","white","black","white","black","white","black","white","black","white","black","white","black","black","white","black","black","black","white","black","white","white","black","white","black","black","white","black","black","white","black","white","black","white","black","white","black","white","white","white","black","black","white","black","white","white","white","black","black","white","black","white","black","black","black","black","white","black","black","black","black","black","black","white","white","white","white","white","black","black","white","black","black","white","black","black","white","black","white","black","white","white","black","black","white","white","white"],"dot_shape":"circle","background_color":"#AAA","RDK_type":3,"aperture_type":2,"reinsert_type":2,"frame_rate":16.570247933884296,"frame_rate_array":[3,13,17,16,17,17,17,17,16,16,17,17,16,17,16,17,16,17,17,17,16,17,17,17,17,17,17,16,17,17,17,16,16,17,17,16,17,17,17,17,16,17,16,17,16,17,17,17,17,15,16,17,18,16,17,16,18,16,17,17,16,17,17,16,16,20,15,16,16,18,16,16,17,16,17,17,17,17,16,17,17,16,17,17,17,17,17,16,17,16,18,16,17,16,16,18,18,16,17,16,17,17,17,17,17,16,18,16,17,16,17,16,16,17,17,17,18,17,16,17,17],"number_of_frames":121,"aperture_center_x":768,"aperture_center_y":432,"fixation_cross":true,"fixation_cross_width":15,"fixation_cross_height":15,"fixation_cross_color":"#111","fixation_cross_thickness":1,"border":true,"border_thickness":2,"border_color":"transparent","canvas_width":1536,"canvas_height":864,"trial_type":"rdk","trial_index":96,"plugin_version":"2.0.0","time_elapsed":262700},{"rt":3011,"stimulus":"\n        <div class=\"response-container\">\n          <div class=\"response-instruction\">\n            <p>rotate the bar by using the left and right arrow keys.</p>\n            <p>when you are determined, press the Enter key.</p>\n          </div>\n          <div class=\"response-circle\">\n            <div class=\"response-fixation\"></div>\n            <div id=\"bar\" class=\"rotating-bar\"></div>\n          </div>\n        </div>\n      ","response":"Enter","trial_type":"html-keyboard-response","trial_index":97,"plugin_version":"2.1.0","time_elapsed":265713,"random_initial_angle":8,"response_angle_css":169,"response_angle_rdk":281,"angular_error_target":112,"angular_error_distractor":12,"target_direction":169,"target_group":"black","reward_points":0},{"rt":null,"stimulus":"\n          <p style=\"color: #FF3333;\">Your reward: 0 points</p>\n        ","response":null,"trial_type":"html-keyboard-response","trial_index":98,"plugin_version":"2.1.0","time_elapsed":267718},{"rt":null,"stimulus":"<div class=\"fixation\" style=\"font-size: 60px;\">+</div>","response":null,"trial_type":"html-keyboard-response","trial_index":99,"plugin_version":"2.1.0","time_elapsed":268721},{"phase":"learning-awareness","target_group":"black","condition_label":"B_H_vs_W_L_rep7","target_direction":166,"distractor_direction":277,"session_rotation":59,"rt":-1,"response":"","correct":false,"choices":"ALL_KEYS","correct_choice":["a"],"trial_duration":2000,"flip_timestamps":[],"response_ends_trial":false,"number_of_apertures":200,"number_of_dots":[1,1,1,1,1,1,1,1,1,1,1,1,1,1,1,1,1,1,1,1,1,1,1,1,1,1,1,1,1,1,1,1,1,1,1,1,1,1,1,1,1,1,1,1,1,1,1,1,1,1,1,1,1,1,1,1,1,1,1,1,1,1,1,1,1,1,1,1,1,1,1,1,1,1,1,1,1,1,1,1,1,1,1,1,1,1,1,1,1,1,1,1,1,1,1,1,1,1,1,1,1,1,1,1,1,1,1,1,1,1,1,1,1,1,1,1,1,1,1,1,1,1,1,1,1,1,1,1,1,1,1,1,1,1,1,1,1,1,1,1,1,1,1,1,1,1,1,1,1,1,1,1,1,1,1,1,1,1,1,1,1,1,1,1,1,1,1,1,1,1,1,1,1,1,1,1,1,1,1,1,1,1,1,1,1,1,1,1,1,1,1,1,1,1,1,1,1,1,1,1],"number_of_sets":1,"coherent_direction":[277,166,166,166,277,277,277,166,277,166,277,166,277,166,166,277,166,277,166,277,166,166,166,277,277,277,166,166,277,277,277,277,166,166,166,277,277,166,166,277,166,277,166,166,277,166,166,166,277,277,166,166,166,166,277,277,166,166,166,166,277,166,277,277,277,277,166,277,277,166,166,277,166,277,277,277,166,166,277,277,277,166,166,166,277,277,166,166,277,277,166,166,166,277,277,277,166,166,277,277,277,277,166,277,277,277,166,277,277,277,277,166,166,277,166,166,166,277,277,166,277,166,166,277,166,277,277,277,166,166,166,166,277,277,166,277,277,277,166,277,277,166,277,166,166,166,166,166,166,277,277,166,166,277,166,277,166,166,166,166,166,166,166,277,277,277,277,277,166,166,277,166,277,277,277,166,277,166,277,277,277,277,277,277,166,277,166,166,166,166,166,166,166,166,277,277,277,277,277,166],"coherence":1,"opposite_coherence":0,"dot_radius":2,"dot_side_length":1,"dot_life":-1,"move_distance":1,"aperture_width":300,"aperture_height":300,"dot_color":["white","black","black","black","white","white","white","black","white","black","white","black","white","black","black","white","black","white","black","white","black","black","black","white","white","white","black","black","white","white","white","white","black","black","black","white","white","black","black","white","black","white","black","black","white","black","black","black","white","white","black","black","black","black","white","white","black","black","black","black","white","black","white","white","white","white","black","white","white","black","black","white","black","white","white","white","black","black","white","white","white","black","black","black","white","white","black","black","white","white","black","black","black","white","white","white","black","black","white","white","white","white","black","white","white","white","black","white","white","white","white","black","black","white","black","black","black","white","white","black","white","black","black","white","black","white","white","white","black","black","black","black","white","white","black","white","white","white","black","white","white","black","white","black","black","black","black","black","black","white","white","black","black","white","black","white","black","black","black","black","black","black","black","white","white","white","white","white","black","black","white","black","white","white","white","black","white","black","white","white","white","white","white","white","black","white","black","black","black","black","black","black","black","black","white","white","white","white","white","black"],"dot_shape":"circle","background_color":"#AAA","RDK_type":3,"aperture_type":2,"reinsert_type":2,"frame_rate":16.666666666666668,"frame_rate_array":[5,17,16,17,18,16,17,17,16,17,16,17,17,17,17,17,17,15,17,17,16,17,18,16,18,16,16,17,17,17,16,17,17,19,15,16,17,17,17,17,17,17,16,16,17,17,17,17,16,18,17,16,17,17,16,17,17,17,18,17,15,17,16,17,18,17,17,16,17,15,17,17,17,17,19,15,17,16,17,16,17,17,18,16,16,18,16,17,16,17,17,17,16,16,17,17,17,17,18,16,17,17,17,17,18,16,17,15,16,17,16,18,15,17,17,17,17,17,17,17],"number_of_frames":120,"aperture_center_x":768,"aperture_center_y":432,"fixation_cross":true,"fixation_cross_width":15,"fixation_cross_height":15,"fixation_cross_color":"#111","fixation_cross_thickness":1,"border":true,"border_thickness":2,"border_color":"transparent","canvas_width":1536,"canvas_height":864,"trial_type":"rdk","trial_index":100,"plugin_version":"2.0.0","time_elapsed":270731},{"rt":2005,"stimulus":"\n        <div class=\"response-container\">\n          <div class=\"response-instruction\">\n            <p>rotate the bar by using the left and right arrow keys.</p>\n            <p>when you are determined, press the Enter key.</p>\n          </div>\n          <div class=\"response-circle\">\n            <div class=\"response-fixation\"></div>\n            <div id=\"bar\" class=\"rotating-bar\"></div>\n          </div>\n        </div>\n      ","response":"Enter","trial_type":"html-keyboard-response","trial_index":101,"plugin_version":"2.1.0","time_elapsed":272737,"random_initial_angle":324,"response_angle_css":272,"response_angle_rdk":178,"angular_error_target":12,"angular_error_distractor":-99,"target_direction":166,"target_group":"black","reward_points":7},{"rt":null,"stimulus":"\n          <p style=\"color: #00FF00;\">Your reward: 7 points</p>\n        ","response":null,"trial_type":"html-keyboard-response","trial_index":102,"plugin_version":"2.1.0","time_elapsed":274740},{"rt":null,"stimulus":"<div class=\"fixation\" style=\"font-size: 60px;\">+</div>","response":null,"trial_type":"html-keyboard-response","trial_index":103,"plugin_version":"2.1.0","time_elapsed":275756},{"phase":"learning-awareness","target_group":"black","condition_label":"B_H_vs_W_L_rep16","target_direction":164,"distractor_direction":254,"session_rotation":59,"rt":-1,"response":"","correct":false,"choices":"ALL_KEYS","correct_choice":["a"],"trial_duration":2000,"flip_timestamps":[],"response_ends_trial":false,"number_of_apertures":200,"number_of_dots":[1,1,1,1,1,1,1,1,1,1,1,1,1,1,1,1,1,1,1,1,1,1,1,1,1,1,1,1,1,1,1,1,1,1,1,1,1,1,1,1,1,1,1,1,1,1,1,1,1,1,1,1,1,1,1,1,1,1,1,1,1,1,1,1,1,1,1,1,1,1,1,1,1,1,1,1,1,1,1,1,1,1,1,1,1,1,1,1,1,1,1,1,1,1,1,1,1,1,1,1,1,1,1,1,1,1,1,1,1,1,1,1,1,1,1,1,1,1,1,1,1,1,1,1,1,1,1,1,1,1,1,1,1,1,1,1,1,1,1,1,1,1,1,1,1,1,1,1,1,1,1,1,1,1,1,1,1,1,1,1,1,1,1,1,1,1,1,1,1,1,1,1,1,1,1,1,1,1,1,1,1,1,1,1,1,1,1,1,1,1,1,1,1,1,1,1,1,1,1,1],"number_of_sets":1,"coherent_direction":[254,254,164,254,254,164,254,254,254,164,254,164,254,254,164,164,164,254,164,164,164,164,164,254,254,254,164,164,164,254,164,254,164,254,164,164,254,254,164,254,164,254,254,254,254,254,164,164,164,254,254,164,254,164,164,254,254,254,254,164,164,164,164,164,164,164,254,254,254,254,164,164,254,164,164,254,254,164,164,254,254,254,164,164,164,164,164,164,254,254,164,164,254,254,254,254,164,254,164,164,164,164,164,164,254,164,164,164,164,254,164,254,254,254,164,254,164,254,254,254,254,254,254,164,254,164,254,254,254,254,254,254,254,164,254,164,254,164,164,254,164,164,164,254,254,164,164,164,164,254,164,254,164,254,254,254,164,164,254,164,164,254,164,164,254,164,164,254,254,254,164,254,164,254,164,164,164,254,164,254,254,164,254,164,254,164,164,164,254,254,254,164,254,164,254,254,254,164,164,254],"coherence":1,"opposite_coherence":0,"dot_radius":2,"dot_side_length":1,"dot_life":-1,"move_distance":1,"aperture_width":300,"aperture_height":300,"dot_color":["white","white","black","white","white","black","white","white","white","black","white","black","white","white","black","black","black","white","black","black","black","black","black","white","white","white","black","black","black","white","black","white","black","white","black","black","white","white","black","white","black","white","white","white","white","white","black","black","black","white","white","black","white","black","black","white","white","white","white","black","black","black","black","black","black","black","white","white","white","white","black","black","white","black","black","white","white","black","black","white","white","white","black","black","black","black","black","black","white","white","black","black","white","white","white","white","black","white","black","black","black","black","black","black","white","black","black","black","black","white","black","white","white","white","black","white","black","white","white","white","white","white","white","black","white","black","white","white","white","white","white","white","white","black","white","black","white","black","black","white","black","black","black","white","white","black","black","black","black","white","black","white","black","white","white","white","black","black","white","black","black","white","black","black","white","black","black","white","white","white","black","white","black","white","black","black","black","white","black","white","white","black","white","black","white","black","black","black","white","white","white","black","white","black","white","white","white","black","black","white"],"dot_shape":"circle","background_color":"#AAA","RDK_type":3,"aperture_type":2,"reinsert_type":2,"frame_rate":16.619834710743802,"frame_rate_array":[3,15,16,17,17,17,17,17,17,17,17,16,17,17,17,17,17,17,17,17,17,16,17,16,17,17,16,17,17,17,17,17,16,16,16,18,16,17,16,18,16,17,16,17,17,16,17,17,17,17,16,16,19,14,17,17,16,17,17,17,17,17,16,17,17,17,17,17,15,17,17,16,17,16,17,17,17,17,17,18,16,16,17,16,17,17,17,17,17,17,16,17,17,17,17,16,17,16,17,16,17,17,16,18,16,17,18,16,17,17,16,17,16,16,17,17,17,17,17,17,17],"number_of_frames":121,"aperture_center_x":768,"aperture_center_y":432,"fixation_cross":true,"fixation_cross_width":15,"fixation_cross_height":15,"fixation_cross_color":"#111","fixation_cross_thickness":1,"border":true,"border_thickness":2,"border_color":"transparent","canvas_width":1536,"canvas_height":864,"trial_type":"rdk","trial_index":104,"plugin_version":"2.0.0","time_elapsed":277766},{"rt":3385,"stimulus":"\n        <div class=\"response-container\">\n          <div class=\"response-instruction\">\n            <p>rotate the bar by using the left and right arrow keys.</p>\n            <p>when you are determined, press the Enter key.</p>\n          </div>\n          <div class=\"response-circle\">\n            <div class=\"response-fixation\"></div>\n            <div id=\"bar\" class=\"rotating-bar\"></div>\n          </div>\n        </div>\n      ","response":"Enter","trial_type":"html-keyboard-response","trial_index":105,"plugin_version":"2.1.0","time_elapsed":281153,"random_initial_angle":131,"response_angle_css":-66,"response_angle_rdk":156,"angular_error_target":-8,"angular_error_distractor":-98,"target_direction":164,"target_group":"black","reward_points":8},{"rt":null,"stimulus":"\n          <p style=\"color: #00FF00;\">Your reward: 8 points</p>\n        ","response":null,"trial_type":"html-keyboard-response","trial_index":106,"plugin_version":"2.1.0","time