[{"rt":3771,"stimulus":"Welcome to the experiment. Press any key to begin.","response":" ","trial_type":"html-keyboard-response","trial_index":0,"plugin_version":"2.1.0","time_elapsed":3773},{"rt":75424,"stimulus":"\n        <div class=\"instructions-container\">\n          <h2>Instructions</h2>\n\n          <p>\n          In this experiment, you will see <strong>two Random Dot Kinematograms (RDKs)</strong> displayed simultaneously.\n          </p>\n\n          <p>\n          An RDK is a visual stimulus consisting of many small dots that move coherently in a single direction. \n          In this experiment, the dots will be either <strong>white</strong> or <strong>black</strong> \n          (see the short demo below for an example of an RDK stimulus).\n          </p>\n\n          <p>\n          On each trial, the two RDKs will move in different directions. \n          Your task is to decide <strong>which RDK appears to contain more dots</strong>.\n          </p>\n\n          <p>\n          The RDK that you judge to have more dots is called the <strong>target RDK</strong>. \n          For example, if the white RDK appears to have more dots than the black RDK, \n          you should report the motion direction of the white RDK.\n          </p>\n\n          <p>\n          After viewing the RDKs, you will rotate a bar to indicate the perceived direction of the target RDK \n          using the <strong>left</strong> and <strong>right arrow keys</strong>. \n          Press <strong>Enter</strong> when you are satisfied with your response.\n          When the bar is held down, the rotation speed increases.\n          </p>\n\n          <p>\n          You will receive points based on the <strong>accuracy of your response</strong>, \n          and your final <strong>bonus reward</strong> may depend on your overall performance. \n          Please try to respond as accurately as possible.\n          </p>\n\n          <p>\n          You will first complete <strong>16 practice trials</strong>. \n          Press the <strong>Enter</strong> key to start the practice phase.\n          </p>\n\n          <canvas id=\"instruction-demo-rdk\" width=\"200\" height=\"200\"style=\"display:block;margin:12px auto; border-radius: 50%;\"></canvas>\n        </div>\n      ","response":"Enter","trial_type":"html-keyboard-response","trial_index":1,"plugin_version":"2.1.0","time_elapsed":79198},{"rt":null,"stimulus":"<div class=\"fixation\" style=\"font-size: 60px;\">+</div>","response":null,"trial_type":"html-keyboard-response","trial_index":2,"plugin_version":"2.1.0","time_elapsed":80200},{"target_group":"black","target_index":1,"condition_label":"practice","rt":-1,"response":"","correct":false,"choices":"ALL_KEYS","correct_choice":["a"],"trial_duration":2000,"flip_timestamps":[],"response_ends_trial":false,"number_of_apertures":2,"number_of_dots":[62,100],"number_of_sets":1,"coherent_direction":[343,124],"coherence":1,"opposite_coherence":0,"dot_radius":2,"dot_side_length":1,"dot_life":-1,"move_distance":1,"aperture_width":300,"aperture_height":300,"dot_color":["white","black"],"dot_shape":"circle","background_color":"#AAA","RDK_type":3,"aperture_type":2,"reinsert_type":2,"frame_rate":16.658333333333335,"frame_rate_array":[8,17,16,17,16,17,17,17,16,17,17,16,17,17,17,17,16,17,17,16,17,17,17,17,17,16,16,17,16,16,17,16,17,17,16,17,17,17,17,17,17,17,17,17,16,17,17,17,17,17,17,17,16,17,17,17,16,17,16,17,17,16,17,17,17,16,16,17,17,17,16,17,17,17,16,17,16,17,17,17,16,18,16,16,17,17,16,18,16,17,16,17,17,17,17,16,18,16,16,17,17,17,17,17,16,17,17,17,17,17,16,17,17,16,17,17,16,17,17,17],"number_of_frames":120,"aperture_center_x":614.5,"aperture_center_y":346,"fixation_cross":true,"fixation_cross_width":15,"fixation_cross_height":15,"fixation_cross_color":"#111","fixation_cross_thickness":1,"border":true,"border_thickness":2,"border_color":"transparent","canvas_width":1229,"canvas_height":692,"trial_type":"rdk","trial_index":3,"plugin_version":"2.0.0","time_elapsed":82207,"phase":"practice","target_direction":124,"distractor_direction":343},{"rt":10337,"stimulus":"\n        <div class=\"response-container\">\n          <div class=\"response-instruction\">\n            <p>rotate the bar by using the left and right arrow keys.</p>\n            <p>when you are determined, press the Enter key.</p>\n          </div>\n          <div class=\"response-circle\">\n            <div class=\"response-fixation\"></div>\n            <div id=\"bar\" class=\"rotating-bar\"></div>\n          </div>\n        </div>\n      ","response":"Enter","trial_type":"html-keyboard-response","trial_index":4,"plugin_version":"2.1.0","time_elapsed":92544,"random_initial_angle":43,"response_angle_css":-40,"response_angle_rdk":130,"angular_error_target":6,"angular_error_distractor":147,"target_direction":124,"target_group":"black","reward_points":8},{"rt":null,"stimulus":"\n          <p style=\"color: #00FF00;\">Your reward: 8 points</p>\n        ","response":null,"trial_type":"html-keyboard-response","trial_index":5,"plugin_version":"2.1.0","time_elapsed":94554},{"rt":null,"stimulus":"<div class=\"fixation\" style=\"font-size: 60px;\">+</div>","response":null,"trial_type":"html-keyboard-response","trial_index":6,"plugin_version":"2.1.0","time_elapsed":95566},{"target_group":"white","target_index":0,"condition_label":"practice","rt":-1,"response":"","correct":false,"choices":"ALL_KEYS","correct_choice":["a"],"trial_duration":2000,"flip_timestamps":[],"response_ends_trial":false,"number_of_apertures":2,"number_of_dots":[100,94],"number_of_sets":1,"coherent_direction":[20,251],"coherence":1,"opposite_coherence":0,"dot_radius":2,"dot_side_length":1,"dot_life":-1,"move_distance":1,"aperture_width":300,"aperture_height":300,"dot_color":["white","black"],"dot_shape":"circle","background_color":"#AAA","RDK_type":3,"aperture_type":2,"reinsert_type":2,"frame_rate":16.75,"frame_rate_array":[8,16,17,17,17,17,17,16,17,17,16,17,17,17,17,17,17,17,17,17,17,17,17,17,17,17,17,17,17,17,16,17,17,16,17,17,17,16,17,17,16,17,17,16,17,17,16,17,16,17,17,17,17,17,17,16,17,16,17,17,17,16,17,16,16,17,17,17,17,17,17,17,17,17,17,17,17,17,17,17,17,17,16,17,17,17,17,17,17,16,17,17,17,17,17,17,17,17,17,17,17,17,17,16,17,17,17,17,17,17,17,17,16,17,16,17,17,17,16,17],"number_of_frames":120,"aperture_center_x":614.5,"aperture_center_y":346,"fixation_cross":true,"fixation_cross_width":15,"fixation_cross_height":15,"fixation_cross_color":"#111","fixation_cross_thickness":1,"border":true,"border_thickness":2,"border_color":"transparent","canvas_width":1229,"canvas_height":692,"trial_type":"rdk","trial_index":7,"plugin_version":"2.0.0","time_elapsed":97575,"phase":"practice","target_direction":20,"distractor_direction":251},{"rt":4721,"stimulus":"\n        <div class=\"response-container\">\n          <div class=\"response-instruction\">\n            <p>rotate the bar by using the left and right arrow keys.</p>\n            <p>when you are determined, press the Enter key.</p>\n          </div>\n          <div class=\"response-circle\">\n            <div class=\"response-fixation\"></div>\n            <div id=\"bar\" class=\"rotating-bar\"></div>\n          </div>\n        </div>\n      ","response":"Enter","trial_type":"html-keyboard-response","trial_index":8,"plugin_version":"2.1.0","time_elapsed":102297,"random_initial_angle":153,"response_angle_css":216,"response_angle_rdk":234,"angular_error_target":-146,"angular_error_distractor":-17,"target_direction":20,"target_group":"white","reward_points":0},{"rt":null,"stimulus":"\n          <p style=\"color: #FF3333;\">Your reward: 0 points</p>\n        ","response":null,"trial_type":"html-keyboard-response","trial_index":9,"plugin_version":"2.1.0","time_elapsed":104310},{"rt":null,"stimulus":"<div class=\"fixation\" style=\"font-size: 60px;\">+</div>","response":null,"trial_type":"html-keyboard-response","trial_index":10,"plugin_version":"2.1.0","time_elapsed":105325},{"target_group":"white","target_index":0,"condition_label":"practice","rt":-1,"response":"","correct":false,"choices":"ALL_KEYS","correct_choice":["a"],"trial_duration":2000,"flip_timestamps":[],"response_ends_trial":false,"number_of_apertures":2,"number_of_dots":[100,66],"number_of_sets":1,"coherent_direction":[272,155],"coherence":1,"opposite_coherence":0,"dot_radius":2,"dot_side_length":1,"dot_life":-1,"move_distance":1,"aperture_width":300,"aperture_height":300,"dot_color":["white","black"],"dot_shape":"circle","background_color":"#AAA","RDK_type":3,"aperture_type":2,"reinsert_type":2,"frame_rate":16.725,"frame_rate_array":[17,16,17,17,17,17,16,17,16,17,17,17,16,17,17,17,17,17,17,16,17,17,17,17,16,18,15,17,17,17,16,17,17,16,17,16,17,17,17,16,17,16,17,17,16,17,17,17,16,18,17,16,17,16,17,17,16,17,17,16,16,17,17,16,17,17,16,17,17,16,17,17,16,17,16,17,17,16,17,17,17,16,17,16,17,17,16,17,17,16,17,16,17,17,17,17,16,17,17,17,16,17,17,17,17,17,17,17,17,17,17,16,17,17,16,17,17,17,17,17],"number_of_frames":120,"aperture_center_x":614.5,"aperture_center_y":346,"fixation_cross":true,"fixation_cross_width":15,"fixation_cross_height":15,"fixation_cross_color":"#111","fixation_cross_thickness":1,"border":true,"border_thickness":2,"border_color":"transparent","canvas_width":1229,"canvas_height":692,"trial_type":"rdk","trial_index":11,"plugin_version":"2.0.0","time_elapsed":107326,"phase":"practice","target_direction":272,"distractor_direction":155},{"rt":5315,"stimulus":"\n        <div class=\"response-container\">\n          <div class=\"response-instruction\">\n            <p>rotate the bar by using the left and right arrow keys.</p>\n            <p>when you are determined, press the Enter key.</p>\n          </div>\n          <div class=\"response-circle\">\n            <div class=\"response-fixation\"></div>\n            <div id=\"bar\" class=\"rotating-bar\"></div>\n          </div>\n        </div>\n      ","response":"Enter","trial_type":"html-keyboard-response","trial_index":12,"plugin_version":"2.1.0","time_elapsed":112642,"random_initial_angle":85,"response_angle_css":128,"response_angle_rdk":322,"angular_error_target":50,"angular_error_distractor":167,"target_direction":272,"target_group":"white","reward_points":0},{"rt":null,"stimulus":"\n          <p style=\"color: #FF3333;\">Your reward: 0 points</p>\n        ","response":null,"trial_type":"html-keyboard-response","trial_index":13,"plugin_version":"2.1.0","time_elapsed":114652},{"rt":null,"stimulus":"<div class=\"fixation\" style=\"font-size: 60px;\">+</div>","response":null,"trial_type":"html-keyboard-response","trial_index":14,"plugin_version":"2.1.0","time_elapsed":115663},{"target_group":"white","target_index":0,"condition_label":"practice","rt":-1,"response":"","correct":false,"choices":"ALL_KEYS","correct_choice":["a"],"trial_duration":2000,"flip_timestamps":[],"response_ends_trial":false,"number_of_apertures":2,"number_of_dots":[100,53],"number_of_sets":1,"coherent_direction":[335,82],"coherence":1,"opposite_coherence":0,"dot_radius":2,"dot_side_length":1,"dot_life":-1,"move_distance":1,"aperture_width":300,"aperture_height":300,"dot_color":["white","black"],"dot_shape":"circle","background_color":"#AAA","RDK_type":3,"aperture_type":2,"reinsert_type":2,"frame_rate":16.733333333333334,"frame_rate_array":[11,17,17,17,16,17,17,16,17,17,17,17,17,17,17,17,17,17,17,17,17,17,17,17,17,16,17,17,16,17,17,16,17,17,16,17,17,16,17,17,16,17,17,16,17,16,17,17,16,17,17,17,17,17,17,17,17,17,17,17,16,17,17,17,17,17,17,16,17,17,17,17,17,17,17,17,16,17,17,16,17,17,17,17,17,17,17,17,17,17,17,17,17,17,16,17,17,16,17,17,16,17,17,16,17,16,16,17,17,16,17,17,16,17,16,16,17,17,16,17],"number_of_frames":120,"aperture_center_x":614.5,"aperture_center_y":346,"fixation_cross":true,"fixation_cross_width":15,"fixation_cross_height":15,"fixation_cross_color":"#111","fixation_cross_thickness":1,"border":true,"border_thickness":2,"border_color":"transparent","canvas_width":1229,"canvas_height":692,"trial_type":"rdk","trial_index":15,"plugin_version":"2.0.0","time_elapsed":117673,"phase":"practice","target_direction":335,"distractor_direction":82},{"rt":3035,"stimulus":"\n        <div class=\"response-container\">\n          <div class=\"response-instruction\">\n            <p>rotate the bar by using the left and right arrow keys.</p>\n            <p>when you are determined, press the Enter key.</p>\n          </div>\n          <div class=\"response-circle\">\n            <div class=\"response-fixation\"></div>\n            <div id=\"bar\" class=\"rotating-bar\"></div>\n          </div>\n        </div>\n      ","response":"Enter","trial_type":"html-keyboard-response","trial_index":16,"plugin_version":"2.1.0","time_elapsed":120709,"random_initial_angle":28,"response_angle_css":28,"response_angle_rdk":62,"angular_error_target":87,"angular_error_distractor":-20,"target_direction":335,"target_group":"white","reward_points":0},{"rt":null,"stimulus":"\n          <p style=\"color: #FF3333;\">Your reward: 0 points</p>\n        ","response":null,"trial_type":"html-keyboard-response","trial_index":17,"plugin_version":"2.1.0","time_elapsed":122717},{"rt":null,"stimulus":"<div class=\"fixation\" style=\"font-size: 60px;\">+</div>","response":null,"trial_type":"html-keyboard-response","trial_index":18,"plugin_version":"2.1.0","time_elapsed":123733},{"target_group":"white","target_index":0,"condition_label":"practice","rt":-1,"response":"","correct":false,"choices":"ALL_KEYS","correct_choice":["a"],"trial_duration":2000,"flip_timestamps":[],"response_ends_trial":false,"number_of_apertures":2,"number_of_dots":[100,51],"number_of_sets":1,"coherent_direction":[42,220],"coherence":1,"opposite_coherence":0,"dot_radius":2,"dot_side_length":1,"dot_life":-1,"move_distance":1,"aperture_width":300,"aperture_height":300,"dot_color":["white","black"],"dot_shape":"circle","background_color":"#AAA","RDK_type":3,"aperture_type":2,"reinsert_type":2,"frame_rate":16.775,"frame_rate_array":[7,17,17,17,17,17,17,17,17,17,17,17,17,16,17,17,17,18,15,17,17,17,17,17,17,17,17,17,17,17,17,17,17,16,17,17,17,16,17,17,17,17,17,16,17,17,17,16,17,16,17,17,17,16,17,17,17,17,17,17,17,17,17,17,17,17,17,17,16,17,17,17,17,17,17,17,17,17,17,17,16,17,17,17,17,17,17,16,17,17,17,17,17,17,17,16,17,17,17,17,16,17,17,17,16,17,17,16,17,17,16,17,17,17,16,17,17,17,17,17],"number_of_frames":120,"aperture_center_x":614.5,"aperture_center_y":346,"fixation_cross":true,"fixation_cross_width":15,"fixation_cross_height":15,"fixation_cross_color":"#111","fixation_cross_thickness":1,"border":true,"border_thickness":2,"border_color":"transparent","canvas_width":1229,"canvas_height":692,"trial_type":"rdk","trial_index":19,"plugin_version":"2.0.0","time_elapsed":125735,"phase":"practice","target_direction":42,"distractor_direction":220},{"rt":9033,"stimulus":"\n        <div class=\"response-container\">\n          <div class=\"response-instruction\">\n            <p>rotate the bar by using the left and right arrow keys.</p>\n            <p>when you are determined, press the Enter key.</p>\n          </div>\n          <div class=\"response-circle\">\n            <div class=\"response-fixation\"></div>\n            <div id=\"bar\" class=\"rotating-bar\"></div>\n          </div>\n        </div>\n      ","response":"Enter","trial_type":"html-keyboard-response","trial_index":20,"plugin_version":"2.1.0","time_elapsed":134768,"random_initial_angle":177,"response_angle_css":42,"response_angle_rdk":48,"angular_error_target":6,"angular_error_distractor":-172,"target_direction":42,"target_group":"white","reward_points":8},{"rt":null,"stimulus":"\n          <p style=\"color: #00FF00;\">Your reward: 8 points</p>\n        ","response":null,"trial_type":"html-keyboard-response","trial_index":21,"plugin_version":"2.1.0","time_elapsed":136779},{"rt":null,"stimulus":"<div class=\"fixation\" style=\"font-size: 60px;\">+</div>","response":null,"trial_type":"html-keyboard-response","trial_index":22,"plugin_version":"2.1.0","time_elapsed":137794},{"target_group":"black","target_index":1,"condition_label":"practice","rt":-1,"response":"","correct":false,"choices":"ALL_KEYS","correct_choice":["a"],"trial_duration":2000,"flip_timestamps":[],"response_ends_trial":false,"number_of_apertures":2,"number_of_dots":[96,100],"number_of_sets":1,"coherent_direction":[137,35],"coherence":1,"opposite_coherence":0,"dot_radius":2,"dot_side_length":1,"dot_life":-1,"move_distance":1,"aperture_width":300,"aperture_height":300,"dot_color":["white","black"],"dot_shape":"circle","background_color":"#AAA","RDK_type":3,"aperture_type":2,"reinsert_type":2,"frame_rate":16.768595041322314,"frame_rate_array":[12,17,17,17,16,17,17,16,16,17,17,17,17,17,17,17,16,17,17,17,17,17,16,17,17,17,17,17,17,17,17,17,17,17,17,16,17,16,17,17,17,16,18,16,17,17,17,17,17,17,17,17,16,17,17,16,17,17,16,17,17,16,16,17,16,17,17,16,17,17,16,17,17,16,17,17,16,17,17,17,17,16,17,17,17,17,17,17,17,17,17,17,17,17,17,17,16,17,17,17,17,17,17,16,17,17,16,17,17,17,17,17,17,17,17,16,17,17,17,17,17],"number_of_frames":121,"aperture_center_x":614.5,"aperture_center_y":346,"fixation_cross":true,"fixation_cross_width":15,"fixation_cross_height":15,"fixation_cross_color":"#111","fixation_cross_thickness":1,"border":true,"border_thickness":2,"border_color":"transparent","canvas_width":1229,"canvas_height":692,"trial_type":"rdk","trial_index":23,"plugin_version":"2.0.0","time_elapsed":139808,"phase":"practice","target_direction":35,"distractor_direction":137},{"rt":4763,"stimulus":"\n        <div class=\"response-container\">\n          <div class=\"response-instruction\">\n            <p>rotate the bar by using the left and right arrow keys.</p>\n            <p>when you are determined, press the Enter key.</p>\n          </div>\n          <div class=\"response-circle\">\n            <div class=\"response-fixation\"></div>\n            <div id=\"bar\" class=\"rotating-bar\"></div>\n          </div>\n        </div>\n      ","response":"Enter","trial_type":"html-keyboard-response","trial_index":24,"plugin_version":"2.1.0","time_elapsed":144571,"random_initial_angle":128,"response_angle_css":85,"response_angle_rdk":5,"angular_error_target":-30,"angular_error_distractor":-132,"target_direction":35,"target_group":"black","reward_points":4},{"rt":null,"stimulus":"\n          <p style=\"color: #00FF00;\">Your reward: 4 points</p>\n        ","response":null,"trial_type":"html-keyboard-response","trial_index":25,"plugin_version":"2.1.0","time_elapsed":146576},{"rt":null,"stimulus":"<div class=\"fixation\" style=\"font-size: 60px;\">+</div>","response":null,"trial_type":"html-keyboard-response","trial_index":26,"plugin_version":"2.1.0","time_elapsed":147592},{"target_group":"white","target_index":0,"condition_label":"practice","rt":-1,"response":"","correct":false,"choices":"ALL_KEYS","correct_choice":["a"],"trial_duration":2000,"flip_timestamps":[],"response_ends_trial":false,"number_of_apertures":2,"number_of_dots":[100,99],"number_of_sets":1,"coherent_direction":[0,211],"coherence":1,"opposite_coherence":0,"dot_radius":2,"dot_side_length":1,"dot_life":-1,"move_distance":1,"aperture_width":300,"aperture_height":300,"dot_color":["white","black"],"dot_shape":"circle","background_color":"#AAA","RDK_type":3,"aperture_type":2,"reinsert_type":2,"frame_rate":16.8,"frame_rate_array":[15,16,17,17,17,17,17,17,17,17,17,17,17,17,17,16,17,17,17,16,17,17,17,17,17,17,17,17,17,17,17,16,17,16,17,17,17,16,16,17,17,17,17,17,17,16,17,17,17,17,17,17,16,18,16,17,17,16,16,17,17,16,17,17,16,18,16,16,18,16,16,17,16,17,17,17,17,17,17,17,17,17,17,17,17,17,17,16,17,17,17,17,17,17,16,17,17,17,17,17,17,17,17,17,17,17,17,16,17,17,17,17,16,17,17,16,17,16,17,17],"number_of_frames":120,"aperture_center_x":614.5,"aperture_center_y":346,"fixation_cross":true,"fixation_cross_width":15,"fixation_cross_height":15,"fixation_cross_color":"#111","fixation_cross_thickness":1,"border":true,"border_thickness":2,"border_color":"transparent","canvas_width":1229,"canvas_height":692,"trial_type":"rdk","trial_index":27,"plugin_version":"2.0.0","time_elapsed":149605,"phase":"practice","target_direction":0,"distractor_direction":211},{"rt":3366,"stimulus":"\n        <div class=\"response-container\">\n          <div class=\"response-instruction\">\n            <p>rotate the bar by using the left and right arrow keys.</p>\n            <p>when you are determined, press the Enter key.</p>\n          </div>\n          <div class=\"response-circle\">\n            <div class=\"response-fixation\"></div>\n            <div id=\"bar\" class=\"rotating-bar\"></div>\n          </div>\n        </div>\n      ","response":"Enter","trial_type":"html-keyboard-response","trial_index":28,"plugin_version":"2.1.0","time_elapsed":152972,"random_initial_angle":291,"response_angle_css":241,"response_angle_rdk":209,"angular_error_target":-151,"angular_error_distractor":-2,"target_direction":0,"target_group":"white","reward_points":0},{"rt":null,"stimulus":"\n          <p style=\"color: #FF3333;\">Your reward: 0 points</p>\n        ","response":null,"trial_type":"html-keyboard-response","trial_index":29,"plugin_version":"2.1.0","time_elapsed":154987},{"rt":null,"stimulus":"<div class=\"fixation\" style=\"font-size: 60px;\">+</div>","response":null,"trial_type":"html-keyboard-response","trial_index":30,"plugin_version":"2.1.0","time_elapsed":155991},{"target_group":"black","target_index":1,"condition_label":"practice","rt":-1,"response":"","correct":false,"choices":"ALL_KEYS","correct_choice":["a"],"trial_duration":2000,"flip_timestamps":[],"response_ends_trial":false,"number_of_apertures":2,"number_of_dots":[73,100],"number_of_sets":1,"coherent_direction":[94,287],"coherence":1,"opposite_coherence":0,"dot_radius":2,"dot_side_length":1,"dot_life":-1,"move_distance":1,"aperture_width":300,"aperture_height":300,"dot_color":["white","black"],"dot_shape":"circle","background_color":"#AAA","RDK_type":3,"aperture_type":2,"reinsert_type":2,"frame_rate":16.783333333333335,"frame_rate_array":[14,17,17,17,17,17,17,17,17,17,17,17,17,17,17,17,17,17,17,16,17,17,16,17,17,17,17,17,17,17,16,16,17,17,17,17,17,16,17,17,17,17,16,17,17,16,17,17,17,17,17,17,16,17,17,17,17,17,16,17,17,17,17,17,17,17,16,17,17,17,16,17,17,16,17,17,17,17,17,17,17,17,17,16,17,17,17,17,17,17,17,16,17,17,16,17,17,16,17,16,17,17,16,17,17,16,17,17,17,17,18,16,16,17,16,17,17,16,16,17],"number_of_frames":120,"aperture_center_x":614.5,"aperture_center_y":346,"fixation_cross":true,"fixation_cross_width":15,"fixation_cross_height":15,"fixation_cross_color":"#111","fixation_cross_thickness":1,"border":true,"border_thickness":2,"border_color":"transparent","canvas_width":1229,"canvas_height":692,"trial_type":"rdk","trial_index":31,"plugin_version":"2.0.0","time_elapsed":157997,"phase":"practice","target_direction":287,"distractor_direction":94},{"rt":4747,"stimulus":"\n        <div class=\"response-container\">\n          <div class=\"response-instruction\">\n            <p>rotate the bar by using the left and right arrow keys.</p>\n            <p>when you are determined, press the Enter key.</p>\n          </div>\n          <div class=\"response-circle\">\n            <div class=\"response-fixation\"></div>\n            <div id=\"bar\" class=\"rotating-bar\"></div>\n          </div>\n        </div>\n      ","response":"Enter","trial_type":"html-keyboard-response","trial_index":32,"plugin_version":"2.1.0","time_elapsed":162745,"random_initial_angle":275,"response_angle_css":177,"response_angle_rdk":273,"angular_error_target":-14,"angular_error_distractor":179,"target_direction":287,"target_group":"black","reward_points":7},{"rt":null,"stimulus":"\n          <p style=\"color: #00FF00;\">Your reward: 7 points</p>\n        ","response":null,"trial_type":"html-keyboard-response","trial_index":33,"plugin_version":"2.1.0","time_elapsed":164748},{"rt":null,"stimulus":"<div class=\"fixation\" style=\"font-size: 60px;\">+</div>","response":null,"trial_type":"html-keyboard-response","trial_index":34,"plugin_version":"2.1.0","time_elapsed":165760},{"target_group":"black","target_index":1,"condition_label":"practice","rt":-1,"response":"","correct":false,"choices":"ALL_KEYS","correct_choice":["a"],"trial_duration":2000,"flip_timestamps":[],"response_ends_trial":false,"number_of_apertures":2,"number_of_dots":[99,100],"number_of_sets":1,"coherent_direction":[209,333],"coherence":1,"opposite_coherence":0,"dot_radius":2,"dot_side_length":1,"dot_life":-1,"move_distance":1,"aperture_width":300,"aperture_height":300,"dot_color":["white","black"],"dot_shape":"circle","background_color":"#AAA","RDK_type":3,"aperture_type":2,"reinsert_type":2,"frame_rate":16.791666666666668,"frame_rate_array":[11,17,17,16,17,17,16,17,17,16,17,17,17,17,17,16,17,17,17,17,17,16,17,17,16,17,17,16,17,17,16,17,16,16,17,17,17,17,17,16,17,17,16,17,17,16,17,17,17,16,17,17,17,17,17,17,17,16,17,17,16,17,17,17,17,17,17,17,17,16,17,17,17,17,17,17,17,17,17,17,17,17,17,17,17,17,17,17,17,17,17,17,17,17,17,17,17,17,17,16,17,17,17,17,17,17,17,17,17,17,17,17,17,16,17,17,17,17,17,17],"number_of_frames":120,"aperture_center_x":614.5,"aperture_center_y":346,"fixation_cross":true,"fixation_cross_width":15,"fixation_cross_height":15,"fixation_cross_color":"#111","fixation_cross_thickness":1,"border":true,"border_thickness":2,"border_color":"transparent","canvas_width":1229,"canvas_height":692,"trial_type":"rdk","trial_index":35,"plugin_version":"2.0.0","time_elapsed":167763,"phase":"practice","target_direction":333,"distractor_direction":209},{"rt":5809,"stimulus":"\n        <div class=\"response-container\">\n          <div class=\"response-instruction\">\n            <p>rotate the bar by using the left and right arrow keys.</p>\n            <p>when you are determined, press the Enter key.</p>\n          </div>\n          <div class=\"response-circle\">\n            <div class=\"response-fixation\"></div>\n            <div id=\"bar\" class=\"rotating-bar\"></div>\n          </div>\n        </div>\n      ","response":"Enter","trial_type":"html-keyboard-response","trial_index":36,"plugin_version":"2.1.0","time_elapsed":173572,"random_initial_angle":176,"response_angle_css":92,"response_angle_rdk":358,"angular_error_target":25,"angular_error_distractor":149,"target_direction":333,"target_group":"black","reward_points":5},{"rt":null,"stimulus":"\n          <p style=\"color: #00FF00;\">Your reward: 5 points</p>\n        ","response":null,"trial_type":"html-keyboard-response","trial_index":37,"plugin_version":"2.1.0","time_elapsed":175580},{"rt":null,"stimulus":"<div class=\"fixation\" style=\"font-size: 60px;\">+</div>","response":null,"trial_type":"html-keyboard-response","trial_index":38,"plugin_version":"2.1.0","time_elapsed":176591},{"target_group":"black","target_index":1,"condition_label":"practice","rt":-1,"response":"","correct":false,"choices":"ALL_KEYS","correct_choice":["a"],"trial_duration":2000,"flip_timestamps":[],"response_ends_trial":false,"number_of_apertures":2,"number_of_dots":[54,100],"number_of_sets":1,"coherent_direction":[152,323],"coherence":1,"opposite_coherence":0,"dot_radius":2,"dot_side_length":1,"dot_life":-1,"move_distance":1,"aperture_width":300,"aperture_height":300,"dot_color":["white","black"],"dot_shape":"circle","background_color":"#AAA","RDK_type":3,"aperture_type":2,"reinsert_type":2,"frame_rate":16.741666666666667,"frame_rate_array":[14,16,17,17,17,17,17,16,17,16,17,17,16,17,17,17,17,17,17,17,17,16,17,17,17,17,16,17,17,17,16,16,17,17,16,17,17,16,18,17,17,17,17,17,17,17,17,17,17,16,17,16,16,17,17,17,17,17,16,17,17,17,17,17,17,17,17,16,17,16,17,17,17,17,17,17,17,17,17,16,17,17,16,16,17,17,17,16,17,17,17,16,17,17,16,18,16,16,17,16,17,17,17,16,17,17,16,17,17,17,17,17,16,17,17,16,17,17,16,17],"number_of_frames":120,"aperture_center_x":614.5,"aperture_center_y":346,"fixation_cross":true,"fixation_cross_width":15,"fixation_cross_height":15,"fixation_cross_color":"#111","fixation_cross_thickness":1,"border":true,"border_thickness":2,"border_color":"transparent","canvas_width":1229,"canvas_height":692,"trial_type":"rdk","trial_index":39,"plugin_version":"2.0.0","time_elapsed":178598,"phase":"practice","target_direction":323,"distractor_direction":152},{"rt":4467,"stimulus":"\n        <div class=\"response-container\">\n          <div class=\"response-instruction\">\n            <p>rotate the bar by using the left and right arrow keys.</p>\n            <p>when you are determined, press the Enter key.</p>\n          </div>\n          <div class=\"response-circle\">\n            <div class=\"response-fixation\"></div>\n            <div id=\"bar\" class=\"rotating-bar\"></div>\n          </div>\n        </div>\n      ","response":"Enter","trial_type":"html-keyboard-response","trial_index":40,"plugin_version":"2.1.0","time_elapsed":183066,"random_initial_angle":3,"response_angle_css":140,"response_angle_rdk":310,"angular_error_target":-13,"angular_error_distractor":158,"target_direction":323,"target_group":"black","reward_points":7},{"rt":null,"stimulus":"\n          <p style=\"color: #00FF00;\">Your reward: 7 points</p>\n        ","response":null,"trial_type":"html-keyboard-response","trial_index":41,"plugin_version":"2.1.0","time_elapsed":185076},{"rt":null,"stimulus":"<div class=\"fixation\" style=\"font-size: 60px;\">+</div>","response":null,"trial_type":"html-keyboard-response","trial_index":42,"plugin_version":"2.1.0","time_elapsed":186079},{"target_group":"white","target_index":0,"condition_label":"practice","rt":-1,"response":"","correct":false,"choices":"ALL_KEYS","correct_choice":["a"],"trial_duration":2000,"flip_timestamps":[],"response_ends_trial":false,"number_of_apertures":2,"number_of_dots":[100,91],"number_of_sets":1,"coherent_direction":[152,261],"coherence":1,"opposite_coherence":0,"dot_radius":2,"dot_side_length":1,"dot_life":-1,"move_distance":1,"aperture_width":300,"aperture_height":300,"dot_color":["white","black"],"dot_shape":"circle","background_color":"#AAA","RDK_type":3,"aperture_type":2,"reinsert_type":2,"frame_rate":16.75,"frame_rate_array":[9,17,16,17,17,17,17,17,17,17,17,16,17,17,16,17,17,16,17,17,16,17,16,16,17,17,16,17,17,16,17,17,16,17,17,16,17,17,16,17,17,17,17,16,17,16,17,17,17,17,17,17,17,17,17,17,17,17,17,17,16,17,17,17,17,16,17,17,16,17,17,17,17,17,17,17,17,17,17,16,17,17,17,16,17,17,16,17,17,16,17,17,17,17,17,17,17,17,17,17,17,17,17,17,17,17,17,16,17,17,17,17,17,17,17,17,17,17,17,17],"number_of_frames":120,"aperture_center_x":614.5,"aperture_center_y":346,"fixation_cross":true,"fixation_cross_width":15,"fixation_cross_height":15,"fixation_cross_color":"#111","fixation_cross_thickness":1,"border":true,"border_thickness":2,"border_color":"transparent","canvas_width":1229,"canvas_height":692,"trial_type":"rdk","trial_index":43,"plugin_version":"2.0.0","time_elapsed":188084,"phase":"practice","target_direction":152,"distractor_direction":261},{"rt":3356,"stimulus":"\n        <div class=\"response-container\">\n          <div class=\"response-instruction\">\n            <p>rotate the bar by using the left and right arrow keys.</p>\n            <p>when you are determined, press the Enter key.</p>\n          </div>\n          <div class=\"response-circle\">\n            <div class=\"response-fixation\"></div>\n            <div id=\"bar\" class=\"rotating-bar\"></div>\n          </div>\n        </div>\n      ","response":"Enter","trial_type":"html-keyboard-response","trial_index":44,"plugin_version":"2.1.0","time_elapsed":191441,"random_initial_angle":216,"response_angle_css":185,"response_angle_rdk":265,"angular_error_target":113,"angular_error_distractor":4,"target_direction":152,"target_group":"white","reward_points":0},{"rt":null,"stimulus":"\n          <p style=\"color: #FF3333;\">Your reward: 0 points</p>\n        ","response":null,"trial_type":"html-keyboard-response","trial_index":45,"plugin_version":"2.1.0","time_elapsed":193456},{"rt":null,"stimulus":"<div class=\"fixation\" style=\"font-size: 60px;\">+</div>","response":null,"trial_type":"html-keyboard-response","trial_index":46,"plugin_version":"2.1.0","time_elapsed":194467},{"target_group":"white","target_index":0,"condition_label":"practice","rt":-1,"response":"","correct":false,"choices":"ALL_KEYS","correct_choice":["a"],"trial_duration":2000,"flip_timestamps":[],"response_ends_trial":false,"number_of_apertures":2,"number_of_dots":[100,65],"number_of_sets":1,"coherent_direction":[198,105],"coherence":1,"opposite_coherence":0,"dot_radius":2,"dot_side_length":1,"dot_life":-1,"move_distance":1,"aperture_width":300,"aperture_height":300,"dot_color":["white","black"],"dot_shape":"circle","background_color":"#AAA","RDK_type":3,"aperture_type":2,"reinsert_type":2,"frame_rate":16.619834710743802,"frame_rate_array":[4,17,17,16,17,17,16,17,17,17,17,17,17,17,17,17,16,17,16,17,16,17,17,17,17,16,17,16,17,17,17,17,16,17,17,17,16,16,17,17,17,17,17,17,16,17,16,16,17,17,17,17,17,17,16,17,16,17,17,17,16,17,17,16,17,16,17,17,17,16,17,17,16,17,17,16,17,17,16,17,16,17,16,17,17,17,17,16,17,17,17,17,17,16,17,16,17,17,17,16,18,17,16,17,17,16,17,17,16,17,17,16,18,16,17,17,17,16,17,16,17],"number_of_frames":121,"aperture_center_x":614.5,"aperture_center_y":346,"fixation_cross":true,"fixation_cross_width":15,"fixation_cross_height":15,"fixation_cross_color":"#111","fixation_cross_thickness":1,"border":true,"border_thickness":2,"border_color":"transparent","canvas_width":1229,"canvas_height":692,"trial_type":"rdk","trial_index":47,"plugin_version":"2.0.0","time_elapsed":196472,"phase":"practice","target_direction":198,"distractor_direction":105},{"rt":5462,"stimulus":"\n        <div class=\"response-container\">\n          <div class=\"response-instruction\">\n            <p>rotate the bar by using the left and right arrow keys.</p>\n            <p>when you are determined, press the Enter key.</p>\n          </div>\n          <div class=\"response-circle\">\n            <div class=\"response-fixation\"></div>\n            <div id=\"bar\" class=\"rotating-bar\"></div>\n          </div>\n        </div>\n      ","response":"Enter","trial_type":"html-keyboard-response","trial_index":48,"plugin_version":"2.1.0","time_elapsed":201935,"random_initial_angle":18,"response_angle_css":-157,"response_angle_rdk":247,"angular_error_target":49,"angular_error_distractor":142,"target_direction":198,"target_group":"white","reward_points":0},{"rt":null,"stimulus":"\n          <p style=\"color: #FF3333;\">Your reward: 0 points</p>\n        ","response":null,"trial_type":"html-keyboard-response","trial_index":49,"plugin_version":"2.1.0","time_elapsed":203951},{"rt":null,"stimulus":"<div class=\"fixation\" style=\"font-size: 60px;\">+</div>","response":null,"trial_type":"html-keyboard-response","trial_index":50,"plugin_version":"2.1.0","time_elapsed":204957},{"target_group":"black","target_index":1,"condition_label":"practice","rt":-1,"response":"","correct":false,"choices":"ALL_KEYS","correct_choice":["a"],"trial_duration":2000,"flip_timestamps":[],"response_ends_trial":false,"number_of_apertures":2,"number_of_dots":[58,100],"number_of_sets":1,"coherent_direction":[116,298],"coherence":1,"opposite_coherence":0,"dot_radius":2,"dot_side_length":1,"dot_life":-1,"move_distance":1,"aperture_width":300,"aperture_height":300,"dot_color":["white","black"],"dot_shape":"circle","background_color":"#AAA","RDK_type":3,"aperture_type":2,"reinsert_type":2,"frame_rate":16.808333333333334,"frame_rate_array":[13,17,17,17,17,17,17,17,16,17,17,17,16,17,16,17,17,17,17,17,17,17,17,16,17,17,16,17,17,17,17,17,17,17,17,17,17,17,17,16,17,17,17,17,16,17,17,16,17,17,17,17,17,17,17,17,16,17,17,17,17,17,16,17,17,17,17,16,17,17,17,17,17,17,17,17,17,17,17,17,17,17,17,17,16,17,17,17,16,17,16,18,16,17,17,16,17,17,16,17,17,16,17,17,17,16,17,17,17,17,17,17,17,17,17,17,16,17,17,17],"number_of_frames":120,"aperture_center_x":614.5,"aperture_center_y":346,"fixation_cross":true,"fixation_cross_width":15,"fixation_cross_height":15,"fixation_cross_color":"#111","fixation_cross_thickness":1,"border":true,"border_thickness":2,"border_color":"transparent","canvas_width":1229,"canvas_height":692,"trial_type":"rdk","trial_index":51,"plugin_version":"2.0.0","time_elapsed":206966,"phase":"practice","target_direction":298,"distractor_direction":116},{"rt":6529,"stimulus":"\n        <div class=\"response-container\">\n          <div class=\"response-instruction\">\n            <p>rotate the bar by using the left and right arrow keys.</p>\n            <p>when you are determined, press the Enter key.</p>\n          </div>\n          <div class=\"response-circle\">\n            <div class=\"response-fixation\"></div>\n            <div id=\"bar\" class=\"rotating-bar\"></div>\n          </div>\n        </div>\n      ","response":"Enter","trial_type":"html-keyboard-response","trial_index":52,"plugin_version":"2.1.0","time_elapsed":213496,"random_initial_angle":76,"response_angle_css":187,"response_angle_rdk":263,"angular_error_target":-35,"angular_error_distractor":147,"target_direction":298,"target_group":"black","reward_points":3},{"rt":null,"stimulus":"\n          <p style=\"color: #00FF00;\">Your reward: 3 points</p>\n        ","response":null,"trial_type":"html-keyboard-response","trial_index":53,"plugin_version":"2.1.0","time_elapsed":215503},{"rt":null,"stimulus":"<div class=\"fixation\" style=\"font-size: 60px;\">+</div>","response":null,"trial_type":"html-keyboard-response","trial_index":54,"plugin_version":"2.1.0","time_elapsed":216516},{"target_group":"black","target_index":1,"condition_label":"practice","rt":-1,"response":"","correct":false,"choices":"ALL_KEYS","correct_choice":["a"],"trial_duration":2000,"flip_timestamps":[],"response_ends_trial":false,"number_of_apertures":2,"number_of_dots":[74,100],"number_of_sets":1,"coherent_direction":[306,120],"coherence":1,"opposite_coherence":0,"dot_radius":2,"dot_side_length":1,"dot_life":-1,"move_distance":1,"aperture_width":300,"aperture_height":300,"dot_color":["white","black"],"dot_shape":"circle","background_color":"#AAA","RDK_type":3,"aperture_type":2,"reinsert_type":2,"frame_rate":16.68595041322314,"frame_rate_array":[4,17,17,17,17,17,17,17,16,17,17,17,17,17,17,17,17,16,17,17,17,17,17,17,17,17,17,16,17,17,17,17,16,17,17,17,17,17,17,17,16,17,17,17,17,17,17,17,17,17,17,17,17,16,17,16,16,17,17,17,17,17,16,17,18,16,17,17,16,17,16,17,17,17,16,17,16,17,17,17,16,17,16,17,16,17,16,17,16,16,17,17,16,17,17,16,17,17,16,17,17,17,17,17,17,16,17,17,16,17,17,17,17,17,17,17,17,17,17,16,17],"number_of_frames":121,"aperture_center_x":614.5,"aperture_center_y":346,"fixation_cross":true,"fixation_cross_width":15,"fixation_cross_height":15,"fixation_cross_color":"#111","fixation_cross_thickness":1,"border":true,"border_thickness":2,"border_color":"transparent","canvas_width":1229,"canvas_height":692,"trial_type":"rdk","trial_index":55,"plugin_version":"2.0.0","time_elapsed":218521,"phase":"practice","target_direction":120,"distractor_direction":306},{"rt":4445,"stimulus":"\n        <div class=\"response-container\">\n          <div class=\"response-instruction\">\n            <p>rotate the bar by using the left and right arrow keys.</p>\n            <p>when you are determined, press the Enter key.</p>\n          </div>\n          <div class=\"response-circle\">\n            <div class=\"response-fixation\"></div>\n            <div id=\"bar\" class=\"rotating-bar\"></div>\n          </div>\n        </div>\n      ","response":"Enter","trial_type":"html-keyboard-response","trial_index":56,"plugin_version":"2.1.0","time_elapsed":222967,"random_initial_angle":192,"response_angle_css":328,"response_angle_rdk":122,"angular_error_target":2,"angular_error_distractor":176,"target_direction":120,"target_group":"black","reward_points":9},{"rt":null,"stimulus":"\n          <p style=\"color: #00FF00;\">Your reward: 9 points</p>\n        ","response":null,"trial_type":"html-keyboard-response","trial_index":57,"plugin_version":"2.1.0","time_elapsed":224980},{"rt":null,"stimulus":"<div class=\"fixation\" style=\"font-size: 60px;\">+</div>","response":null,"trial_type":"html-keyboard-response","trial_index":58,"plugin_version":"2.1.0","time_elapsed":225993},{"target_group":"black","target_index":1,"condition_label":"practice","rt":-1,"response":"","correct":false,"choices":"ALL_KEYS","correct_choice":["a"],"trial_duration":2000,"flip_timestamps":[],"response_ends_trial":false,"number_of_apertures":2,"number_of_dots":[59,100],"number_of_sets":1,"coherent_direction":[305,78],"coherence":1,"opposite_coherence":0,"dot_radius":2,"dot_side_length":1,"dot_life":-1,"move_distance":1,"aperture_width":300,"aperture_height":300,"dot_color":["white","black"],"dot_shape":"circle","background_color":"#AAA","RDK_type":3,"aperture_type":2,"reinsert_type":2,"frame_rate":16.768595041322314,"frame_rate_array":[8,17,17,16,17,17,16,17,17,17,17,17,16,17,17,17,17,17,17,17,17,17,16,17,16,17,17,16,17,17,17,17,17,16,17,16,17,17,17,17,17,17,16,17,17,16,17,16,17,17,17,17,17,17,17,17,17,17,17,17,17,17,17,17,17,17,17,17,17,17,17,17,17,17,17,17,17,17,17,17,17,17,17,17,16,17,17,17,17,17,16,17,17,17,16,17,16,17,17,16,17,17,16,17,17,17,17,17,17,17,17,17,16,17,17,17,17,16,17,17,17],"number_of_frames":121,"aperture_center_x":614.5,"aperture_center_y":346,"fixation_cross":true,"fixation_cross_width":15,"fixation_cross_height":15,"fixation_cross_color":"#111","fixation_cross_thickness":1,"border":true,"border_thickness":2,"border_color":"transparent","canvas_width":1229,"canvas_height":692,"trial_type":"rdk","trial_index":59,"plugin_version":"2.0.0","time_elapsed":228004,"phase":"practice","target_direction":78,"distractor_direction":305},{"rt":4760,"stimulus":"\n        <div class=\"response-container\">\n          <div class=\"response-instruction\">\n            <p>rotate the bar by using the left and right arrow keys.</p>\n            <p>when you are determined, press the Enter key.</p>\n          </div>\n          <div class=\"response-circle\">\n            <div class=\"response-fixation\"></div>\n            <div id=\"bar\" class=\"rotating-bar\"></div>\n          </div>\n        </div>\n      ","response":"Enter","trial_type":"html-keyboard-response","trial_index":60,"plugin_version":"2.1.0","time_elapsed":232765,"random_initial_angle":147,"response_angle_css":4,"response_angle_rdk":86,"angular_error_target":8,"angular_error_distractor":141,"target_direction":78,"target_group":"black","reward_points":8},{"rt":null,"stimulus":"\n          <p style=\"color: #00FF00;\">Your reward: 8 points</p>\n        ","response":null,"trial_type":"html-keyboard-response","trial_index":61,"plugin_version":"2.1.0","time_elapsed":234774},{"rt":null,"stimulus":"<div class=\"fixation\" style=\"font-size: 60px;\">+</div>","response":null,"trial_type":"html-keyboard-response","trial_index":62,"plugin_version":"2.1.0","time_elapsed":235789},{"target_group":"white","target_index":0,"condition_label":"practice","rt":-1,"response":"","correct":false,"choices":"ALL_KEYS","correct_choice":["a"],"trial_duration":2000,"flip_timestamps":[],"response_ends_trial":false,"number_of_apertures":2,"number_of_dots":[100,69],"number_of_sets":1,"coherent_direction":[316,181],"coherence":1,"opposite_coherence":0,"dot_radius":2,"dot_side_length":1,"dot_life":-1,"move_distance":1,"aperture_width":300,"aperture_height":300,"dot_color":["white","black"],"dot_shape":"circle","background_color":"#AAA","RDK_type":3,"aperture_type":2,"reinsert_type":2,"frame_rate":16.708333333333332,"frame_rate_array":[13,17,16,17,17,16,17,17,17,16,17,17,17,17,17,16,17,16,16,17,17,17,17,17,17,17,16,17,17,17,16,18,16,17,17,17,17,17,17,16,17,17,16,17,17,16,18,16,16,17,17,16,17,16,17,17,16,17,17,16,16,17,17,17,17,17,17,17,17,17,17,17,16,17,16,17,17,16,17,17,17,17,17,17,16,17,17,16,17,16,17,17,17,16,17,16,17,17,16,17,17,17,16,17,16,17,17,17,16,17,16,17,17,17,16,18,17,16,18,16],"number_of_frames":120,"aperture_center_x":614.5,"aperture_center_y":346,"fixation_cross":true,"fixation_cross_width":15,"fixation_cross_height":15,"fixation_cross_color":"#111","fixation_cross_thickness":1,"border":true,"border_thickness":2,"border_color":"transparent","canvas_width":1229,"canvas_height":692,"trial_type":"rdk","trial_index":63,"plugin_version":"2.0.0","time_elapsed":237801,"phase":"practice","target_direction":316,"distractor_direction":181},{"rt":3384,"stimulus":"\n        <div class=\"response-container\">\n          <div class=\"response-instruction\">\n            <p>rotate the bar by using the left and right arrow keys.</p>\n            <p>when you are determined, press the Enter key.</p>\n          </div>\n          <div class=\"response-circle\">\n            <div class=\"response-fixation\"></div>\n            <div id=\"bar\" class=\"rotating-bar\"></div>\n          </div>\n        </div>\n      ","response":"Enter","trial_type":"html-keyboard-response","trial_index":64,"plugin_version":"2.1.0","time_elapsed":241185,"random_initial_angle":209,"response_angle_css":267,"response_angle_rdk":183,"angular_error_target":-133,"angular_error_distractor":2,"target_direction":316,"target_group":"white","reward_points":0},{"rt":null,"stimulus":"\n          <p style=\"color: #FF3333;\">Your reward: 0 points</p>\n        ","response":null,"trial_type":"html-keyboard-response","trial_index":65,"plugin_version":"2.1.0","time_elapsed":243189},{"rt":3123,"stimulus":"\n        <div class=\"instructions-container\">\n          <h2>End of Practice</h2>\n          <p>You have completed the practice trials.</p>\n          <p>Press <strong>Enter</strong> key to begin the main experiment.</p>\n        </div>\n      ","response":"Enter","trial_type":"html-keyboard-response","trial_index":66,"plugin_version":"2.1.0","time_elapsed":246314},{"rt":null,"stimulus":"<div class=\"fixation\" style=\"font-size: 60px;\">+</div>","response":null,"trial_type":"html-keyboard-response","trial_index":67,"plugin_version":"2.1.0","time_elapsed":247319},{"phase":"learning-awareness","target_group":"black","condition_label":"B_H_vs_W_L_rep10","target_direction":168,"distractor_direction":291,"session_rotation":77,"rt":-1,"response":"","correct":false,"choices":"ALL_KEYS","correct_choice":["a"],"trial_duration":2000,"flip_timestamps":[],"response_ends_trial":false,"number_of_apertures":200,"number_of_dots":[1,1,1,1,1,1,1,1,1,1,1,1,1,1,1,1,1,1,1,1,1,1,1,1,1,1,1,1,1,1,1,1,1,1,1,1,1,1,1,1,1,1,1,1,1,1,1,1,1,1,1,1,1,1,1,1,1,1,1,1,1,1,1,1,1,1,1,1,1,1,1,1,1,1,1,1,1,1,1,1,1,1,1,1,1,1,1,1,1,1,1,1,1,1,1,1,1,1,1,1,1,1,1,1,1,1,1,1,1,1,1,1,1,1,1,1,1,1,1,1,1,1,1,1,1,1,1,1,1,1,1,1,1,1,1,1,1,1,1,1,1,1,1,1,1,1,1,1,1,1,1,1,1,1,1,1,1,1,1,1,1,1,1,1,1,1,1,1,1,1,1,1,1,1,1,1,1,1,1,1,1,1,1,1,1,1,1,1,1,1,1,1,1,1,1,1,1,1,1,1],"number_of_sets":1,"coherent_direction":[168,291,168,168,291,168,291,291,168,291,168,168,291,291,291,168,168,168,168,291,168,291,291,168,168,291,168,291,291,291,291,168,168,168,291,168,168,168,168,291,291,291,168,168,168,168,291,291,168,168,291,168,168,291,291,291,291,291,291,168,291,291,168,291,291,291,168,168,291,291,168,168,168,291,168,168,168,291,291,291,291,291,168,291,291,291,168,168,168,291,168,291,291,291,168,168,291,291,168,168,291,291,168,291,168,168,291,168,168,291,168,291,291,168,168,168,291,291,168,168,168,291,168,291,291,168,168,291,291,168,168,168,291,291,168,291,291,168,168,168,168,291,168,168,168,168,291,291,291,291,168,168,291,291,168,291,168,168,291,291,291,168,168,291,291,168,168,168,168,291,291,168,291,291,291,168,291,168,168,291,168,291,168,291,168,291,291,168,291,168,291,291,291,168,291,168,291,291,168,168],"coherence":1,"opposite_coherence":0,"dot_radius":2,"dot_side_length":1,"dot_life":-1,"move_distance":1,"aperture_width":300,"aperture_height":300,"dot_color":["black","white","black","black","white","black","white","white","black","white","black","black","white","white","white","black","black","black","black","white","black","white","white","black","black","white","black","white","white","white","white","black","black","black","white","black","black","black","black","white","white","white","black","black","black","black","white","white","black","black","white","black","black","white","white","white","white","white","white","black","white","white","black","white","white","white","black","black","white","white","black","black","black","white","black","black","black","white","white","white","white","white","black","white","white","white","black","black","black","white","black","white","white","white","black","black","white","white","black","black","white","white","black","white","black","black","white","black","black","white","black","white","white","black","black","black","white","white","black","black","black","white","black","white","white","black","black","white","white","black","black","black","white","white","black","white","white","black","black","black","black","white","black","black","black","black","white","white","white","white","black","black","white","white","black","white","black","black","white","white","white","black","black","white","white","black","black","black","black","white","white","black","white","white","white","black","white","black","black","white","black","white","black","white","black","white","white","black","white","black","white","white","white","black","white","black","white","white","black","black"],"dot_shape":"circle","background_color":"#AAA","RDK_type":3,"aperture_type":2,"reinsert_type":2,"frame_rate":16.75,"frame_rate_array":[17,16,17,17,17,17,16,17,17,17,17,17,16,17,17,17,17,17,16,17,17,16,17,17,17,17,17,16,17,16,16,17,17,16,17,17,16,17,17,16,17,16,17,17,16,17,17,17,16,17,16,17,17,17,17,17,17,16,17,16,16,17,17,16,17,17,16,17,17,16,17,17,17,17,17,17,17,17,17,17,16,17,17,17,16,18,17,16,17,17,17,17,17,17,17,16,17,17,17,16,17,17,16,17,17,17,17,17,17,17,16,16,17,17,17,16,17,16,17,17],"number_of_frames":120,"aperture_center_x":614.5,"aperture_center_y":346,"fixation_cross":true,"fixation_cross_width":15,"fixation_cross_height":15,"fixation_cross_color":"#111","fixation_cross_thickness":1,"border":true,"border_thickness":2,"border_color":"transparent","canvas_width":1229,"canvas_height":692,"trial_type":"rdk","trial_index":68,"plugin_version":"2.0.0","time_elapsed":249337},{"rt":4435,"stimulus":"\n        <div class=\"response-container\">\n          <div class=\"response-instruction\">\n            <p>rotate the bar by using the left and right arrow keys.</p>\n            <p>when you are determined, press the Enter key.</p>\n          </div>\n          <div class=\"response-circle\">\n            <div class=\"response-fixation\"></div>\n            <div id=\"bar\" class=\"rotating-bar\"></div>\n          </div>\n        </div>\n      ","response":"Enter","trial_type":"html-keyboard-response","trial_index":69,"plugin_version":"2.1.0","time_elapsed":253773,"random_initial_angle":116,"response_angle_css":-49,"response_angle_rdk":139,"angular_error_target":-29,"angular_error_distractor":-152,"target_direction":168,"target_group":"black","reward_points":4},{"rt":null,"stimulus":"\n          <p style=\"color: #00FF00;\">Your reward: 4 points</p>\n        ","response":null,"trial_type":"html-keyboard-response","trial_index":70,"plugin_version":"2.1.0","time_elapsed":255774},{"rt":null,"stimulus":"<div class=\"fixation\" style=\"font-size: 60px;\">+</div>","response":null,"trial_type":"html-keyboard-response","trial_index":71,"plugin_version":"2.1.0","time_elapsed":256787},{"phase":"learning-awareness","target_group":"black","condition_label":"B_H_vs_W_L_rep4","target_direction":174,"distractor_direction":296,"session_rotation":77,"rt":-1,"response":"","correct":false,"choices":"ALL_KEYS","correct_choice":["a"],"trial_duration":2000,"flip_timestamps":[],"response_ends_trial":false,"number_of_apertures":200,"number_of_dots":[1,1,1,1,1,1,1,1,1,1,1,1,1,1,1,1,1,1,1,1,1,1,1,1,1,1,1,1,1,1,1,1,1,1,1,1,1,1,1,1,1,1,1,1,1,1,1,1,1,1,1,1,1,1,1,1,1,1,1,1,1,1,1,1,1,1,1,1,1,1,1,1,1,1,1,1,1,1,1,1,1,1,1,1,1,1,1,1,1,1,1,1,1,1,1,1,1,1,1,1,1,1,1,1,1,1,1,1,1,1,1,1,1,1,1,1,1,1,1,1,1,1,1,1,1,1,1,1,1,1,1,1,1,1,1,1,1,1,1,1,1,1,1,1,1,1,1,1,1,1,1,1,1,1,1,1,1,1,1,1,1,1,1,1,1,1,1,1,1,1,1,1,1,1,1,1,1,1,1,1,1,1,1,1,1,1,1,1,1,1,1,1,1,1,1,1,1,1,1,1],"number_of_sets":1,"coherent_direction":[296,174,174,296,296,174,174,296,174,296,174,296,174,174,174,174,296,174,296,296,296,174,296,296,296,174,174,174,296,296,296,174,296,174,296,174,296,174,296,296,296,174,296,174,296,174,296,296,296,174,296,296,174,174,174,174,174,296,296,174,296,174,174,296,174,174,296,174,296,296,296,296,296,296,296,174,296,174,296,296,174,296,174,296,174,174,296,174,174,296,296,174,296,174,174,296,174,174,296,174,174,174,296,174,174,174,296,296,296,174,174,296,174,174,296,296,296,174,296,174,174,174,174,174,296,296,174,296,296,174,296,174,296,174,174,174,296,174,174,174,296,296,296,296,174,296,174,174,296,296,174,174,174,296,296,296,174,296,174,174,174,174,174,296,296,296,174,174,174,296,296,174,174,296,296,174,174,174,296,296,296,174,296,296,174,296,296,174,296,174,174,296,174,296,296,174,296,296,174,296],"coherence":1,"opposite_coherence":0,"dot_radius":2,"dot_side_length":1,"dot_life":-1,"move_distance":1,"aperture_width":300,"aperture_height":300,"dot_color":["white","black","black","white","white","black","black","white","black","white","black","white","black","black","black","black","white","black","white","white","white","black","white","white","white","black","black","black","white","white","white","black","white","black","white","black","white","black","white","white","white","black","white","black","white","black","white","white","white","black","white","white","black","black","black","black","black","white","white","black","white","black","black","white","black","black","white","black","white","white","white","white","white","white","white","black","white","black","white","white","black","white","black","white","black","black","white","black","black","white","white","black","white","black","black","white","black","black","white","black","black","black","white","black","black","black","white","white","white","black","black","white","black","black","white","white","white","black","white","black","black","black","black","black","white","white","black","white","white","black","white","black","white","black","black","black","white","black","black","black","white","white","white","white","black","white","black","black","white","white","black","black","black","white","white","white","black","white","black","black","black","black","black","white","white","white","black","black","black","white","white","black","black","white","white","black","black","black","white","white","white","black","white","white","black","white","white","black","white","black","black","white","black","white","white","black","white","white","black","white"],"dot_shape":"circle","background_color":"#AAA","RDK_type":3,"aperture_type":2,"reinsert_type":2,"frame_rate":16.75,"frame_rate_array":[14,17,17,17,17,17,17,17,17,17,17,16,17,17,16,17,17,17,17,17,16,16,17,17,17,17,17,16,17,16,16,17,17,16,17,16,16,17,17,17,17,16,17,18,16,17,17,17,17,17,16,16,17,16,17,17,16,17,18,16,17,17,17,17,17,17,17,17,17,17,17,17,17,17,17,16,17,17,16,17,17,16,17,17,16,17,17,16,17,16,17,17,17,17,17,17,16,17,17,16,17,17,16,18,16,16,17,17,16,17,17,17,17,17,17,17,17,16,17,17],"number_of_frames":120,"aperture_center_x":614.5,"aperture_center_y":346,"fixation_cross":true,"fixation_cross_width":15,"fixation_cross_height":15,"fixation_cross_color":"#111","fixation_cross_thickness":1,"border":true,"border_thickness":2,"border_color":"transparent","canvas_width":1229,"canvas_height":692,"trial_type":"rdk","trial_index":72,"plugin_version":"2.0.0","time_elapsed":258802},{"rt":1354,"stimulus":"\n        <div class=\"response-container\">\n          <div class=\"response-instruction\">\n            <p>rotate the bar by using the left and right arrow keys.</p>\n            <p>when you are determined, press the Enter key.</p>\n          </div>\n          <div class=\"response-circle\">\n            <div class=\"response-fixation\"></div>\n            <div id=\"bar\" class=\"rotating-bar\"></div>\n          </div>\n        </div>\n      ","response":"Enter","trial_type":"html-keyboard-response","trial_index":73,"plugin_version":"2.1.0","time_elapsed":260157,"random_initial_angle":311,"response_angle_css":311,"response_angle_rdk":139,"angular_error_target":-35,"angular_error_distractor":-157,"target_direction":174,"target_group":"black","reward_points":3},{"rt":null,"stimulus":"\n          <p style=\"color: #00FF00;\">Your reward: 3 points</p>\n        ","response":null,"trial_type":"html-keyboard-response","trial_index":74,"plugin_version":"2.1.0","time_elapsed":262161},{"rt":null,"stimulus":"<div class=\"fixation\" style=\"font-size: 60px;\">+</div>","response":null,"trial_type":"html-keyboard-response","trial_index":75,"plugin_version":"2.1.0","time_elapsed":263169},{"phase":"learning-awareness","target_group":"white","condition_label":"W_H_vs_B_L_rep11","target_direction":115,"distractor_direction":20,"session_rotation":77,"rt":-1,"response":"","correct":false,"choices":"ALL_KEYS","correct_choice":["a"],"trial_duration":2000,"flip_timestamps":[],"response_ends_trial":false,"number_of_apertures":200,"number_of_dots":[1,1,1,1,1,1,1,1,1,1,1,1,1,1,1,1,1,1,1,1,1,1,1,1,1,1,1,1,1,1,1,1,1,1,1,1,1,1,1,1,1,1,1,1,1,1,1,1,1,1,1,1,1,1,1,1,1,1,1,1,1,1,1,1,1,1,1,1,1,1,1,1,1,1,1,1,1,1,1,1,1,1,1,1,1,1,1,1,1,1,1,1,1,1,1,1,1,1,1,1,1,1,1,1,1,1,1,1,1,1,1,1,1,1,1,1,1,1,1,1,1,1,1,1,1,1,1,1,1,1,1,1,1,1,1,1,1,1,1,1,1,1,1,1,1,1,1,1,1,1,1,1,1,1,1,1,1,1,1,1,1,1,1,1,1,1,1,1,1,1,1,1,1,1,1,1,1,1,1,1,1,1,1,1,1,1,1,1,1,1,1,1,1,1,1,1,1,1,1,1],"number_of_sets":1,"coherent_direction":[20,20,115,115,20,115,20,115,20,115,20,115,115,115,20,115,115,115,115,20,20,20,20,115,20,115,115,115,20,115,115,115,115,115,20,115,20,20,115,115,115,115,115,20,20,115,20,20,20,20,115,115,20,115,115,20,20,20,20,20,115,20,115,115,20,115,115,115,20,20,115,115,115,115,115,20,20,115,20,115,20,115,20,20,20,115,115,20,115,20,115,20,20,115,20,20,20,20,115,115,115,115,20,115,115,20,20,115,20,20,115,20,115,20,20,115,115,115,20,20,20,20,115,115,115,115,20,115,20,115,20,115,20,115,115,20,115,20,20,115,20,115,20,115,20,20,115,20,115,20,20,20,115,115,115,115,20,115,20,20,115,20,115,20,20,20,115,20,20,20,20,115,20,115,20,115,115,115,20,20,20,115,115,20,115,115,20,20,115,20,20,115,115,20,115,20,20,115,20,20],"coherence":1,"opposite_coherence":0,"dot_radius":2,"dot_side_length":1,"dot_life":-1,"move_distance":1,"aperture_width":300,"aperture_height":300,"dot_color":["black","black","white","white","black","white","black","white","black","white","black","white","white","white","black","white","white","white","white","black","black","black","black","white","black","white","white","white","black","white","white","white","white","white","black","white","black","black","white","white","white","white","white","black","black","white","black","black","black","black","white","white","black","white","white","black","black","black","black","black","white","black","white","white","black","white","white","white","black","black","white","white","white","white","white","black","black","white","black","white","black","white","black","black","black","white","white","black","white","black","white","black","black","white","black","black","black","black","white","white","white","white","black","white","white","black","black","white","black","black","white","black","white","black","black","white","white","white","black","black","black","black","white","white","white","white","black","white","black","white","black","white","black","white","white","black","white","black","black","white","black","white","black","white","black","black","white","black","white","black","black","black","white","white","white","white","black","white","black","black","white","black","white","black","black","black","white","black","black","black","black","white","black","white","black","white","white","white","black","black","black","white","white","black","white","white","black","black","white","black","black","white","white","black","white","black","black","white","black","black"],"dot_shape":"circle","background_color":"#AAA","RDK_type":3,"aperture_type":2,"reinsert_type":2,"frame_rate":16.733333333333334,"frame_rate_array":[15,16,17,17,16,17,17,16,17,17,17,17,17,16,17,17,17,17,16,17,17,16,17,17,17,17,17,16,17,17,17,16,17,17,17,18,16,17,17,17,17,17,17,16,17,17,16,17,16,17,17,17,16,17,17,16,17,16,16,17,17,16,18,16,16,17,17,16,18,16,17,17,17,17,17,17,17,17,16,16,17,16,17,17,17,17,16,17,16,17,17,17,17,17,17,17,16,17,17,17,16,17,17,16,17,17,17,17,17,17,17,17,16,17,17,16,16,17,16,17],"number_of_frames":120,"aperture_center_x":614.5,"aperture_center_y":346,"fixation_cross":true,"fixation_cross_width":15,"fixation_cross_height":15,"fixation_cross_color":"#111","fixation_cross_thickness":1,"border":true,"border_thickness":2,"border_color":"transparent","canvas_width":1229,"canvas_height":692,"trial_type":"rdk","trial_index":76,"plugin_version":"2.0.0","time_elapsed":265180},{"rt":4768,"stimulus":"\n        <div class=\"response-container\">\n          <div class=\"response-instruction\">\n            <p>rotate the bar by using the left and right arrow keys.</p>\n            <p>when you are determined, press the Enter key.</p>\n          </div>\n          <div class=\"response-circle\">\n            <div class=\"response-fixation\"></div>\n            <div id=\"bar\" class=\"rotating-bar\"></div>\n          </div>\n        </div>\n      ","response":"Enter","trial_type":"html-keyboard-response","trial_index":77,"plugin_version":"2.1.0","time_elapsed":269949,"random_initial_angle":20,"response_angle_css":59,"response_angle_rdk":31,"angular_error_target":-84,"angular_error_distractor":11,"target_direction":115,"target_group":"white","reward_points":0},{"rt":null,"stimulus":"\n          <p style=\"color: #FF3333;\">Your reward: 0 points</p>\n        ","response":null,"trial_type":"html-keyboard-response","trial_index":78,"plugin_version":"2.1.0","time_elapsed":271963},{"rt":null,"stimulus":"<div class=\"fixation\" style=\"font-size: 60px;\">+</div>","response":null,"trial_type":"html-keyboard-response","trial_index":79,"plugin_version":"2.1.0","time_elapsed":272977},{"phase":"learning-awareness","target_group":"black","condition_label":"B_H_vs_W_L_rep16","target_direction":184,"distractor_direction":276,"session_rotation":77,"rt":-1,"response":"","correct":false,"choices":"ALL_KEYS","correct_choice":["a"],"trial_duration":2000,"flip_timestamps":[],"response_ends_trial":false,"number_of_apertures":200,"number_of_dots":[1,1,1,1,1,1,1,1,1,1,1,1,1,1,1,1,1,1,1,1,1,1,1,1,1,1,1,1,1,1,1,1,1,1,1,1,1,1,1,1,1,1,1,1,1,1,1,1,1,1,1,1,1,1,1,1,1,1,1,1,1,1,1,1,1,1,1,1,1,1,1,1,1,1,1,1,1,1,1,1,1,1,1,1,1,1,1,1,1,1,1,1,1,1,1,1,1,1,1,1,1,1,1,1,1,1,1,1,1,1,1,1,1,1,1,1,1,1,1,1,1,1,1,1,1,1,1,1,1,1,1,1,1,1,1,1,1,1,1,1,1,1,1,1,1,1,1,1,1,1,1,1,1,1,1,1,1,1,1,1,1,1,1,1,1,1,1,1,1,1,1,1,1,1,1,1,1,1,1,1,1,1,1,1,1,1,1,1,1,1,1,1,1,1,1,1,1,1,1,1],"number_of_sets":1,"coherent_direction":[184,276,184,184,184,276,184,184,276,184,276,184,184,276,184,184,276,276,276,184,184,184,276,184,276,184,276,276,276,276,276,276,276,276,184,184,184,276,276,184,276,184,276,276,276,184,184,184,276,184,184,184,184,184,276,184,184,276,184,276,184,276,184,184,184,184,184,184,276,276,184,276,276,276,184,184,276,276,184,184,184,184,184,184,276,276,184,276,276,276,184,184,276,276,276,184,276,276,276,184,276,276,184,184,184,276,184,184,276,184,276,184,184,184,184,276,276,276,184,276,276,276,184,276,184,276,184,184,276,276,184,184,184,184,276,184,184,276,184,276,276,184,276,276,276,184,184,276,184,184,184,276,276,276,276,276,276,276,184,276,184,184,184,184,276,276,184,276,276,276,276,184,184,276,276,184,184,276,276,276,184,184,276,276,276,184,184,276,184,276,276,276,276,184,184,276,184,184,276,276],"coherence":1,"opposite_coherence":0,"dot_radius":2,"dot_side_length":1,"dot_life":-1,"move_distance":1,"aperture_width":300,"aperture_height":300,"dot_color":["black","white","black","black","black","white","black","black","white","black","white","black","black","white","black","black","white","white","white","black","black","black","white","black","white","black","white","white","white","white","white","white","white","white","black","black","black","white","white","black","white","black","white","white","white","black","black","black","white","black","black","black","black","black","white","black","black","white","black","white","black","white","black","black","black","black","black","black","white","white","black","white","white","white","black","black","white","white","black","black","black","black","black","black","white","white","black","white","white","white","black","black","white","white","white","black","white","white","white","black","white","white","black","black","black","white","black","black","white","black","white","black","black","black","black","white","white","white","black","white","white","white","black","white","black","white","black","black","white","white","black","black","black","black","white","black","black","white","black","white","white","black","white","white","white","black","black","white","black","black","black","white","white","white","white","white","white","white","black","white","black","black","black","black","white","white","black","white","white","white","white","black","black","white","white","black","black","white","white","white","black","black","white","white","white","black","black","white","black","white","white","white","white","black","black","white","black","black","white","white"],"dot_shape":"circle","background_color":"#AAA","RDK_type":3,"aperture_type":2,"reinsert_type":2,"frame_rate":16.641666666666666,"frame_rate_array":[6,17,17,17,16,17,16,17,17,18,16,17,16,17,17,17,16,16,17,17,17,17,16,17,17,16,17,17,17,17,17,17,17,17,17,17,17,17,17,17,17,17,16,17,17,17,16,17,17,16,16,17,16,17,17,16,17,17,16,17,16,17,17,17,16,17,17,16,17,17,16,17,16,17,17,16,17,16,17,17,17,17,17,17,17,16,17,17,16,17,17,16,17,16,16,17,16,17,17,17,16,17,17,17,17,17,17,17,16,16,17,16,17,17,17,17,17,16,17,17],"number_of_frames":120,"aperture_center_x":614.5,"aperture_center_y":346,"fixation_cross":true,"fixation_cross_width":15,"fixation_cross_height":15,"fixation_cross_color":"#111","fixation_cross_thickness":1,"border":true,"border_thickness":2,"border_color":"transparent","canvas_width":1229,"canvas_height":692,"trial_type":"rdk","trial_index":80,"plugin_version":"2.0.0","time_elapsed":274980},{"rt":5118,"stimulus":"\n        <div class=\"response-container\">\n          <div class=\"response-instruction\">\n            <p>rotate the bar by using the left and right arrow keys.</p>\n            <p>when you are determined, press the Enter key.</p>\n          </div>\n          <div class=\"response-circle\">\n            <div class=\"response-fixation\"></div>\n            <div id=\"bar\" class=\"rotating-bar\"></div>\n          </div>\n        </div>\n      ","response":"Enter","trial_type":"html-keyboard-response","trial_index":81,"plugin_version":"2.1.0","time_elapsed":280098,"random_initial_angle":151,"response_angle_css":-80,"response_angle_rdk":170,"angular_error_target":-14,"angular_error_distractor":-106,"target_direction":184,"target_group":"black","reward_points":7},{"rt":null,"stimulus":"\n          <p style=\"color: #00FF00;\">Your reward: 7 points</p>\n        ","response":null,"trial_type":"html-keyboard-response","trial_index":82,"plugin_version":"2.1.0","time_elapsed":282113},{"rt":null,"stimulus":"<div class=\"fixation\" style=\"font-size: 60px;\">+</div>","response":null,"trial_type":"html-keyboard-response","trial_index":83,"plugin_version":"2.1.0","time_elapsed":283128},{"phase":"learning-awareness","target_group":"white","condition_label":"W_H_vs_B_L_rep1","target_direction":118,"distractor_direction":355,"session_rotation":77,"rt":-1,"response":"","correct":false,"choices":"ALL_KEYS","correct_choice":["a"],"trial_duration":2000,"flip_timestamps":[],"response_ends_trial":false,"number_of_apertures":200,"number_of_dots":[1,1,1,1,1,1,1,1,1,1,1,1,1,1,1,1,1,1,1,1,1,1,1,1,1,1,1,1,1,1,1,1,1,1,1,1,1,1,1,1,1,1,1,1,1,1,1,1,1,1,1,1,1,1,1,1,1,1,1,1,1,1,1,1,1,1,1,1,1,1,1,1,1,1,1,1,1,1,1,1,1,1,1,1,1,1,1,1,1,1,1,1,1,1,1,1,1,1,1,1,1,1,1,1,1,1,1,1,1,1,1,1,1,1,1,1,1,1,1,1,1,1,1,1,1,1,1,1,1,1,1,1,1,1,1,1,1,1,1,1,1,1,1,1,1,1,1,1,1,1,1,1,1,1,1,1,1,1,1,1,1,1,1,1,1,1,1,1,1,1,1,1,1,1,1,1,1,1,1,1,1,1,1,1,1,1,1,1,1,1,1,1,1,1,1,1,1,1,1,1],"number_of_sets":1,"coherent_direction":[355,118,118,118,355,355,118,355,118,118,355,355,118,355,118,118,355,355,355,355,355,118,118,355,118,355,118,118,355,355,355,118,355,355,355,355,118,118,355,118,355,355,355,118,355,118,118,118,355,118,118,355,118,355,355,118,355,355,355,118,118,118,118,355,355,355,118,355,355,118,118,355,118,355,118,355,355,355,355,355,355,355,355,118,118,118,118,355,118,355,355,355,355,118,118,118,355,118,118,118,355,355,355,118,118,118,355,355,118,118,118,355,355,118,355,355,118,118,118,118,118,118,355,118,118,355,118,118,355,118,355,118,355,355,118,118,118,355,355,355,118,118,118,355,118,355,355,355,355,355,355,118,118,118,118,118,118,355,355,355,355,355,118,118,355,118,355,118,355,355,355,355,355,355,118,118,355,118,118,355,118,355,355,355,118,118,118,118,118,118,118,118,118,118,118,118,355,355,355,118],"coherence":1,"opposite_coherence":0,"dot_radius":2,"dot_side_length":1,"dot_life":-1,"move_distance":1,"aperture_width":300,"aperture_height":300,"dot_color":["black","white","white","white","black","black","white","black","white","white","black","black","white","black","white","white","black","black","black","black","black","white","white","black","white","black","white","white","black","black","black","white","black","black","black","black","white","white","black","white","black","black","black","white","black","white","white","white","black","white","white","black","white","black","black","white","black","black","black","white","white","white","white","black","black","black","white","black","black","white","white","black","white","black","white","black","black","black","black","black","black","black","black","white","white","white","white","black","white","black","black","black","black","white","white","white","black","white","white","white","black","black","black","white","white","white","black","black","white","white","white","black","black","white","black","black","white","white","white","white","white","white","black","white","white","black","white","white","black","white","black","white","black","black","white","white","white","black","black","black","white","white","white","black","white","black","black","black","black","black","black","white","white","white","white","white","white","black","black","black","black","black","white","white","black","white","black","white","black","black","black","black","black","black","white","white","black","white","white","black","white","black","black","black","white","white","white","white","white","white","white","white","white","white","white","white","black","black","black","white"],"dot_shape":"circle","background_color":"#AAA","RDK_type":3,"aperture_type":2,"reinsert_type":2,"frame_rate":16.611570247933884,"frame_rate_array":[5,16,18,16,17,17,17,16,17,17,16,17,16,17,17,16,16,17,17,16,16,17,16,17,17,16,18,16,17,17,17,16,18,16,17,17,17,17,17,16,16,17,16,17,17,16,17,17,17,17,17,17,17,17,17,16,17,16,16,18,17,16,17,16,17,17,16,16,17,16,17,17,16,16,18,16,16,17,17,17,17,17,16,17,16,17,17,16,17,16,17,16,17,16,17,17,17,17,17,17,17,16,17,17,17,17,17,17,17,17,17,17,17,17,16,16,17,17,16,18,16],"number_of_frames":121,"aperture_center_x":614.5,"aperture_center_y":346,"fixation_cross":true,"fixation_cross_width":15,"fixation_cross_height":15,"fixation_cross_color":"#111","fixation_cross_thickness":1,"border":true,"border_thickness":2,"border_color":"transparent","canvas_width":1229,"canvas_height":692,"trial_type":"rdk","trial_index":84,"plugin_version":"2.0.0","time_elapsed":285135},{"rt":2250,"stimulus":"\n        <div class=\"response-container\">\n          <div class=\"response-instruction\">\n            <p>rotate the bar by using the left and right arrow keys.</p>\n            <p>when you are determined, press the Enter key.</p>\n          </div>\n          <div class=\"response-circle\">\n            <div class=\"response-fixation\"></div>\n            <div id=\"bar\" class=\"rotating-bar\"></div>\n          </div>\n        </div>\n      ","response":"Enter","trial_type":"html-keyboard-response","trial_index":85,"plugin_version":"2.1.0","time_elapsed":287386,"random_initial_angle":312,"response_angle_css":312,"response_angle_rdk":138,"angular_error_target":20,"angular_error_distractor":143,"target_direction":118,"target_group":"white","reward_points":6},{"rt":null,"stimulus":"\n          <p style=\"color: #00FF00;\">Your reward: 6 points</p>\n        ","response":null,"trial_type":"html-keyboard-response","trial_index":86,"plugin_version":"2.1.0","time_elapsed":289392},{"rt":null,"stimulus":"<div class=\"fixation\" style=\"font-size: 60px;\">+</div>","response":null,"trial_type":"html-keyboard-response","trial_index":87,"plugin_version":"2.1.0","time_elapsed":290400},{"phase":"learning-awareness","target_group":"black","condition_label":"B_H_vs_W_L_rep13","target_direction":195,"distractor_direction":298,"session_rotation":77,"rt":-1,"response":"","correct":false,"choices":"ALL_KEYS","correct_choice":["a"],"trial_duration":2000,"flip_timestamps":[],"response_ends_trial":false,"number_of_apertures":200,"number_of_dots":[1,1,1,1,1,1,1,1,1,1,1,1,1,1,1,1,1,1,1,1,1,1,1,1,1,1,1,1,1,1,1,1,1,1,1,1,1,1,1,1,1,1,1,1,1,1,1,1,1,1,1,1,1,1,1,1,1,1,1,1,1,1,1,1,1,1,1,1,1,1,1,1,1,1,1,1,1,1,1,1,1,1,1,1,1,1,1,1,1,1,1,1,1,1,1,1,1,1,1,1,1,1,1,1,1,1,1,1,1,1,1,1,1,1,1,1,1,1,1,1,1,1,1,1,1,1,1,1,1,1,1,1,1,1,1,1,1,1,1,1,1,1,1,1,1,1,1,1,1,1,1,1,1,1,1,1,1,1,1,1,1,1,1,1,1,1,1,1,1,1,1,1,1,1,1,1,1,1,1,1,1,1,1,1,1,1,1,1,1,1,1,1,1,1,1,1,1,1,1,1],"number_of_sets":1,"coherent_direction":[298,195,195,298,298,298,195,298,195,298,298,298,195,195,195,298,298,195,195,195,195,298,195,195,298,195,195,298,195,195,298,195,195,195,195,298,298,195,195,195,195,298,195,195,195,298,195,298,298,195,195,298,195,195,298,298,195,195,298,195,195,298,298,195,298,195,298,298,298,298,195,298,298,195,298,298,298,195,298,298,298,298,195,195,195,195,195,298,195,298,298,195,298,195,298,298,298,195,298,298,195,298,195,298,298,195,298,298,298,298,298,298,298,298,298,298,298,195,298,298,298,195,298,298,195,195,298,195,195,298,298,298,298,298,298,298,195,298,195,195,195,195,298,298,298,298,195,195,195,195,195,195,195,195,195,298,195,298,195,195,298,298,298,195,298,195,298,195,298,195,298,195,195,195,195,298,195,298,298,298,195,195,195,195,298,195,298,195,298,195,195,298,195,298,195,195,195,195,298,195],"coherence":1,"opposite_coherence":0,"dot_radius":2,"dot_side_length":1,"dot_life":-1,"move_distance":1,"aperture_width":300,"aperture_height":300,"dot_color":["white","black","black","white","white","white","black","white","black","white","white","white","black","black","black","white","white","black","black","black","black","white","black","black","white","black","black","white","black","black","white","black","black","black","black","white","white","black","black","black","black","white","black","black","black","white","black","white","white","black","black","white","black","black","white","white","black","black","white","black","black","white","white","black","white","black","white","white","white","white","black","white","white","black","white","white","white","black","white","white","white","white","black","black","black","black","black","white","black","white","white","black","white","black","white","white","white","black","white","white","black","white","black","white","white","black","white","white","white","white","white","white","white","white","white","white","white","black","white","white","white","black","white","white","black","black","white","black","black","white","white","white","white","white","white","white","black","white","black","black","black","black","white","white","white","white","black","black","black","black","black","black","black","black","black","white","black","white","black","black","white","white","white","black","white","black","white","black","white","black","white","black","black","black","black","white","black","white","white","white","black","black","black","black","white","black","white","black","white","black","black","white","black","white","black","black","black","black","white","black"],"dot_shape":"circle","background_color":"#AAA","RDK_type":3,"aperture_type":2,"reinsert_type":2,"frame_rate":16.875,"frame_rate_array":[17,16,17,17,17,17,16,17,16,17,17,17,17,17,17,17,17,17,17,16,17,17,17,17,17,17,17,17,17,17,17,17,17,17,17,17,17,17,17,16,17,17,17,17,17,17,17,17,16,17,17,16,17,16,17,17,17,17,17,17,17,17,17,17,17,17,17,16,17,17,17,17,17,17,17,17,17,17,17,17,17,17,17,17,17,17,17,17,17,16,17,17,17,17,16,17,17,17,17,17,16,17,17,17,16,17,17,17,16,17,17,17,17,17,17,17,17,16,17,17],"number_of_frames":120,"aperture_center_x":614.5,"aperture_center_y":346,"fixation_cross":true,"fixation_cross_width":15,"fixation_cross_height":15,"fixation_cross_color":"#111","fixation_cross_thickness":1,"border":true,"border_thickness":2,"border_color":"transparent","canvas_width":1229,"canvas_height":692,"trial_type":"rdk","trial_index":88,"plugin_version":"2.0.0","time_elapsed":292402},{"rt":2190,"stimulus":"\n        <div class=\"response-container\">\n          <div class=\"response-instruction\">\n            <p>rotate the bar by using the left and right arrow keys.</p>\n            <p>when you are determined, press the Enter key.</p>\n          </div>\n          <div class=\"response-circle\">\n            <div class=\"response-fixation\"></div>\n            <div id=\"bar\" class=\"rotating-bar\"></div>\n          </div>\n        </div>\n      ","response":"Enter","trial_type":"html-keyboard-response","trial_index":89,"plugin_version":"2.1.0","time_elapsed":294592,"random_initial_angle":310,"response_angle_css":278,"response_angle_rdk":172,"angular_error_target":-23,"angular_error_distractor":-126,"target_direction":195,"target_group":"black","reward_points":5},{"rt":null,"stimulus":"\n          <p style=\"color: #00FF00;\">Your reward: 5 points</p>\n        ","response":null,"trial_type":"html-keyboard-response","trial_index":90,"plugin_version":"2.1.0","time_elapsed":296594},{"rt":null,"stimulus":"<div class=\"fixation\" style=\"font-size: 60px;\">+</div>","response":null,"trial_type":"html-keyboard-response","trial_index":91,"plugin_version":"2.1.0","time_elapsed":297607},{"phase":"learning-awareness","target_group":"white","condition_label":"W_H_vs_B_L_rep21","target_direction":107,"distractor_direction":5,"session_rotation":77,"rt":-1,"response":"","correct":false,"choices":"ALL_KEYS","correct_choice":["a"],"trial_duration":2000,"flip_timestamps":[],"response_ends_trial":false,"number_of_apertures":200,"number_of_dots":[1,1,1,1,1,1,1,1,1,1,1,1,1,1,1,1,1,1,1,1,1,1,1,1,1,1,1,1,1,1,1,1,1,1,1,1,1,1,1,1,1,1,1,1,1,1,1,1,1,1,1,1,1,1,1,1,1,1,1,1,1,1,1,1,1,1,1,1,1,1,1,1,1,1,1,1,1,1,1,1,1,1,1,1,1,1,1,1,1,1,1,1,1,1,1,1,1,1,1,1,1,1,1,1,1,1,1,1,1,1,1,1,1,1,1,1,1,1,1,1,1,1,1,1,1,1,1,1,1,1,1,1,1,1,1,1,1,1,1,1,1,1,1,1,1,1,1,1,1,1,1,1,1,1,1,1,1,1,1,1,1,1,1,1,1,1,1,1,1,1,1,1,1,1,1,1,1,1,1,1,1,1,1,1,1,1,1,1,1,1,1,1,1,1,1,1,1,1,1,1],"number_of_sets":1,"coherent_direction":[5,107,107,5,5,107,5,107,107,107,107,107,5,5,5,107,107,5,5,107,107,107,107,107,107,5,5,5,107,107,107,5,5,107,107,107,107,5,5,107,5,107,107,5,107,107,5,5,107,107,5,107,107,5,5,107,107,107,107,107,107,5,107,5,5,5,107,5,107,5,107,107,5,5,5,107,5,5,5,107,5,107,5,107,5,5,107,5,107,5,107,5,107,5,107,5,107,107,5,5,5,107,107,107,107,5,107,5,107,5,107,107,107,5,5,5,5,5,5,107,5,107,107,107,107,107,5,5,5,107,107,107,5,5,107,107,107,5,107,5,5,107,5,5,107,107,107,107,5,5,5,5,5,107,107,5,5,5,107,5,107,5,5,107,107,107,107,5,107,5,5,5,107,5,5,5,5,5,107,5,5,5,5,5,107,107,107,5,107,5,5,107,5,5,5,107,5,107,5,107],"coherence":1,"opposite_coherence":0,"dot_radius":2,"dot_side_length":1,"dot_life":-1,"move_distance":1,"aperture_width":300,"aperture_height":300,"dot_color":["black","white","white","black","black","white","black","white","white","white","white","white","black","black","black","white","white","black","black","white","white","white","white","white","white","black","black","black","white","white","white","black","black","white","white","white","white","black","black","white","black","white","white","black","white","white","black","black","white","white","black","white","white","black","black","white","white","white","white","white","white","black","white","black","black","black","white","black","white","black","white","white","black","black","black","white","black","black","black","white","black","white","black","white","black","black","white","black","white","black","white","black","white","black","white","black","white","white","black","black","black","white","white","white","white","black","white","black","white","black","white","white","white","black","black","black","black","black","black","white","black","white","white","white","white","white","black","black","black","white","white","white","black","black","white","white","white","black","white","black","black","white","black","black","white","white","white","white","black","black","black","black","black","white","white","black","black","black","white","black","white","black","black","white","white","white","white","black","white","black","black","black","white","black","black","black","black","black","white","black","black","black","black","black","white","white","white","black","white","black","black","white","black","black","black","white","black","white","black","white"],"dot_shape":"circle","background_color":"#AAA","RDK_type":3,"aperture_type":2,"reinsert_type":2,"frame_rate":16.760330578512395,"frame_rate_array":[8,17,17,17,17,17,17,17,16,17,17,17,17,16,17,17,16,17,17,16,17,17,17,16,18,16,16,17,16,17,17,16,17,17,16,17,17,17,17,18,16,16,18,16,17,17,16,17,17,16,16,17,17,17,17,16,18,17,16,17,17,17,17,17,17,17,17,17,17,17,17,17,17,17,17,17,17,17,17,17,17,17,17,17,17,17,17,17,17,17,17,17,16,17,16,17,17,17,17,17,16,17,17,17,17,17,17,17,17,16,17,17,16,17,17,17,17,17,16,17,17],"number_of_frames":121,"aperture_center_x":614.5,"aperture_center_y":346,"fixation_cross":true,"fixation_cross_width":15,"fixation_cross_height":15,"fixation_cross_color":"#111","fixation_cross_thickness":1,"border":true,"border_thickness":2,"border_color":"transparent","canvas_width":1229,"canvas_height":692,"trial_type":"rdk","trial_index":92,"plugin_version":"2.0.0","time_elapsed":299617},{"rt":3805,"stimulus":"\n        <div class=\"response-container\">\n          <div class=\"response-instruction\">\n            <p>rotate the bar by using the left and right arrow keys.</p>\n            <p>when you are determined, press the Enter key.</p>\n          </div>\n          <div class=\"response-circle\">\n            <div class=\"response-fixation\"></div>\n            <div id=\"bar\" class=\"rotating-bar\"></div>\n          </div>\n        </div>\n      ","response":"Enter","trial_type":"html-keyboard-response","trial_index":93,"plugin_version":"2.1.0","time_elapsed":303423,"random_initial_angle":356,"response_angle_css":334,"response_angle_rdk":116,"angular_error_target":9,"angular_error_distractor":111,"target_direction":107,"target_group":"white","reward_points":8},{"rt":null,"stimulus":"\n          <p style=\"color: #00FF00;\">Your reward: 8 points</p>\n        ","response":null,"trial_type":"html-keyboard-response","trial_index":94,"plugin_version":"2.1.0","time_elapsed":305428},{"rt":null,"stimulus":"<div class=\"fixation\" style=\"font-size: 60px;\">+</div>","response":null,"trial_type":"html-keyboard-response","trial_index":95,"plugin_version":"2.1.0","time_elapsed":306432},{"phase":"learning-awareness","target_group":"white","condition_label":"W_H_vs_B_L_rep24","target_direction":95,"distractor_direction":4,"session_rotation":77,"rt":-1,"response":"","correct":false,"choices":"ALL_KEYS","correct_choice":["a"],"trial_duration":2000,"flip_timestamps":[],"response_ends_trial":false,"number_of_apertures":200,"number_of_dots":[1,1,1,1,1,1,1,1,1,1,1,1,1,1,1,1,1,1,1,1,1,1,1,1,1,1,1,1,1,1,1,1,1,1,1,1,1,1,1,1,1,1,1,1,1,1,1,1,1,1,1,1,1,1,1,1,1,1,1,1,1,1,1,1,1,1,1,1,1,1,1,1,1,1,1,1,1,1,1,1,1,1,1,1,1,1,1,1,1,1,1,1,1,1,1,1,1,1,1,1,1,1,1,1,1,1,1,1,1,1,1,1,1,1,1,1,1,1,1,1,1,1,1,1,1,1,1,1,1,1,1,1,1,1,1,1,1,1,1,1,1,1,1,1,1,1,1,1,1,1,1,1,1,1,1,1,1,1,1,1,1,1,1,1,1,1,1,1,1,1,1,1,1,1,1,1,1,1,1,1,1,1,1,1,1,1,1,1,1,1,1,1,1,1,1,1,1,1,1,1],"number_of_sets":1,"coherent_direction":[4,95,4,4,95,4,95,95,4,4,95,95,4,4,95,4,95,95,4,95,95,4,95,4,4,4,4,95,95,95,95,4,95,95,4,4,4,95,4,95,95,4,4,4,95,95,4,4,95,4,95,95,95,95,95,95,4,4,95,4,4,4,4,4,4,95,95,95,4,4,95,4,4,4,95,4,4,95,4,4,95,4,95,95,4,4,4,4,95,4,4,95,95,95,4,95,95,95,4,95,95,95,95,4,95,4,95,95,4,95,95,4,4,95,95,4,4,4,4,4,4,95,95,4,95,95,4,95,4,4,95,4,95,4,95,4,4,4,95,95,4,4,4,95,95,4,95,4,95,4,4,4,95,4,4,95,95,95,95,95,95,95,4,4,4,4,95,95,4,95,95,4,95,95,95,95,4,95,95,4,4,4,4,95,4,4,4,4,4,95,95,4,95,95,4,95,95,95,95,95],"coherence":1,"opposite_coherence":0,"dot_radius":2,"dot_side_length":1,"dot_life":-1,"move_distance":1,"aperture_width":300,"aperture_height":300,"dot_color":["black","white","black","black","white","black","white","white","black","black","white","white","black","black","white","black","white","white","black","white","white","black","white","black","black","black","black","white","white","white","white","black","white","white","black","black","black","white","black","white","white","black","black","black","white","white","black","black","white","black","white","white","white","white","white","white","black","black","white","black","black","black","black","black","black","white","white","white","black","black","white","black","black","black","white","black","black","white","black","black","white","black","white","white","black","black","black","black","white","black","black","white","white","white","black","white","white","white","black","white","white","white","white","black","white","black","white","white","black","white","white","black","black","white","white","black","black","black","black","black","black","white","white","black","white","white","black","white","black","black","white","black","white","black","white","black","black","black","white","white","black","black","black","white","white","black","white","black","white","black","black","black","white","black","black","white","white","white","white","white","white","white","black","black","black","black","white","white","black","white","white","black","white","white","white","white","black","white","white","black","black","black","black","white","black","black","black","black","black","white","white","black","white","white","black","white","white","white","white","white"],"dot_shape":"circle","background_color":"#AAA","RDK_type":3,"aperture_type":2,"reinsert_type":2,"frame_rate":16.791666666666668,"frame_rate_array":[16,16,17,17,16,17,17,17,16,17,17,16,17,17,16,17,17,17,16,17,17,17,17,17,17,17,17,17,17,16,17,17,17,17,17,17,17,16,17,16,17,17,17,17,17,16,17,16,17,16,16,17,17,17,17,16,17,17,17,17,17,17,17,17,17,16,17,17,17,17,16,17,17,17,16,17,17,17,17,17,16,17,17,17,17,17,17,17,17,17,17,17,17,16,17,16,17,16,17,17,17,17,17,17,17,17,17,17,16,17,16,17,17,17,17,17,17,16,17,17],"number_of_frames":120,"aperture_center_x":614.5,"aperture_center_y":346,"fixation_cross":true,"fixation_cross_width":15,"fixation_cross_height":15,"fixation_cross_color":"#111","fixation_cross_thickness":1,"border":true,"border_thickness":2,"border_color":"transparent","canvas_width":1229,"canvas_height":692,"trial_type":"rdk","trial_index":96,"plugin_version":"2.0.0","time_elapsed":308441},{"rt":5289,"stimulus":"\n        <div class=\"response-container\">\n          <div class=\"response-instruction\">\n            <p>rotate the bar by using the left and right arrow keys.</p>\n            <p>when you are determined, press the Enter key.</p>\n          </div>\n          <div class=\"response-circle\">\n            <div class=\"response-fixation\"></div>\n            <div id=\"bar\" class=\"rotating-bar\"></div>\n          </div>\n        </div>\n      ","response":"Enter","trial_type":"html-keyboard-response","trial_index":97,"plugin_version":"2.1.0","time_elapsed":313731,"random_initial_angle":90,"response_angle_css":-31,"response_angle_rdk":121,"angular_error_target":26,"angular_error_distractor":117,"target_direction":95,"target_group":"white","reward_points":4},{"rt":null,"stimulus":"\n          <p style=\"color: #00FF00;\">Your reward: 4 points</p>\n        ","response":null,"trial_type":"html-keyboard-response","trial_index":98,"plugin_version":"2.1.0","time_elapsed":315746},{"rt":null,"stimulus":"<div class=\"fixation\" style=\"font-size: 60px;\">+</div>","response":null,"trial_type":"html-keyboard-response","trial_index":99,"plugin_version":"2.1.0","time_elapsed":316757},{"phase":"learning-awareness","target_group":"black","condition_label":"B_H_vs_W_L_rep17","target_direction":184,"distractor_direction":297,"session_rotation":77,"rt":-1,"response":"","correct":false,"choices":"ALL_KEYS","correct_choice":["a"],"trial_duration":2000,"flip_timestamps":[],"response_ends_trial":false,"number_of_apertures":200,"number_of_dots":[1,1,1,1,1,1,1,1,1,1,1,1,1,1,1,1,1,1,1,1,1,1,1,1,1,1,1,1,1,1,1,1,1,1,1,1,1,1,1,1,1,1,1,1,1,1,1,1,1,1,1,1,1,1,1,1,1,1,1,1,1,1,1,1,1,1,1,1,1,1,1,1,1,1,1,1,1,1,1,1,1,1,1,1,1,1,1,1,1,1,1,1,1,1,1,1,1,1,1,1,1,1,1,1,1,1,1,1,1,1,1,1,1,1,1,1,1,1,1,1,1,1,1,1,1,1,1,1,1,1,1,1,1,1,1,1,1,1,1,1,1,1,1,1,1,1,1,1,1,1,1,1,1,1,1,1,1,1,1,1,1,1,1,1,1,1,1,1,1,1,1,1,1,1,1,1,1,1,1,1,1,1,1,1,1,1,1,1,1,1,1,1,1,1,1,1,1,1,1,1],"number_of_sets":1,"coherent_direction":[184,297,184,184,184,297,184,297,297,184,184,184,184,184,297,297,297,184,297,297,184,184,184,184,297,184,297,297,297,184,297,297,297,297,297,297,297,297,184,184,297,297,297,184,184,297,297,297,184,297,184,184,184,297,184,184,297,297,297,297,297,297,184,297,297,297,297,184,184,184,184,184,184,184,297,297,184,297,184,297,297,184,297,297,184,184,184,184,184,184,297,297,184,297,184,297,297,297,184,297,184,184,297,184,184,297,297,297,184,297,184,184,184,184,184,184,184,297,297,297,184,184,184,184,184,184,297,297,184,297,297,297,297,297,184,184,184,297,297,297,184,297,184,184,297,297,297,184,184,184,297,297,184,184,297,184,297,297,297,184,297,184,184,184,184,297,297,297,297,184,297,184,297,184,184,297,297,184,297,297,184,184,297,297,297,184,297,184,297,184,297,184,184,184,184,184,184,184,297,297],"coherence":1,"opposite_coherence":0,"dot_radius":2,"dot_side_length":1,"dot_life":-1,"move_distance":1,"aperture_width":300,"aperture_height":300,"dot_color":["black","white","black","black","black","white","black","white","white","black","black","black","black","black","white","white","white","black","white","white","black","black","black","black","white","black","white","white","white","black","white","white","white","white","white","white","white","white","black","black","white","white","white","black","black","white","white","white","black","white","black","black","black","white","black","black","white","white","white","white","white","white","black","white","white","white","white","black","black","black","black","black","black","black","white","white","black","white","black","white","white","black","white","white","black","black","black","black","black","black","white","white","black","white","black","white","white","white","black","white","black","black","white","black","black","white","white","white","black","white","black","black","black","black","black","black","black","white","white","white","black","black","black","black","black","black","white","white","black","white","white","white","white","white","black","black","black","white","white","white","black","white","black","black","white","white","white","black","black","black","white","white","black","black","white","black","white","white","white","black","white","black","black","black","black","white","white","white","white","black","white","black","white","black","black","white","white","black","white","white","black","black","white","white","white","black","white","black","white","black","white","black","black","black","black","black","black","black","white","white"],"dot_shape":"circle","background_color":"#AAA","RDK_type":3,"aperture_type":2,"reinsert_type":2,"frame_rate":16.694214876033058,"frame_rate_array":[6,17,17,17,16,17,17,17,16,17,17,17,17,17,17,16,17,17,16,17,17,17,17,17,17,17,17,17,17,17,17,17,17,16,16,17,17,16,17,16,17,17,17,17,17,17,17,17,17,17,17,17,16,16,17,17,17,17,16,17,17,16,17,17,16,17,16,17,17,17,16,18,17,16,17,17,16,17,17,17,16,17,17,17,16,17,17,17,16,17,17,17,17,17,17,17,16,17,17,17,16,17,17,17,17,17,16,17,16,16,17,17,16,17,17,16,17,17,17,17,17],"number_of_frames":121,"aperture_center_x":614.5,"aperture_center_y":346,"fixation_cross":true,"fixation_cross_width":15,"fixation_cross_height":15,"fixation_cross_color":"#111","fixation_cross_thickness":1,"border":true,"border_thickness":2,"border_color":"transparent","canvas_width":1229,"canvas_height":692,"trial_type":"rdk","trial_index":100,"plugin_version":"2.0.0","time_elapsed":318767},{"rt":2780,"stimulus":"\n        <div class=\"response-container\">\n          <div class=\"response-instruction\">\n            <p>rotate the bar by using the left and right arrow keys.</p>\n            <p>when you are determined, press the Enter key.</p>\n          </div>\n          <div class=\"response-circle\">\n            <div class=\"response-fixation\"></div>\n            <div id=\"bar\" class=\"rotating-bar\"></div>\n          </div>\n        </div>\n      ","response":"Enter","trial_type":"html-keyboard-response","trial_index":101,"plugin_version":"2.1.0","time_elapsed":321548,"random_initial_angle":344,"response_angle_css":275,"response_angle_rdk":175,"angular_error_target":-9,"angular_error_distractor":-122,"target_direction":184,"target_group":"black","reward_points":8},{"rt":null,"stimulus":"\n          <p style=\"color: #00FF00;\">Your reward: 8 points</p>\n        ","response":null,"trial_type":"html-keyboard-response","trial_index":102,"plugin_version":"2.1.0","time_elapsed":323564},{"rt":null,"stimulus":"<div class=\"fixation\" style=\"font-size: 60px;\">+</div>","response":null,"trial_type":"html-keyboard-response","trial_index":103,"plugin_version":"2.1.0","time_elapsed":324575},{"phase":"learning-awareness","target_group":"white","condition_label":"W_H_vs_B_L_rep22","target_direction":120,"distractor_direction":353,"session_rotation":77,"rt":-1,"response":"","correct":false,"choices":"ALL_KEYS","correct_choice":["a"],"trial_duration":2000,"flip_timestamps":[],"response_ends_trial":false,"number_of_apertures":200,"number_of_dots":[1,1,1,1,1,1,1,1,1,1,1,1,1,1,1,1,1,1,1,1,1,1,1,1,1,1,1,1,1,1,1,1,1,1,1,1,1,1,1,1,1,1,1,1,1,1,1,1,1,1,1,1,1,1,1,1,1,1,1,1,1,1,1,1,1,1,1,1,1,1,1,1,1,1,1,1,1,1,1,1,1,1,1,1,1,1,1,1,1,1,1,1,1,1,1,1,1,1,1,1,1,1,1,1,1,1,1,1,1,1,1,1,1,1,1,1,1,1,1,1,1,1,1,1,1,1,1,1,1,1,1,1,1,1,1,1,1,1,1,1,1,1,1,1,1,1,1,1,1,1,1,1,1,1,1,1,1,1,1,1,1,1,1,1,1,1,1,1,1,1,1,1,1,1,1,1,1,1,1,1,1,1,1,1,1,1,1,1,1,1,1,1,1,1,1,1,1,1,1,1],"number_of_sets":1,"coherent_direction":[353,353,353,353,120,120,120,120,353,353,353,353,353,120,353,120,120,353,120,353,353,120,120,353,353,120,120,353,353,353,353,353,120,353,120,353,353,120,353,120,120,353,353,120,120,120,353,120,120,120,353,353,120,353,120,353,353,120,120,120,120,353,120,353,120,120,120,120,353,120,120,120,353,120,353,353,120,353,353,353,353,353,353,353,120,120,353,120,120,120,353,120,353,353,353,120,353,120,353,120,353,353,120,120,353,353,120,353,353,353,120,353,120,353,353,353,353,120,120,120,353,353,120,353,353,120,120,353,120,120,353,353,120,353,120,120,353,120,353,120,120,120,353,120,353,120,353,353,120,353,120,353,353,353,120,120,353,353,120,353,120,120,353,353,120,120,353,120,120,120,353,120,120,120,120,120,353,353,120,353,353,120,120,120,120,120,120,353,120,353,353,120,120,353,120,120,353,120,353,353],"coherence":1,"opposite_coherence":0,"dot_radius":2,"dot_side_length":1,"dot_life":-1,"move_distance":1,"aperture_width":300,"aperture_height":300,"dot_color":["black","black","black","black","white","white","white","white","black","black","black","black","black","white","black","white","white","black","white","black","black","white","white","black","black","white","white","black","black","black","black","black","white","black","white","black","black","white","black","white","white","black","black","white","white","white","black","white","white","white","black","black","white","black","white","black","black","white","white","white","white","black","white","black","white","white","white","white","black","white","white","white","black","white","black","black","white","black","black","black","black","black","black","black","white","white","black","white","white","white","black","white","black","black","black","white","black","white","black","white","black","black","white","white","black","black","white","black","black","black","white","black","white","black","black","black","black","white","white","white","black","black","white","black","black","white","white","black","white","white","black","black","white","black","white","white","black","white","black","white","white","white","black","white","black","white","black","black","white","black","white","black","black","black","white","white","black","black","white","black","white","white","black","black","white","white","black","white","white","white","black","white","white","white","white","white","black","black","white","black","black","white","white","white","white","white","white","black","white","black","black","white","white","black","white","white","black","white","black","black"],"dot_shape":"circle","background_color":"#AAA","RDK_type":3,"aperture_type":2,"reinsert_type":2,"frame_rate":16.68595041322314,"frame_rate_array":[7,17,17,16,17,17,17,17,17,17,17,17,17,17,17,17,17,17,16,17,17,16,17,17,17,17,17,17,17,17,17,17,17,17,17,17,17,16,16,16,17,17,17,17,17,16,17,17,16,17,17,16,17,16,17,17,16,17,17,17,16,17,17,16,17,17,16,17,17,16,17,18,16,17,17,16,17,17,16,17,17,16,17,17,17,17,17,16,17,16,17,17,17,16,17,16,17,17,17,17,17,17,16,17,17,16,17,17,16,17,16,17,17,17,16,17,17,17,17,16,17],"number_of_frames":121,"aperture_center_x":614.5,"aperture_center_y":346,"fixation_cross":true,"fixation_cross_width":15,"fixation_cross_height":15,"fixation_cross_color":"#111","fixation_cross_thickness":1,"border":true,"border_thickness":2,"border_color":"transparent","canvas_width":1229,"canvas_height":692,"trial_type":"rdk","trial_index":104,"plugin_version":"2.0.0","time_elapsed":326583},{"rt":5509,"stimulus":"\n        <div class=\"response-container\">\n          <div class=\"response-instruction\">\n            <p>rotate the bar by using the left and right arrow keys.</p>\n            <p>when you are determined, press the Enter key.</p>\n          </div>\n          <div class=\"response-circle\">\n            <div class=\"response-fixation\"></div>\n            <div id=\"bar\" class=\"rotating-bar\"></div>\n          </div>\n        </div>\n      ","response":"Enter","trial_type":"html-keyboard-response","trial_index":105,"plugin_version":"2.1.0","time_elapsed":332093,"random_initial_angle":205,"response_angle_css":307,"response_angle_rdk":143,"angular_error_target":23,"angular_error_distractor":150,"target_direction":120,"target_group":"white","reward_points":5},{"rt":null,"stimulus":"\n          <p style=\"color: #00FF00;\">Your reward: 5 points</p>\n        ","response":null,"trial_type":"html-keyboard-response","trial_index":106,"plugin_version":"2.1.0","time_elapsed":334097},{"rt":null,"stimulus":"<div class=\"fixation\" style=\"font-size: 60px;\">+</div>","response":null,"trial_type":"ht