[{"rt":50544,"stimulus":"Welcome to the experiment. Press any key to begin.","response":" ","trial_type":"html-keyboard-response","trial_index":0,"plugin_version":"2.1.0","time_elapsed":50549},{"rt":231863,"stimulus":"\n        <div class=\"instructions-container\">\n          <h2>Instructions</h2>\n\n          <p>\n          In this experiment, you will see <strong>two Random Dot Kinematograms (RDKs)</strong> displayed simultaneously.\n          </p>\n\n          <p>\n          An RDK is a visual stimulus consisting of many small dots that move coherently in a single direction. \n          In this experiment, the dots will be either <strong>white</strong> or <strong>black</strong> \n          (see the short demo below for an example of an RDK stimulus).\n          </p>\n\n          <p>\n          On each trial, the two RDKs will move in different directions. \n          Your task is to decide <strong>which RDK appears to contain more dots</strong>.\n          </p>\n\n          <p>\n          The RDK that you judge to have more dots is called the <strong>target RDK</strong>. \n          For example, if the white RDK appears to have more dots than the black RDK, \n          you should report the motion direction of the white RDK.\n          </p>\n\n          <p>\n          After viewing the RDKs, you will rotate a bar to indicate the perceived direction of the target RDK \n          using the <strong>left</strong> and <strong>right arrow keys</strong>. \n          Press <strong>Enter</strong> when you are satisfied with your response.\n          When the bar is held down, the rotation speed increases.\n          </p>\n\n          <p>\n          You will receive points based on the <strong>accuracy of your response</strong>, \n          and your final <strong>bonus reward</strong> may depend on your overall performance. \n          Please try to respond as accurately as possible.\n          </p>\n\n          <p>\n          You will first complete <strong>16 practice trials</strong>. \n          Press the <strong>Enter</strong> key to start the practice phase.\n          </p>\n\n          <canvas id=\"instruction-demo-rdk\" width=\"200\" height=\"200\"style=\"display:block;margin:12px auto; border-radius: 50%;\"></canvas>\n        </div>\n      ","response":"Enter","trial_type":"html-keyboard-response","trial_index":1,"plugin_version":"2.1.0","time_elapsed":282420},{"rt":null,"stimulus":"<div class=\"fixation\" style=\"font-size: 60px;\">+</div>","response":null,"trial_type":"html-keyboard-response","trial_index":2,"plugin_version":"2.1.0","time_elapsed":283427},{"target_group":"black","target_index":1,"condition_label":"practice","rt":-1,"response":"","correct":false,"choices":"ALL_KEYS","correct_choice":["a"],"trial_duration":2000,"flip_timestamps":[],"response_ends_trial":false,"number_of_apertures":2,"number_of_dots":[70,100],"number_of_sets":1,"coherent_direction":[57,320],"coherence":1,"opposite_coherence":0,"dot_radius":2,"dot_side_length":1,"dot_life":-1,"move_distance":1,"aperture_width":300,"aperture_height":300,"dot_color":["white","black"],"dot_shape":"circle","background_color":"#AAA","RDK_type":3,"aperture_type":2,"reinsert_type":2,"frame_rate":20.833333333333332,"frame_rate_array":[18,20,22,20,21,20,21,21,21,21,21,21,20,21,20,21,22,20,22,20,21,20,22,20,22,20,21,21,20,22,20,21,21,20,22,21,21,21,20,21,21,20,20,21,22,20,21,20,21,21,20,21,21,21,22,20,21,21,21,21,21,21,21,20,21,20,21,21,21,21,21,21,21,21,21,21,21,22,20,21,21,20,22,20,21,21,21,21,22,21,21,22,21,21,21,20],"number_of_frames":96,"aperture_center_x":683,"aperture_center_y":384,"fixation_cross":true,"fixation_cross_width":15,"fixation_cross_height":15,"fixation_cross_color":"#111","fixation_cross_thickness":1,"border":true,"border_thickness":2,"border_color":"transparent","canvas_width":1366,"canvas_height":768,"trial_type":"rdk","trial_index":3,"plugin_version":"2.0.0","time_elapsed":285452,"phase":"practice","target_direction":320,"distractor_direction":57},{"rt":15996,"stimulus":"\n        <div class=\"response-container\">\n          <div class=\"response-instruction\">\n            <p>rotate the bar by using the left and right arrow keys.</p>\n            <p>when you are determined, press the Enter key.</p>\n          </div>\n          <div class=\"response-circle\">\n            <div class=\"response-fixation\"></div>\n            <div id=\"bar\" class=\"rotating-bar\"></div>\n          </div>\n        </div>\n      ","response":"Enter","trial_type":"html-keyboard-response","trial_index":4,"plugin_version":"2.1.0","time_elapsed":301450,"random_initial_angle":186,"response_angle_css":131,"response_angle_rdk":319,"angular_error_target":-1,"angular_error_distractor":-98,"target_direction":320,"target_group":"black","reward_points":9},{"rt":null,"stimulus":"\n          <p style=\"color: #00FF00;\">Your reward: 9 points</p>\n        ","response":null,"trial_type":"html-keyboard-response","trial_index":5,"plugin_version":"2.1.0","time_elapsed":303465},{"rt":null,"stimulus":"<div class=\"fixation\" style=\"font-size: 60px;\">+</div>","response":null,"trial_type":"html-keyboard-response","trial_index":6,"plugin_version":"2.1.0","time_elapsed":304482},{"target_group":"black","target_index":1,"condition_label":"practice","rt":-1,"response":"","correct":false,"choices":"ALL_KEYS","correct_choice":["a"],"trial_duration":2000,"flip_timestamps":[],"response_ends_trial":false,"number_of_apertures":2,"number_of_dots":[85,100],"number_of_sets":1,"coherent_direction":[3,234],"coherence":1,"opposite_coherence":0,"dot_radius":2,"dot_side_length":1,"dot_life":-1,"move_distance":1,"aperture_width":300,"aperture_height":300,"dot_color":["white","black"],"dot_shape":"circle","background_color":"#AAA","RDK_type":3,"aperture_type":2,"reinsert_type":2,"frame_rate":20.708333333333332,"frame_rate_array":[3,15,20,22,20,22,21,21,22,21,20,21,21,21,21,20,19,21,22,22,21,21,22,20,22,21,20,21,21,21,20,21,22,20,21,21,21,21,21,22,21,20,21,21,21,22,20,21,21,22,21,21,22,19,21,21,20,21,21,20,20,21,21,21,21,21,21,21,21,22,21,21,21,22,22,19,21,25,18,21,21,20,21,21,21,21,22,20,22,20,21,20,22,20,22,21],"number_of_frames":96,"aperture_center_x":683,"aperture_center_y":384,"fixation_cross":true,"fixation_cross_width":15,"fixation_cross_height":15,"fixation_cross_color":"#111","fixation_cross_thickness":1,"border":true,"border_thickness":2,"border_color":"transparent","canvas_width":1366,"canvas_height":768,"trial_type":"rdk","trial_index":7,"plugin_version":"2.0.0","time_elapsed":306488,"phase":"practice","target_direction":234,"distractor_direction":3},{"rt":12493,"stimulus":"\n        <div class=\"response-container\">\n          <div class=\"response-instruction\">\n            <p>rotate the bar by using the left and right arrow keys.</p>\n            <p>when you are determined, press the Enter key.</p>\n          </div>\n          <div class=\"response-circle\">\n            <div class=\"response-fixation\"></div>\n            <div id=\"bar\" class=\"rotating-bar\"></div>\n          </div>\n        </div>\n      ","response":"Enter","trial_type":"html-keyboard-response","trial_index":8,"plugin_version":"2.1.0","time_elapsed":318983,"random_initial_angle":57,"response_angle_css":56,"response_angle_rdk":34,"angular_error_target":160,"angular_error_distractor":31,"target_direction":234,"target_group":"black","reward_points":0},{"rt":null,"stimulus":"\n          <p style=\"color: #FF3333;\">Your reward: 0 points</p>\n        ","response":null,"trial_type":"html-keyboard-response","trial_index":9,"plugin_version":"2.1.0","time_elapsed":320993},{"rt":null,"stimulus":"<div class=\"fixation\" style=\"font-size: 60px;\">+</div>","response":null,"trial_type":"html-keyboard-response","trial_index":10,"plugin_version":"2.1.0","time_elapsed":322011},{"target_group":"white","target_index":0,"condition_label":"practice","rt":-1,"response":"","correct":false,"choices":"ALL_KEYS","correct_choice":["a"],"trial_duration":2000,"flip_timestamps":[],"response_ends_trial":false,"number_of_apertures":2,"number_of_dots":[100,92],"number_of_sets":1,"coherent_direction":[155,57],"coherence":1,"opposite_coherence":0,"dot_radius":2,"dot_side_length":1,"dot_life":-1,"move_distance":1,"aperture_width":300,"aperture_height":300,"dot_color":["white","black"],"dot_shape":"circle","background_color":"#AAA","RDK_type":3,"aperture_type":2,"reinsert_type":2,"frame_rate":20.84375,"frame_rate_array":[13,21,21,21,21,22,21,20,22,21,21,21,21,20,21,21,21,21,21,21,21,21,21,21,21,21,21,21,21,20,21,21,21,24,18,21,21,20,22,20,20,21,21,22,20,21,21,21,21,20,21,21,21,21,21,21,21,21,21,21,21,21,21,21,21,22,21,20,21,21,21,21,20,21,21,20,21,20,21,21,21,21,21,21,21,21,21,21,21,21,21,21,21,21,21,21],"number_of_frames":96,"aperture_center_x":683,"aperture_center_y":384,"fixation_cross":true,"fixation_cross_width":15,"fixation_cross_height":15,"fixation_cross_color":"#111","fixation_cross_thickness":1,"border":true,"border_thickness":2,"border_color":"transparent","canvas_width":1366,"canvas_height":768,"trial_type":"rdk","trial_index":11,"plugin_version":"2.0.0","time_elapsed":324017,"phase":"practice","target_direction":155,"distractor_direction":57},{"rt":6854,"stimulus":"\n        <div class=\"response-container\">\n          <div class=\"response-instruction\">\n            <p>rotate the bar by using the left and right arrow keys.</p>\n            <p>when you are determined, press the Enter key.</p>\n          </div>\n          <div class=\"response-circle\">\n            <div class=\"response-fixation\"></div>\n            <div id=\"bar\" class=\"rotating-bar\"></div>\n          </div>\n        </div>\n      ","response":"Enter","trial_type":"html-keyboard-response","trial_index":12,"plugin_version":"2.1.0","time_elapsed":330872,"random_initial_angle":154,"response_angle_css":-59,"response_angle_rdk":149,"angular_error_target":-6,"angular_error_distractor":92,"target_direction":155,"target_group":"white","reward_points":8},{"rt":null,"stimulus":"\n          <p style=\"color: #00FF00;\">Your reward: 8 points</p>\n        ","response":null,"trial_type":"html-keyboard-response","trial_index":13,"plugin_version":"2.1.0","time_elapsed":332884},{"rt":null,"stimulus":"<div class=\"fixation\" style=\"font-size: 60px;\">+</div>","response":null,"trial_type":"html-keyboard-response","trial_index":14,"plugin_version":"2.1.0","time_elapsed":333895},{"target_group":"black","target_index":1,"condition_label":"practice","rt":-1,"response":"","correct":false,"choices":"ALL_KEYS","correct_choice":["a"],"trial_duration":2000,"flip_timestamps":[],"response_ends_trial":false,"number_of_apertures":2,"number_of_dots":[94,100],"number_of_sets":1,"coherent_direction":[101,328],"coherence":1,"opposite_coherence":0,"dot_radius":2,"dot_side_length":1,"dot_life":-1,"move_distance":1,"aperture_width":300,"aperture_height":300,"dot_color":["white","black"],"dot_shape":"circle","background_color":"#AAA","RDK_type":3,"aperture_type":2,"reinsert_type":2,"frame_rate":20.670103092783506,"frame_rate_array":[3,16,21,22,20,21,22,21,21,21,19,22,20,22,21,20,22,21,20,21,21,22,20,21,22,20,22,20,20,21,21,22,20,21,21,21,21,21,21,21,22,20,21,20,21,21,22,20,21,22,21,19,21,21,22,20,20,21,21,21,21,21,21,22,21,20,20,22,21,20,21,21,22,20,21,20,22,21,20,21,20,22,21,21,21,21,21,22,18,20,21,21,21,21,21,22,21],"number_of_frames":97,"aperture_center_x":683,"aperture_center_y":384,"fixation_cross":true,"fixation_cross_width":15,"fixation_cross_height":15,"fixation_cross_color":"#111","fixation_cross_thickness":1,"border":true,"border_thickness":2,"border_color":"transparent","canvas_width":1366,"canvas_height":768,"trial_type":"rdk","trial_index":15,"plugin_version":"2.0.0","time_elapsed":335910,"phase":"practice","target_direction":328,"distractor_direction":101},{"rt":13962,"stimulus":"\n        <div class=\"response-container\">\n          <div class=\"response-instruction\">\n            <p>rotate the bar by using the left and right arrow keys.</p>\n            <p>when you are determined, press the Enter key.</p>\n          </div>\n          <div class=\"response-circle\">\n            <div class=\"response-fixation\"></div>\n            <div id=\"bar\" class=\"rotating-bar\"></div>\n          </div>\n        </div>\n      ","response":"Enter","trial_type":"html-keyboard-response","trial_index":16,"plugin_version":"2.1.0","time_elapsed":349872,"random_initial_angle":248,"response_angle_css":468,"response_angle_rdk":342,"angular_error_target":14,"angular_error_distractor":-119,"target_direction":328,"target_group":"black","reward_points":7},{"rt":null,"stimulus":"\n          <p style=\"color: #00FF00;\">Your reward: 7 points</p>\n        ","response":null,"trial_type":"html-keyboard-response","trial_index":17,"plugin_version":"2.1.0","time_elapsed":351877},{"rt":null,"stimulus":"<div class=\"fixation\" style=\"font-size: 60px;\">+</div>","response":null,"trial_type":"html-keyboard-response","trial_index":18,"plugin_version":"2.1.0","time_elapsed":352884},{"target_group":"black","target_index":1,"condition_label":"practice","rt":-1,"response":"","correct":false,"choices":"ALL_KEYS","correct_choice":["a"],"trial_duration":2000,"flip_timestamps":[],"response_ends_trial":false,"number_of_apertures":2,"number_of_dots":[98,100],"number_of_sets":1,"coherent_direction":[88,358],"coherence":1,"opposite_coherence":0,"dot_radius":2,"dot_side_length":1,"dot_life":-1,"move_distance":1,"aperture_width":300,"aperture_height":300,"dot_color":["white","black"],"dot_shape":"circle","background_color":"#AAA","RDK_type":3,"aperture_type":2,"reinsert_type":2,"frame_rate":20.822916666666668,"frame_rate_array":[9,21,20,21,21,21,21,21,21,21,21,21,21,21,20,21,21,21,21,20,22,20,21,21,21,21,20,21,21,21,21,21,21,21,20,21,21,21,21,20,21,21,21,21,21,21,21,21,22,21,21,20,21,21,21,21,21,21,21,22,21,21,21,21,20,22,20,22,21,21,21,21,21,21,20,21,21,21,21,21,21,21,21,21,21,21,21,21,21,21,21,21,21,20,23,21],"number_of_frames":96,"aperture_center_x":683,"aperture_center_y":384,"fixation_cross":true,"fixation_cross_width":15,"fixation_cross_height":15,"fixation_cross_color":"#111","fixation_cross_thickness":1,"border":true,"border_thickness":2,"border_color":"transparent","canvas_width":1366,"canvas_height":768,"trial_type":"rdk","trial_index":19,"plugin_version":"2.0.0","time_elapsed":354899,"phase":"practice","target_direction":358,"distractor_direction":88},{"rt":5524,"stimulus":"\n        <div class=\"response-container\">\n          <div class=\"response-instruction\">\n            <p>rotate the bar by using the left and right arrow keys.</p>\n            <p>when you are determined, press the Enter key.</p>\n          </div>\n          <div class=\"response-circle\">\n            <div class=\"response-fixation\"></div>\n            <div id=\"bar\" class=\"rotating-bar\"></div>\n          </div>\n        </div>\n      ","response":"Enter","trial_type":"html-keyboard-response","trial_index":20,"plugin_version":"2.1.0","time_elapsed":360426,"random_initial_angle":197,"response_angle_css":466,"response_angle_rdk":344,"angular_error_target":-14,"angular_error_distractor":-104,"target_direction":358,"target_group":"black","reward_points":7},{"rt":null,"stimulus":"\n          <p style=\"color: #00FF00;\">Your reward: 7 points</p>\n        ","response":null,"trial_type":"html-keyboard-response","trial_index":21,"plugin_version":"2.1.0","time_elapsed":362433},{"rt":null,"stimulus":"<div class=\"fixation\" style=\"font-size: 60px;\">+</div>","response":null,"trial_type":"html-keyboard-response","trial_index":22,"plugin_version":"2.1.0","time_elapsed":363447},{"target_group":"white","target_index":0,"condition_label":"practice","rt":-1,"response":"","correct":false,"choices":"ALL_KEYS","correct_choice":["a"],"trial_duration":2000,"flip_timestamps":[],"response_ends_trial":false,"number_of_apertures":2,"number_of_dots":[100,66],"number_of_sets":1,"coherent_direction":[118,10],"coherence":1,"opposite_coherence":0,"dot_radius":2,"dot_side_length":1,"dot_life":-1,"move_distance":1,"aperture_width":300,"aperture_height":300,"dot_color":["white","black"],"dot_shape":"circle","background_color":"#AAA","RDK_type":3,"aperture_type":2,"reinsert_type":2,"frame_rate":20.721649484536083,"frame_rate_array":[7,21,21,21,21,21,21,21,22,20,21,21,20,21,21,21,21,21,21,21,21,21,20,21,21,20,21,21,21,21,21,21,21,21,20,21,21,21,20,21,21,21,21,20,22,21,20,21,21,21,21,21,21,20,21,21,21,21,21,21,22,20,20,21,21,21,21,21,20,21,20,22,20,21,21,20,21,21,21,21,21,21,21,21,21,21,21,21,21,20,21,20,21,21,22,20,21],"number_of_frames":97,"aperture_center_x":683,"aperture_center_y":384,"fixation_cross":true,"fixation_cross_width":15,"fixation_cross_height":15,"fixation_cross_color":"#111","fixation_cross_thickness":1,"border":true,"border_thickness":2,"border_color":"transparent","canvas_width":1366,"canvas_height":768,"trial_type":"rdk","trial_index":23,"plugin_version":"2.0.0","time_elapsed":365460,"phase":"practice","target_direction":118,"distractor_direction":10},{"rt":5383,"stimulus":"\n        <div class=\"response-container\">\n          <div class=\"response-instruction\">\n            <p>rotate the bar by using the left and right arrow keys.</p>\n            <p>when you are determined, press the Enter key.</p>\n          </div>\n          <div class=\"response-circle\">\n            <div class=\"response-fixation\"></div>\n            <div id=\"bar\" class=\"rotating-bar\"></div>\n          </div>\n        </div>\n      ","response":"Enter","trial_type":"html-keyboard-response","trial_index":24,"plugin_version":"2.1.0","time_elapsed":370846,"random_initial_angle":131,"response_angle_css":-79,"response_angle_rdk":169,"angular_error_target":51,"angular_error_distractor":159,"target_direction":118,"target_group":"white","reward_points":0},{"rt":null,"stimulus":"\n          <p style=\"color: #FF3333;\">Your reward: 0 points</p>\n        ","response":null,"trial_type":"html-keyboard-response","trial_index":25,"plugin_version":"2.1.0","time_elapsed":372852},{"rt":null,"stimulus":"<div class=\"fixation\" style=\"font-size: 60px;\">+</div>","response":null,"trial_type":"html-keyboard-response","trial_index":26,"plugin_version":"2.1.0","time_elapsed":373855},{"target_group":"white","target_index":0,"condition_label":"practice","rt":-1,"response":"","correct":false,"choices":"ALL_KEYS","correct_choice":["a"],"trial_duration":2000,"flip_timestamps":[],"response_ends_trial":false,"number_of_apertures":2,"number_of_dots":[100,91],"number_of_sets":1,"coherent_direction":[64,332],"coherence":1,"opposite_coherence":0,"dot_radius":2,"dot_side_length":1,"dot_life":-1,"move_distance":1,"aperture_width":300,"aperture_height":300,"dot_color":["white","black"],"dot_shape":"circle","background_color":"#AAA","RDK_type":3,"aperture_type":2,"reinsert_type":2,"frame_rate":20.822916666666668,"frame_rate_array":[15,21,21,21,21,20,21,21,22,20,21,21,21,21,21,20,21,21,21,21,21,21,21,21,21,21,21,20,21,21,21,21,20,21,21,21,21,21,21,21,21,21,21,21,21,21,22,21,20,21,21,21,21,20,21,21,22,20,21,21,21,21,21,21,21,21,21,21,20,22,20,22,20,20,21,21,21,21,20,21,21,21,21,21,21,21,20,21,21,21,21,20,20,21,21,21],"number_of_frames":96,"aperture_center_x":683,"aperture_center_y":384,"fixation_cross":true,"fixation_cross_width":15,"fixation_cross_height":15,"fixation_cross_color":"#111","fixation_cross_thickness":1,"border":true,"border_thickness":2,"border_color":"transparent","canvas_width":1366,"canvas_height":768,"trial_type":"rdk","trial_index":27,"plugin_version":"2.0.0","time_elapsed":375868,"phase":"practice","target_direction":64,"distractor_direction":332},{"rt":1742,"stimulus":"\n        <div class=\"response-container\">\n          <div class=\"response-instruction\">\n            <p>rotate the bar by using the left and right arrow keys.</p>\n            <p>when you are determined, press the Enter key.</p>\n          </div>\n          <div class=\"response-circle\">\n            <div class=\"response-fixation\"></div>\n            <div id=\"bar\" class=\"rotating-bar\"></div>\n          </div>\n        </div>\n      ","response":"Enter","trial_type":"html-keyboard-response","trial_index":28,"plugin_version":"2.1.0","time_elapsed":377610,"random_initial_angle":105,"response_angle_css":133,"response_angle_rdk":317,"angular_error_target":-107,"angular_error_distractor":-15,"target_direction":64,"target_group":"white","reward_points":0},{"rt":null,"stimulus":"\n          <p style=\"color: #FF3333;\">Your reward: 0 points</p>\n        ","response":null,"trial_type":"html-keyboard-response","trial_index":29,"plugin_version":"2.1.0","time_elapsed":379621},{"rt":null,"stimulus":"<div class=\"fixation\" style=\"font-size: 60px;\">+</div>","response":null,"trial_type":"html-keyboard-response","trial_index":30,"plugin_version":"2.1.0","time_elapsed":380633},{"target_group":"white","target_index":0,"condition_label":"practice","rt":-1,"response":"","correct":false,"choices":"ALL_KEYS","correct_choice":["a"],"trial_duration":2000,"flip_timestamps":[],"response_ends_trial":false,"number_of_apertures":2,"number_of_dots":[100,75],"number_of_sets":1,"coherent_direction":[98,341],"coherence":1,"opposite_coherence":0,"dot_radius":2,"dot_side_length":1,"dot_life":-1,"move_distance":1,"aperture_width":300,"aperture_height":300,"dot_color":["white","black"],"dot_shape":"circle","background_color":"#AAA","RDK_type":3,"aperture_type":2,"reinsert_type":2,"frame_rate":20.7319587628866,"frame_rate_array":[7,22,21,20,22,21,21,21,21,20,22,21,21,21,22,20,21,21,21,21,21,20,21,21,20,21,20,21,21,21,21,21,21,20,21,21,20,21,21,21,20,21,21,21,22,20,21,22,20,21,21,20,22,21,21,20,21,22,20,21,21,21,21,20,20,21,21,21,21,21,21,20,22,21,21,21,21,21,21,21,21,21,22,20,21,20,21,21,20,20,22,20,21,20,21,22,20],"number_of_frames":97,"aperture_center_x":683,"aperture_center_y":384,"fixation_cross":true,"fixation_cross_width":15,"fixation_cross_height":15,"fixation_cross_color":"#111","fixation_cross_thickness":1,"border":true,"border_thickness":2,"border_color":"transparent","canvas_width":1366,"canvas_height":768,"trial_type":"rdk","trial_index":31,"plugin_version":"2.0.0","time_elapsed":382647,"phase":"practice","target_direction":98,"distractor_direction":341},{"rt":5056,"stimulus":"\n        <div class=\"response-container\">\n          <div class=\"response-instruction\">\n            <p>rotate the bar by using the left and right arrow keys.</p>\n            <p>when you are determined, press the Enter key.</p>\n          </div>\n          <div class=\"response-circle\">\n            <div class=\"response-fixation\"></div>\n            <div id=\"bar\" class=\"rotating-bar\"></div>\n          </div>\n        </div>\n      ","response":"Enter","trial_type":"html-keyboard-response","trial_index":32,"plugin_version":"2.1.0","time_elapsed":387704,"random_initial_angle":268,"response_angle_css":583,"response_angle_rdk":227,"angular_error_target":129,"angular_error_distractor":-114,"target_direction":98,"target_group":"white","reward_points":0},{"rt":null,"stimulus":"\n          <p style=\"color: #FF3333;\">Your reward: 0 points</p>\n        ","response":null,"trial_type":"html-keyboard-response","trial_index":33,"plugin_version":"2.1.0","time_elapsed":389715},{"rt":null,"stimulus":"<div class=\"fixation\" style=\"font-size: 60px;\">+</div>","response":null,"trial_type":"html-keyboard-response","trial_index":34,"plugin_version":"2.1.0","time_elapsed":390731},{"target_group":"black","target_index":1,"condition_label":"practice","rt":-1,"response":"","correct":false,"choices":"ALL_KEYS","correct_choice":["a"],"trial_duration":2000,"flip_timestamps":[],"response_ends_trial":false,"number_of_apertures":2,"number_of_dots":[68,100],"number_of_sets":1,"coherent_direction":[91,211],"coherence":1,"opposite_coherence":0,"dot_radius":2,"dot_side_length":1,"dot_life":-1,"move_distance":1,"aperture_width":300,"aperture_height":300,"dot_color":["white","black"],"dot_shape":"circle","background_color":"#AAA","RDK_type":3,"aperture_type":2,"reinsert_type":2,"frame_rate":20.78125,"frame_rate_array":[13,21,21,21,21,20,21,21,20,21,21,22,21,20,21,20,21,21,22,21,21,21,21,20,22,20,21,21,20,21,20,21,20,21,21,21,21,21,21,21,20,22,21,21,21,21,20,21,20,21,20,21,21,20,22,21,20,21,20,21,20,20,21,21,22,21,21,21,22,21,20,21,21,21,21,21,22,20,20,21,21,21,21,21,21,21,21,22,21,21,21,21,21,21,21,20],"number_of_frames":96,"aperture_center_x":683,"aperture_center_y":384,"fixation_cross":true,"fixation_cross_width":15,"fixation_cross_height":15,"fixation_cross_color":"#111","fixation_cross_thickness":1,"border":true,"border_thickness":2,"border_color":"transparent","canvas_width":1366,"canvas_height":768,"trial_type":"rdk","trial_index":35,"plugin_version":"2.0.0","time_elapsed":392742,"phase":"practice","target_direction":211,"distractor_direction":91},{"rt":4052,"stimulus":"\n        <div class=\"response-container\">\n          <div class=\"response-instruction\">\n            <p>rotate the bar by using the left and right arrow keys.</p>\n            <p>when you are determined, press the Enter key.</p>\n          </div>\n          <div class=\"response-circle\">\n            <div class=\"response-fixation\"></div>\n            <div id=\"bar\" class=\"rotating-bar\"></div>\n          </div>\n        </div>\n      ","response":"Enter","trial_type":"html-keyboard-response","trial_index":36,"plugin_version":"2.1.0","time_elapsed":396795,"random_initial_angle":232,"response_angle_css":445,"response_angle_rdk":5,"angular_error_target":154,"angular_error_distractor":-86,"target_direction":211,"target_group":"black","reward_points":0},{"rt":null,"stimulus":"\n          <p style=\"color: #FF3333;\">Your reward: 0 points</p>\n        ","response":null,"trial_type":"html-keyboard-response","trial_index":37,"plugin_version":"2.1.0","time_elapsed":398803},{"rt":null,"stimulus":"<div class=\"fixation\" style=\"font-size: 60px;\">+</div>","response":null,"trial_type":"html-keyboard-response","trial_index":38,"plugin_version":"2.1.0","time_elapsed":399817},{"target_group":"white","target_index":0,"condition_label":"practice","rt":-1,"response":"","correct":false,"choices":"ALL_KEYS","correct_choice":["a"],"trial_duration":2000,"flip_timestamps":[],"response_ends_trial":false,"number_of_apertures":2,"number_of_dots":[100,69],"number_of_sets":1,"coherent_direction":[313,118],"coherence":1,"opposite_coherence":0,"dot_radius":2,"dot_side_length":1,"dot_life":-1,"move_distance":1,"aperture_width":300,"aperture_height":300,"dot_color":["white","black"],"dot_shape":"circle","background_color":"#AAA","RDK_type":3,"aperture_type":2,"reinsert_type":2,"frame_rate":20.75,"frame_rate_array":[8,20,21,21,21,21,21,22,20,21,20,21,21,21,21,21,20,21,21,21,21,21,21,21,21,21,20,21,21,21,21,20,21,20,21,21,21,21,21,21,21,22,21,21,20,22,21,21,21,20,21,21,21,21,20,21,21,21,21,20,21,22,20,21,21,21,21,22,21,21,21,21,21,21,21,21,20,22,20,20,22,21,20,21,21,21,20,21,21,21,21,21,20,21,21,21],"number_of_frames":96,"aperture_center_x":683,"aperture_center_y":384,"fixation_cross":true,"fixation_cross_width":15,"fixation_cross_height":15,"fixation_cross_color":"#111","fixation_cross_thickness":1,"border":true,"border_thickness":2,"border_color":"transparent","canvas_width":1366,"canvas_height":768,"trial_type":"rdk","trial_index":39,"plugin_version":"2.0.0","time_elapsed":401830,"phase":"practice","target_direction":313,"distractor_direction":118},{"rt":698,"stimulus":"\n        <div class=\"response-container\">\n          <div class=\"response-instruction\">\n            <p>rotate the bar by using the left and right arrow keys.</p>\n            <p>when you are determined, press the Enter key.</p>\n          </div>\n          <div class=\"response-circle\">\n            <div class=\"response-fixation\"></div>\n            <div id=\"bar\" class=\"rotating-bar\"></div>\n          </div>\n        </div>\n      ","response":"Enter","trial_type":"html-keyboard-response","trial_index":40,"plugin_version":"2.1.0","time_elapsed":402530,"random_initial_angle":16,"response_angle_css":16,"response_angle_rdk":74,"angular_error_target":121,"angular_error_distractor":-44,"target_direction":313,"target_group":"white","reward_points":0},{"rt":null,"stimulus":"\n          <p style=\"color: #FF3333;\">Your reward: 0 points</p>\n        ","response":null,"trial_type":"html-keyboard-response","trial_index":41,"plugin_version":"2.1.0","time_elapsed":404538},{"rt":null,"stimulus":"<div class=\"fixation\" style=\"font-size: 60px;\">+</div>","response":null,"trial_type":"html-keyboard-response","trial_index":42,"plugin_version":"2.1.0","time_elapsed":405545},{"target_group":"white","target_index":0,"condition_label":"practice","rt":-1,"response":"","correct":false,"choices":"ALL_KEYS","correct_choice":["a"],"trial_duration":2000,"flip_timestamps":[],"response_ends_trial":false,"number_of_apertures":2,"number_of_dots":[100,69],"number_of_sets":1,"coherent_direction":[155,60],"coherence":1,"opposite_coherence":0,"dot_radius":2,"dot_side_length":1,"dot_life":-1,"move_distance":1,"aperture_width":300,"aperture_height":300,"dot_color":["white","black"],"dot_shape":"circle","background_color":"#AAA","RDK_type":3,"aperture_type":2,"reinsert_type":2,"frame_rate":20.822916666666668,"frame_rate_array":[9,21,21,20,22,21,20,21,21,21,21,20,22,21,21,21,21,21,21,21,21,21,22,21,20,21,21,21,21,21,21,21,21,21,21,21,21,21,21,20,21,20,21,20,21,21,21,21,21,21,21,21,21,21,22,21,21,21,21,21,22,20,21,22,21,21,20,21,20,21,21,22,20,21,21,21,21,20,21,21,21,21,21,22,20,22,20,21,22,21,21,21,21,21,20,21],"number_of_frames":96,"aperture_center_x":683,"aperture_center_y":384,"fixation_cross":true,"fixation_cross_width":15,"fixation_cross_height":15,"fixation_cross_color":"#111","fixation_cross_thickness":1,"border":true,"border_thickness":2,"border_color":"transparent","canvas_width":1366,"canvas_height":768,"trial_type":"rdk","trial_index":43,"plugin_version":"2.0.0","time_elapsed":407551,"phase":"practice","target_direction":155,"distractor_direction":60},{"rt":1966,"stimulus":"\n        <div class=\"response-container\">\n          <div class=\"response-instruction\">\n            <p>rotate the bar by using the left and right arrow keys.</p>\n            <p>when you are determined, press the Enter key.</p>\n          </div>\n          <div class=\"response-circle\">\n            <div class=\"response-fixation\"></div>\n            <div id=\"bar\" class=\"rotating-bar\"></div>\n          </div>\n        </div>\n      ","response":"Enter","trial_type":"html-keyboard-response","trial_index":44,"plugin_version":"2.1.0","time_elapsed":409519,"random_initial_angle":74,"response_angle_css":109,"response_angle_rdk":341,"angular_error_target":-174,"angular_error_distractor":-79,"target_direction":155,"target_group":"white","reward_points":0},{"rt":null,"stimulus":"\n          <p style=\"color: #FF3333;\">Your reward: 0 points</p>\n        ","response":null,"trial_type":"html-keyboard-response","trial_index":45,"plugin_version":"2.1.0","time_elapsed":411524},{"rt":null,"stimulus":"<div class=\"fixation\" style=\"font-size: 60px;\">+</div>","response":null,"trial_type":"html-keyboard-response","trial_index":46,"plugin_version":"2.1.0","time_elapsed":412537},{"target_group":"white","target_index":0,"condition_label":"practice","rt":916,"response":"ArrowRight","correct":false,"choices":"ALL_KEYS","correct_choice":["a"],"trial_duration":2000,"flip_timestamps":[],"response_ends_trial":false,"number_of_apertures":2,"number_of_dots":[100,77],"number_of_sets":1,"coherent_direction":[329,218],"coherence":1,"opposite_coherence":0,"dot_radius":2,"dot_side_length":1,"dot_life":-1,"move_distance":1,"aperture_width":300,"aperture_height":300,"dot_color":["white","black"],"dot_shape":"circle","background_color":"#AAA","RDK_type":3,"aperture_type":2,"reinsert_type":2,"frame_rate":20.864583333333332,"frame_rate_array":[16,20,22,21,21,21,20,21,21,21,21,21,21,21,21,20,21,21,21,21,21,21,21,20,21,21,21,21,20,21,20,21,21,21,21,20,20,21,21,21,21,21,21,21,21,21,21,21,21,21,21,21,21,21,21,21,21,21,21,21,21,21,21,21,21,21,21,21,21,21,21,21,21,20,21,21,21,21,21,21,21,21,21,21,21,21,21,21,21,21,21,21,21,21,21,21],"number_of_frames":96,"aperture_center_x":683,"aperture_center_y":384,"fixation_cross":true,"fixation_cross_width":15,"fixation_cross_height":15,"fixation_cross_color":"#111","fixation_cross_thickness":1,"border":true,"border_thickness":2,"border_color":"transparent","canvas_width":1366,"canvas_height":768,"trial_type":"rdk","trial_index":47,"plugin_version":"2.0.0","time_elapsed":414552,"phase":"practice","target_direction":329,"distractor_direction":218},{"rt":2427,"stimulus":"\n        <div class=\"response-container\">\n          <div class=\"response-instruction\">\n            <p>rotate the bar by using the left and right arrow keys.</p>\n            <p>when you are determined, press the Enter key.</p>\n          </div>\n          <div class=\"response-circle\">\n            <div class=\"response-fixation\"></div>\n            <div id=\"bar\" class=\"rotating-bar\"></div>\n          </div>\n        </div>\n      ","response":"Enter","trial_type":"html-keyboard-response","trial_index":48,"plugin_version":"2.1.0","time_elapsed":416979,"random_initial_angle":358,"response_angle_css":454,"response_angle_rdk":356,"angular_error_target":27,"angular_error_distractor":138,"target_direction":329,"target_group":"white","reward_points":4},{"rt":null,"stimulus":"\n          <p style=\"color: #00FF00;\">Your reward: 4 points</p>\n        ","response":null,"trial_type":"html-keyboard-response","trial_index":49,"plugin_version":"2.1.0","time_elapsed":418985},{"rt":null,"stimulus":"<div class=\"fixation\" style=\"font-size: 60px;\">+</div>","response":null,"trial_type":"html-keyboard-response","trial_index":50,"plugin_version":"2.1.0","time_elapsed":419993},{"target_group":"black","target_index":1,"condition_label":"practice","rt":-1,"response":"","correct":false,"choices":"ALL_KEYS","correct_choice":["a"],"trial_duration":2000,"flip_timestamps":[],"response_ends_trial":false,"number_of_apertures":2,"number_of_dots":[80,100],"number_of_sets":1,"coherent_direction":[134,32],"coherence":1,"opposite_coherence":0,"dot_radius":2,"dot_side_length":1,"dot_life":-1,"move_distance":1,"aperture_width":300,"aperture_height":300,"dot_color":["white","black"],"dot_shape":"circle","background_color":"#AAA","RDK_type":3,"aperture_type":2,"reinsert_type":2,"frame_rate":20.822916666666668,"frame_rate_array":[17,21,21,20,21,21,21,20,21,21,21,21,21,20,22,20,21,21,21,21,21,21,21,20,22,20,21,21,21,21,21,21,20,21,21,21,21,21,20,21,21,21,21,21,21,21,21,21,21,21,20,21,21,21,21,21,20,21,21,21,21,21,22,20,21,21,21,21,20,21,21,21,21,21,21,20,21,21,21,21,20,21,21,20,21,21,21,21,21,21,22,19,21,21,21,21],"number_of_frames":96,"aperture_center_x":683,"aperture_center_y":384,"fixation_cross":true,"fixation_cross_width":15,"fixation_cross_height":15,"fixation_cross_color":"#111","fixation_cross_thickness":1,"border":true,"border_thickness":2,"border_color":"transparent","canvas_width":1366,"canvas_height":768,"trial_type":"rdk","trial_index":51,"plugin_version":"2.0.0","time_elapsed":422027,"phase":"practice","target_direction":32,"distractor_direction":134},{"rt":3730,"stimulus":"\n        <div class=\"response-container\">\n          <div class=\"response-instruction\">\n            <p>rotate the bar by using the left and right arrow keys.</p>\n            <p>when you are determined, press the Enter key.</p>\n          </div>\n          <div class=\"response-circle\">\n            <div class=\"response-fixation\"></div>\n            <div id=\"bar\" class=\"rotating-bar\"></div>\n          </div>\n        </div>\n      ","response":"Enter","trial_type":"html-keyboard-response","trial_index":52,"plugin_version":"2.1.0","time_elapsed":425757,"random_initial_angle":0,"response_angle_css":79,"response_angle_rdk":11,"angular_error_target":-21,"angular_error_distractor":-123,"target_direction":32,"target_group":"black","reward_points":5},{"rt":null,"stimulus":"\n          <p style=\"color: #00FF00;\">Your reward: 5 points</p>\n        ","response":null,"trial_type":"html-keyboard-response","trial_index":53,"plugin_version":"2.1.0","time_elapsed":427773},{"rt":null,"stimulus":"<div class=\"fixation\" style=\"font-size: 60px;\">+</div>","response":null,"trial_type":"html-keyboard-response","trial_index":54,"plugin_version":"2.1.0","time_elapsed":428786},{"target_group":"black","target_index":1,"condition_label":"practice","rt":-1,"response":"","correct":false,"choices":"ALL_KEYS","correct_choice":["a"],"trial_duration":2000,"flip_timestamps":[],"response_ends_trial":false,"number_of_apertures":2,"number_of_dots":[57,100],"number_of_sets":1,"coherent_direction":[123,284],"coherence":1,"opposite_coherence":0,"dot_radius":2,"dot_side_length":1,"dot_life":-1,"move_distance":1,"aperture_width":300,"aperture_height":300,"dot_color":["white","black"],"dot_shape":"circle","background_color":"#AAA","RDK_type":3,"aperture_type":2,"reinsert_type":2,"frame_rate":20.854166666666668,"frame_rate_array":[15,21,21,21,21,21,21,21,21,21,21,21,21,21,21,21,21,21,21,21,21,21,21,21,21,20,21,21,20,21,21,21,21,21,20,21,22,20,21,21,21,21,21,21,21,21,21,21,20,21,21,21,21,21,21,21,21,21,21,21,20,22,21,20,21,21,21,21,21,21,21,20,22,20,21,21,21,21,20,21,21,21,20,21,21,22,20,21,20,21,21,21,21,22,21,21],"number_of_frames":96,"aperture_center_x":683,"aperture_center_y":384,"fixation_cross":true,"fixation_cross_width":15,"fixation_cross_height":15,"fixation_cross_color":"#111","fixation_cross_thickness":1,"border":true,"border_thickness":2,"border_color":"transparent","canvas_width":1366,"canvas_height":768,"trial_type":"rdk","trial_index":55,"plugin_version":"2.0.0","time_elapsed":430803,"phase":"practice","target_direction":284,"distractor_direction":123},{"rt":3842,"stimulus":"\n        <div class=\"response-container\">\n          <div class=\"response-instruction\">\n            <p>rotate the bar by using the left and right arrow keys.</p>\n            <p>when you are determined, press the Enter key.</p>\n          </div>\n          <div class=\"response-circle\">\n            <div class=\"response-fixation\"></div>\n            <div id=\"bar\" class=\"rotating-bar\"></div>\n          </div>\n        </div>\n      ","response":"Enter","trial_type":"html-keyboard-response","trial_index":56,"plugin_version":"2.1.0","time_elapsed":434646,"random_initial_angle":28,"response_angle_css":153,"response_angle_rdk":297,"angular_error_target":13,"angular_error_distractor":174,"target_direction":284,"target_group":"black","reward_points":7},{"rt":null,"stimulus":"\n          <p style=\"color: #00FF00;\">Your reward: 7 points</p>\n        ","response":null,"trial_type":"html-keyboard-response","trial_index":57,"plugin_version":"2.1.0","time_elapsed":436648},{"rt":null,"stimulus":"<div class=\"fixation\" style=\"font-size: 60px;\">+</div>","response":null,"trial_type":"html-keyboard-response","trial_index":58,"plugin_version":"2.1.0","time_elapsed":437654},{"target_group":"black","target_index":1,"condition_label":"practice","rt":-1,"response":"","correct":false,"choices":"ALL_KEYS","correct_choice":["a"],"trial_duration":2000,"flip_timestamps":[],"response_ends_trial":false,"number_of_apertures":2,"number_of_dots":[54,100],"number_of_sets":1,"coherent_direction":[209,344],"coherence":1,"opposite_coherence":0,"dot_radius":2,"dot_side_length":1,"dot_life":-1,"move_distance":1,"aperture_width":300,"aperture_height":300,"dot_color":["white","black"],"dot_shape":"circle","background_color":"#AAA","RDK_type":3,"aperture_type":2,"reinsert_type":2,"frame_rate":20.68041237113402,"frame_rate_array":[5,16,20,21,21,21,21,21,20,21,21,21,21,20,21,20,21,21,23,20,20,22,21,20,21,21,21,21,21,21,20,21,21,20,21,21,22,21,21,21,20,22,21,21,21,21,22,20,21,21,21,21,21,21,21,20,22,21,21,21,20,21,21,21,22,19,21,20,22,20,21,20,22,20,21,21,20,22,21,21,21,21,21,22,19,21,21,22,21,21,20,21,21,22,21,20,21],"number_of_frames":97,"aperture_center_x":683,"aperture_center_y":384,"fixation_cross":true,"fixation_cross_width":15,"fixation_cross_height":15,"fixation_cross_color":"#111","fixation_cross_thickness":1,"border":true,"border_thickness":2,"border_color":"transparent","canvas_width":1366,"canvas_height":768,"trial_type":"rdk","trial_index":59,"plugin_version":"2.0.0","time_elapsed":439663,"phase":"practice","target_direction":344,"distractor_direction":209},{"rt":2285,"stimulus":"\n        <div class=\"response-container\">\n          <div class=\"response-instruction\">\n            <p>rotate the bar by using the left and right arrow keys.</p>\n            <p>when you are determined, press the Enter key.</p>\n          </div>\n          <div class=\"response-circle\">\n            <div class=\"response-fixation\"></div>\n            <div id=\"bar\" class=\"rotating-bar\"></div>\n          </div>\n        </div>\n      ","response":"Enter","trial_type":"html-keyboard-response","trial_index":60,"plugin_version":"2.1.0","time_elapsed":441949,"random_initial_angle":84,"response_angle_css":106,"response_angle_rdk":344,"angular_error_target":0,"angular_error_distractor":135,"target_direction":344,"target_group":"black","reward_points":10},{"rt":null,"stimulus":"\n          <p style=\"color: #00FF00;\">Your reward: 10 points</p>\n        ","response":null,"trial_type":"html-keyboard-response","trial_index":61,"plugin_version":"2.1.0","time_elapsed":443960},{"rt":null,"stimulus":"<div class=\"fixation\" style=\"font-size: 60px;\">+</div>","response":null,"trial_type":"html-keyboard-response","trial_index":62,"plugin_version":"2.1.0","time_elapsed":444979},{"target_group":"white","target_index":0,"condition_label":"practice","rt":-1,"response":"","correct":false,"choices":"ALL_KEYS","correct_choice":["a"],"trial_duration":2000,"flip_timestamps":[],"response_ends_trial":false,"number_of_apertures":2,"number_of_dots":[100,70],"number_of_sets":1,"coherent_direction":[104,323],"coherence":1,"opposite_coherence":0,"dot_radius":2,"dot_side_length":1,"dot_life":-1,"move_distance":1,"aperture_width":300,"aperture_height":300,"dot_color":["white","black"],"dot_shape":"circle","background_color":"#AAA","RDK_type":3,"aperture_type":2,"reinsert_type":2,"frame_rate":20.760416666666668,"frame_rate_array":[9,21,21,20,21,21,21,21,21,22,21,20,21,21,21,21,21,21,21,21,21,21,20,21,21,22,21,21,20,21,21,20,21,21,21,21,20,21,21,21,20,21,21,21,21,21,22,21,22,21,21,20,21,21,21,20,21,21,21,20,22,21,21,21,20,21,21,21,21,20,22,21,21,21,20,21,20,21,21,21,20,21,22,20,21,21,20,22,21,21,20,22,20,21,21,20],"number_of_frames":96,"aperture_center_x":683,"aperture_center_y":384,"fixation_cross":true,"fixation_cross_width":15,"fixation_cross_height":15,"fixation_cross_color":"#111","fixation_cross_thickness":1,"border":true,"border_thickness":2,"border_color":"transparent","canvas_width":1366,"canvas_height":768,"trial_type":"rdk","trial_index":63,"plugin_version":"2.0.0","time_elapsed":446987,"phase":"practice","target_direction":104,"distractor_direction":323},{"rt":2942,"stimulus":"\n        <div class=\"response-container\">\n          <div class=\"response-instruction\">\n            <p>rotate the bar by using the left and right arrow keys.</p>\n            <p>when you are determined, press the Enter key.</p>\n          </div>\n          <div class=\"response-circle\">\n            <div class=\"response-fixation\"></div>\n            <div id=\"bar\" class=\"rotating-bar\"></div>\n          </div>\n        </div>\n      ","response":"Enter","trial_type":"html-keyboard-response","trial_index":64,"plugin_version":"2.1.0","time_elapsed":449930,"random_initial_angle":106,"response_angle_css":136,"response_angle_rdk":314,"angular_error_target":-150,"angular_error_distractor":-9,"target_direction":104,"target_group":"white","reward_points":0},{"rt":null,"stimulus":"\n          <p style=\"color: #FF3333;\">Your reward: 0 points</p>\n        ","response":null,"trial_type":"html-keyboard-response","trial_index":65,"plugin_version":"2.1.0","time_elapsed":451945},{"rt":3693,"stimulus":"\n        <div class=\"instructions-container\">\n          <h2>End of Practice</h2>\n          <p>You have completed the practice trials.</p>\n          <p>Press <strong>Enter</strong> key to begin the main experiment.</p>\n        </div>\n      ","response":"Enter","trial_type":"html-keyboard-response","trial_index":66,"plugin_version":"2.1.0","time_elapsed":455641},{"rt":null,"stimulus":"<div class=\"fixation\" style=\"font-size: 60px;\">+</div>","response":null,"trial_type":"html-keyboard-response","trial_index":67,"plugin_version":"2.1.0","time_elapsed":456644},{"phase":"learning-awareness","target_group":"black","condition_label":"B_H_vs_W_L_rep11","target_direction":296,"distractor_direction":38,"session_rotation":187,"rt":-1,"response":"","correct":false,"choices":"ALL_KEYS","correct_choice":["a"],"trial_duration":2000,"flip_timestamps":[],"response_ends_trial":false,"number_of_apertures":200,"number_of_dots":[1,1,1,1,1,1,1,1,1,1,1,1,1,1,1,1,1,1,1,1,1,1,1,1,1,1,1,1,1,1,1,1,1,1,1,1,1,1,1,1,1,1,1,1,1,1,1,1,1,1,1,1,1,1,1,1,1,1,1,1,1,1,1,1,1,1,1,1,1,1,1,1,1,1,1,1,1,1,1,1,1,1,1,1,1,1,1,1,1,1,1,1,1,1,1,1,1,1,1,1,1,1,1,1,1,1,1,1,1,1,1,1,1,1,1,1,1,1,1,1,1,1,1,1,1,1,1,1,1,1,1,1,1,1,1,1,1,1,1,1,1,1,1,1,1,1,1,1,1,1,1,1,1,1,1,1,1,1,1,1,1,1,1,1,1,1,1,1,1,1,1,1,1,1,1,1,1,1,1,1,1,1,1,1,1,1,1,1,1,1,1,1,1,1,1,1,1,1,1,1],"number_of_sets":1,"coherent_direction":[38,38,38,296,296,38,296,296,38,38,296,296,296,296,296,296,296,38,38,38,296,38,38,38,38,38,296,296,38,38,38,296,296,38,296,38,38,38,38,296,38,296,296,296,296,296,38,38,296,296,296,38,296,296,296,296,296,38,296,38,296,296,296,38,296,296,38,38,296,38,38,38,38,296,296,38,296,296,38,296,296,296,38,38,296,296,296,38,38,296,38,38,38,296,296,38,38,296,296,296,296,296,296,38,296,38,38,38,38,296,38,296,38,38,38,296,38,296,296,296,296,38,38,38,38,296,296,296,38,38,38,296,296,38,296,38,38,296,38,38,296,38,296,296,38,38,38,296,38,38,38,296,296,38,38,296,296,296,296,296,38,38,38,38,296,296,38,296,38,38,296,296,38,38,38,296,38,38,38,38,296,296,296,296,38,38,38,296,38,38,38,38,296,38,296,296,38,296,296,296],"coherence":1,"opposite_coherence":0,"dot_radius":2,"dot_side_length":1,"dot_life":-1,"move_distance":1,"aperture_width":300,"aperture_height":300,"dot_color":["white","white","white","black","black","white","black","black","white","white","black","black","black","black","black","black","black","white","white","white","black","white","white","white","white","white","black","black","white","white","white","black","black","white","black","white","white","white","white","black","white","black","black","black","black","black","white","white","black","black","black","white","black","black","black","black","black","white","black","white","black","black","black","white","black","black","white","white","black","white","white","white","white","black","black","white","black","black","white","black","black","black","white","white","black","black","black","white","white","black","white","white","white","black","black","white","white","black","black","black","black","black","black","white","black","white","white","white","white","black","white","black","white","white","white","black","white","black","black","black","black","white","white","white","white","black","black","black","white","white","white","black","black","white","black","white","white","black","white","white","black","white","black","black","white","white","white","black","white","white","white","black","black","white","white","black","black","black","black","black","white","white","white","white","black","black","white","black","white","white","black","black","white","white","white","black","white","white","white","white","black","black","black","black","white","white","white","black","white","white","white","white","black","white","black","black","white","black","black","black"],"dot_shape":"circle","background_color":"#AAA","RDK_type":3,"aperture_type":2,"reinsert_type":2,"frame_rate":20.65979381443299,"frame_rate_array":[11,15,21,20,21,21,21,21,21,22,22,21,20,21,20,20,22,20,22,20,21,21,21,21,21,21,20,22,20,20,21,21,21,21,21,21,21,21,21,20,20,22,20,22,21,20,21,21,21,21,20,21,22,20,20,21,21,21,21,21,20,22,19,21,21,20,22,20,21,21,21,21,20,21,21,21,21,21,20,21,20,22,19,21,22,20,22,21,20,22,20,21,20,20,23,19,21],"number_of_frames":97,"aperture_center_x":683,"aperture_center_y":384,"fixation_cross":true,"fixation_cross_width":15,"fixation_cross_height":15,"fixation_cross_color":"#111","fixation_cross_thickness":1,"border":true,"border_thickness":2,"border_color":"transparent","canvas_width":1366,"canvas_height":768,"trial_type":"rdk","trial_index":68,"plugin_version":"2.0.0","time_elapsed":458661},{"rt":5386,"stimulus":"\n        <div class=\"response-container\">\n          <div class=\"response-instruction\">\n            <p>rotate the bar by using the left and right arrow keys.</p>\n            <p>when you are determined, press the Enter key.</p>\n          </div>\n          <div class=\"response-circle\">\n            <div class=\"response-fixation\"></div>\n            <div id=\"bar\" class=\"rotating-bar\"></div>\n          </div>\n        </div>\n      ","response":"Enter","trial_type":"html-keyboard-response","trial_index":69,"plugin_version":"2.1.0","time_elapsed":464049,"random_initial_angle":274,"response_angle_css":509,"response_angle_rdk":301,"angular_error_target":5,"angular_error_distractor":-97,"target_direction":296,"target_group":"black","reward_points":9},{"rt":null,"stimulus":"\n          <p style=\"color: #00FF00;\">Your reward: 9 points</p>\n        ","response":null,"trial_type":"html-keyboard-response","trial_index":70,"plugin_version":"2.1.0","time_elapsed":466059},{"rt":null,"stimulus":"<div class=\"fixation\" style=\"font-size: 60px;\">+</div>","response":null,"trial_type":"html-keyboard-response","trial_index":71,"plugin_version":"2.1.0","time_elapsed":467076},{"phase":"learning-awareness","target_group":"white","condition_label":"W_H_vs_B_L_rep10","target_direction":217,"distractor_direction":118,"session_rotation":187,"rt":-1,"response":"","correct":false,"choices":"ALL_KEYS","correct_choice":["a"],"trial_duration":2000,"flip_timestamps":[],"response_ends_trial":false,"number_of_apertures":200,"number_of_dots":[1,1,1,1,1,1,1,1,1,1,1,1,1,1,1,1,1,1,1,1,1,1,1,1,1,1,1,1,1,1,1,1,1,1,1,1,1,1,1,1,1,1,1,1,1,1,1,1,1,1,1,1,1,1,1,1,1,1,1,1,1,1,1,1,1,1,1,1,1,1,1,1,1,1,1,1,1,1,1,1,1,1,1,1,1,1,1,1,1,1,1,1,1,1,1,1,1,1,1,1,1,1,1,1,1,1,1,1,1,1,1,1,1,1,1,1,1,1,1,1,1,1,1,1,1,1,1,1,1,1,1,1,1,1,1,1,1,1,1,1,1,1,1,1,1,1,1,1,1,1,1,1,1,1,1,1,1,1,1,1,1,1,1,1,1,1,1,1,1,1,1,1,1,1,1,1,1,1,1,1,1,1,1,1,1,1,1,1,1,1,1,1,1,1,1,1,1,1,1,1],"number_of_sets":1,"coherent_direction":[217,217,118,217,118,217,118,118,118,217,118,217,217,217,217,217,217,217,118,118,217,217,217,118,118,118,217,217,217,217,217,217,217,118,118,118,217,118,118,217,118,217,118,217,118,217,217,118,217,118,118,217,118,217,118,118,217,118,118,217,217,118,217,217,217,217,217,217,118,118,118,118,217,217,118,217,217,118,217,118,118,118,118,118,118,118,217,118,118,217,217,217,217,118,118,118,217,118,118,118,118,118,217,217,118,217,217,217,217,217,217,217,217,217,217,118,118,217,118,217,118,217,118,217,118,118,118,118,217,217,118,118,217,118,118,217,217,217,118,118,118,118,118,118,118,217,118,217,217,118,118,217,217,118,217,217,217,217,118,118,118,217,217,217,118,217,217,118,118,118,118,217,118,118,118,118,217,217,217,118,217,118,118,217,217,118,217,118,217,118,217,118,118,217,118,118,217,118,217,118],"coherence":1,"opposite_coherence":0,"dot_radius":2,"dot_side_length":1,"dot_life":-1,"move_distance":1,"aperture_width":300,"aperture_height":300,"dot_color":["white","white","black","white","black","white","black","black","black","white","black","white","white","white","white","white","white","white","black","black","white","white","white","black","black","black","white","white","white","white","white","white","white","black","black","black","white","black","black","white","black","white","black","white","black","white","white","black","white","black","black","white","black","white","black","black","white","black","black","white","white","black","white","white","white","white","white","white","black","black","black","black","white","white","black","white","white","black","white","black","black","black","black","black","black","black","white","black","black","white","white","white","white","black","black","black","white","black","black","black","black","black","white","white","black","white","white","white","white","white","white","white","white","white","white","black","black","white","black","white","black","white","black","white","black","black","black","black","white","white","black","black","white","black","black","white","white","white","black","black","black","black","black","black","black","white","black","white","white","black","black","white","white","black","white","white","white","white","black","black","black","white","white","white","black","white","white","black","black","black","black","white","black","black","black","black","white","white","white","black","white","black","black","white","white","black","white","black","white","black","white","black","black","white","black","black","white","black","white","black"],"dot_shape":"circle","background_color":"#AAA","RDK_type":3,"aperture_type":2,"reinsert_type":2,"frame_rate":20.78125,"frame_rate_array":[14,20,20,20,21,21,21,20,21,21,21,20,21,21,21,20,21,21,21,21,21,21,21,21,22,20,21,19,21,21,22,20,22,20,21,21,21,21,21,21,21,21,21,21,21,20,22,19,22,21,21,21,21,21,21,21,21,20,21,21,20,21,20,21,21,21,21,21,21,21,21,21,21,21,21,22,20,21,21,20,21,21,20,22,20,21,21,21,21,21,21,21,21,21,21,21],"number_of_frames":96,"aperture_center_x":683,"aperture_center_y":384,"fixation_cross":true,"fixation_cross_width":15,"fixation_cross_height":15,"fixation_cross_color":"#111","fixation_cross_thickness":1,"border":true,"border_thickness":2,"border_color":"transparent","canvas_width":1366,"canvas_height":768,"trial_type":"rdk","trial_index":72,"plugin_version":"2.0.0","time_elapsed":469085},{"rt":3826,"stimulus":"\n        <div class=\"response-container\">\n          <div class=\"response-instruction\">\n            <p>rotate the bar by using the left and right arrow keys.</p>\n            <p>when you are determined, press the Enter key.</p>\n          </div>\n          <div class=\"response-circle\">\n            <div class=\"response-fixation\"></div>\n            <div id=\"bar\" class=\"rotating-bar\"></div>\n          </div>\n        </div>\n      ","response":"Enter","trial_type":"html-keyboard-response","trial_index":73,"plugin_version":"2.1.0","time_elapsed":472912,"random_initial_angle":77,"response_angle_css":227,"response_angle_rdk":223,"angular_error_target":6,"angular_error_distractor":105,"target_direction":217,"target_group":"white","reward_points":8},{"rt":null,"stimulus":"\n          <p style=\"color: #00FF00;\">Your reward: 8 points</p>\n        ","response":null,"trial_type":"html-keyboard-response","trial_index":74,"plugin_version":"2.1.0","time_elapsed":474914},{"rt":null,"stimulus":"<div class=\"fixation\" style=\"font-size: 60px;\">+</div>","response":null,"trial_type":"html-keyboard-response","trial_index":75,"plugin_version":"2.1.0","time_elapsed":475926},{"phase":"learning-awareness","target_group":"white","condition_label":"W_H_vs_B_L_rep4","target_direction":220,"distractor_direction":105,"session_rotation":187,"rt":-1,"response":"","correct":false,"choices":"ALL_KEYS","correct_choice":["a"],"trial_duration":2000,"flip_timestamps":[],"response_ends_trial":false,"number_of_apertures":200,"number_of_dots":[1,1,1,1,1,1,1,1,1,1,1,1,1,1,1,1,1,1,1,1,1,1,1,1,1,1,1,1,1,1,1,1,1,1,1,1,1,1,1,1,1,1,1,1,1,1,1,1,1,1,1,1,1,1,1,1,1,1,1,1,1,1,1,1,1,1,1,1,1,1,1,1,1,1,1,1,1,1,1,1,1,1,1,1,1,1,1,1,1,1,1,1,1,1,1,1,1,1,1,1,1,1,1,1,1,1,1,1,1,1,1,1,1,1,1,1,1,1,1,1,1,1,1,1,1,1,1,1,1,1,1,1,1,1,1,1,1,1,1,1,1,1,1,1,1,1,1,1,1,1,1,1,1,1,1,1,1,1,1,1,1,1,1,1,1,1,1,1,1,1,1,1,1,1,1,1,1,1,1,1,1,1,1,1,1,1,1,1,1,1,1,1,1,1,1,1,1,1,1,1],"number_of_sets":1,"coherent_direction":[105,105,105,105,220,220,220,105,105,105,105,220,105,105,220,105,220,105,105,220,105,220,220,220,220,220,220,105,105,105,220,105,105,105,220,105,105,220,220,220,105,220,220,105,220,220,105,105,220,220,105,105,105,105,220,105,220,220,220,220,220,105,105,220,105,220,105,105,105,105,220,105,105,220,220,220,220,220,105,220,105,105,220,105,220,105,105,220,105,220,105,220,105,105,220,105,220,105,220,220,220,105,220,105,220,220,220,220,105,105,105,105,105,105,220,105,220,105,220,105,105,220,220,220,220,105,105,220,105,220,220,220,220,220,105,105,220,105,105,105,105,220,105,220,220,220,220,105,105,220,105,105,220,220,105,220,105,105,220,220,105,220,105,105,105,220,220,220,220,220,105,105,105,105,220,220,105,220,105,105,220,105,105,220,220,105,105,105,105,220,220,220,220,105,220,220,220,220,105,220],"coherence":1,"opposite_coherence":0,"dot_radius":2,"dot_side_length":1,"dot_life":-1,"move_distance":1,"aperture_width":300,"aperture_height":300,"dot_color":["black","black","black","black","white","white","white","black","black","black","black","white","black","black","white","black","white","black","black","white","black","white","white","white","white","white","white","black","black","black","white","black","black","black","white","black","black","white","white","white","black","white","white","black","white","white","black","black","white","white","black","black","black","black","white","black","white","white","white","white","white","black","black","white","black","white","black","black","black","black","white","black","black","white","white","white","white","white","black","white","black","black","white","black","white","black","black","white","black","white","black","white","black","black","white","black","white","black","white","white","white","black","white","black","white","white","white","white","black","black","black","black","black","black","white","black","white","black","white","black","black","white","white","white","white","black","black","white","black","white","white","white","white","white","black","black","white","black","black","black","black","white","black","white","white","white","white","black","black","white","black","black","white","white","black","white","black","black","white","white","black","white","black","black","black","white","white","white","white","white","black","black","black","black","white","white","black","white","black","black","white","black","black","white","white","black","black","black","black","white","white","white","white","black","white","white","white","white","black","white"],"dot_shape":"circle","background_color":"#AAA","RDK_type":3,"aperture_type":2,"reinsert_type":2,"frame_rate":20.875,"frame_rate_array":[16,21,21,21,21,22,21,21,21,21,21,20,22,21,21,21,21,21,21,21,20,21,21,21,22,20,21,20,21,21,21,21,20,21,21,21,21,21,21,21,21,21,21,21,21,21,21,21,21,21,21,21,21,21,21,20,21,21,21,21,22,20,21,20,22,20,21,21,21,22,21,21,20,22,21,21,21,20,21,21,21,20,21,21,21,22,20,22,21,20,20,22,20,20,21,21],"number_of_frames":96,"aperture_center_x":683,"aperture_center_y":384,"fixation_cross":true,"fixation_cross_width":15,"fixation_cross_height":15,"fixation_cross_color":"#111","fixation_cross_thickness":1,"border":true,"border_thickness":2,"border_color":"transparent","canvas_width":1366,"canvas_height":768,"trial_type":"rdk","trial_index":76,"plugin_version":"2.0.0","time_elapsed":477936},{"rt":7868,"stimulus":"\n        <div class=\"response-container\">\n          <div class=\"response-instruction\">\n            <p>rotate the bar by using the left and right arrow keys.</p>\n            <p>when you are determined, press the Enter key.</p>\n          </div>\n          <div class=\"response-circle\">\n            <div class=\"response-fixation\"></div>\n            <div id=\"bar\" class=\"rotating-bar\"></div>\n          </div>\n        </div>\n      ","response":"Enter","trial_type":"html-keyboard-response","trial_index":77,"plugin_version":"2.1.0","time_elapsed":485805,"random_initial_angle":98,"response_angle_css":-135,"response_angle_rdk":225,"angular_error_target":5,"angular_error_distractor":120,"target_direction":220,"target_group":"white","reward_points":9},{"rt":null,"stimulus":"\n          <p style=\"color: #00FF00;\">Your reward: 9 points</p>\n        ","response":null,"trial_type":"html-keyboard-response","trial_index":78,"plugin_version":"2.1.0","time_elapsed":487814},{"rt":null,"stimulus":"<div class=\"fixation\" style=\"font-size: 60px;\">+</div>","response":null,"trial_type":"html-keyboard-response","trial_index":79,"plugin_version":"2.1.0","time_elapsed":488819},{"phase":"learning-awareness","target_group":"black","condition_label":"B_H_vs_W_L_rep24","target_direction":284,"distractor_direction":35,"session_rotation":187,"rt":-1,"response":"","correct":false,"choices":"ALL_KEYS","correct_choice":["a"],"trial_duration":2000,"flip_timestamps":[],"response_ends_trial":false,"number_of_apertures":200,"number_of_dots":[1,1,1,1,1,1,1,1,1,1,1,1,1,1,1,1,1,1,1,1,1,1,1,1,1,1,1,1,1,1,1,1,1,1,1,1,1,1,1,1,1,1,1,1,1,1,1,1,1,1,1,1,1,1,1,1,1,1,1,1,1,1,1,1,1,1,1,1,1,1,1,1,1,1,1,1,1,1,1,1,1,1,1,1,1,1,1,1,1,1,1,1,1,1,1,1,1,1,1,1,1,1,1,1,1,1,1,1,1,1,1,1,1,1,1,1,1,1,1,1,1,1,1,1,1,1,1,1,1,1,1,1,1,1,1,1,1,1,1,1,1,1,1,1,1,1,1,1,1,1,1,1,1,1,1,1,1,1,1,1,1,1,1,1,1,1,1,1,1,1,1,1,1,1,1,1,1,1,1,1,1,1,1,1,1,1,1,1,1,1,1,1,1,1,1,1,1,1,1,1],"number_of_sets":1,"coherent_direction":[284,284,35,284,35,284,35,35,35,35,35,284,35,35,35,35,284,35,284,35,35,35,284,35,284,35,284,284,35,284,35,35,284,35,284,284,35,284,35,284,35,284,284,284,284,35,284,35,284,35,35,284,35,284,284,35,284,284,284,284,284,35,284,35,284,284,35,35,284,284,284,284,35,35,284,35,284,35,35,284,284,35,35,35,35,35,284,284,35,284,284,284,284,284,284,35,35,35,35,35,284,35,284,284,35,284,284,284,284,284,284,284,284,284,284,35,35,35,35,35,284,35,35,35,35,35,284,35,284,35,35,35,35,284,35,284,35,284,35,284,284,284,35,284,284,35,35,284,35,284,284,35,35,35,284,284,35,284,284,284,35,284,284,284,35,35,35,284,35,35,284,35,35,284,35,284,284,35,35,284,35,35,35,35,284,284,284,35,284,35,284,35,284,35,35,284,284,284,35,35],"coherence":1,"opposite_coherence":0,"dot_radius":2,"dot_side_length":1,"dot_life":-1,"move_distance":1,"aperture_width":300,"aperture_height":300,"dot_color":["black","black","white","black","white","black","white","white","white","white","white","black","white","white","white","white","black","white","black","white","white","white","black","white","black","white","black","black","white","black","white","white","black","white","black","black","white","black","white","black","white","black","black","black","black","white","black","white","black","white","white","black","white","black","black","white","black","black","black","black","black","white","black","white","black","black","white","white","black","black","black","black","white","white","black","white","black","white","white","black","black","white","white","white","white","white","black","black","white","black","black","black","black","black","black","white","white","white","white","white","black","white","black","black","white","black","black","black","black","black","black","black","black","black","black","white","white","white","white","white","black","white","white","white","white","white","black","white","black","white","white","white","white","black","white","black","white","black","white","black","black","black","white","black","black","white","white","black","white","black","black","white","white","white","black","black","white","black","black","black","white","black","black","black","white","white","white","black","white","white","black","white","white","black","white","black","black","white","white","black","white","white","white","white","black","black","black","white","black","white","black","white","black","white","white","black","black","black","white","white"],"dot_shape":"circle","background_color":"#AAA","RDK_type":3,"aperture_type":2,"reinsert_type":2,"frame_rate":20.885416666666668,"frame_rate_array":[19,20,20,21,21,21,21,21,21,21,21,21,21,21,21,21,21,21,21,22,21,21,21,21,21,20,21,21,21,21,21,21,21,20,21,21,20,21,21,21,21,21,21,20,21,21,21,21,21,21,20,21,21,20,21,21,21,21,21,21,20,21,22,21,22,21,21,20,21,21,21,20,22,20,21,21,21,22,21,21,20,19,21,21,22,21,21,21,21,21,21,21,21,21,21,21],"number_of_frames":96,"aperture_center_x":683,"aperture_center_y":384,"fixation_cross":true,"fixation_cross_width":15,"fixation_cross_height":15,"fixation_cross_color":"#111","fixation_cross_thickness":1,"border":true,"border_thickness":2,"border_color":"transparent","canvas_width":1366,"canvas_height":768,"trial_type":"rdk","trial_index":80,"plugin_version":"2.0.0","time_elapsed":490822},{"rt":6866,"stimulus":"\n        <div class=\"response-container\">\n          <div class=\"response-instruction\">\n            <p>rotate the bar by using the left and right arrow keys.</p>\n            <p>when you are determined, press the Enter key.</p>\n          </div>\n          <div class=\"response-circle\">\n            <div class=\"response-fixation\"></div>\n            <div id=\"bar\" class=\"rotating-bar\"></div>\n          </div>\n        </div>\n      ","response":"Enter","trial_type":"html-keyboard-response","trial_index":81,"plugin_version":"2.1.0","time_elapsed":497688,"random_initial_angle":101,"response_angle_css":37,"response_angle_rdk":53,"angular_error_target":129,"angular_error_distractor":18,"target_direction":284,"target_group":"black","reward_points":0},{"rt":null,"stimulus":"\n          <p style=\"color: #FF3333;\">Your reward: 0 points</p>\n        ","response":null,"trial_type":"html-keyboard-response","trial_index":82,"plugin_version":"2.1.0","time_elapsed":499701},{"rt":null,"stimulus":"<div class=\"fixation\" style=\"font-size: 60px;\">+</div>","response":null,"trial_type":"html-keyboard-response","trial_index":83,"plugin_version":"2.1.0","time_elapsed":500709},{"phase":"learning-awareness","target_group":"white","condition_label":"W_H_vs_B_L_rep1","target_direction":229,"distractor_direction":116,"session_rotation":187,"rt":-1,"response":"","correct":false,"choices":"ALL_KEYS","correct_choice":["a"],"trial_duration":2000,"flip_timestamps":[],"response_ends_trial":false,"number_of_apertures":200,"number_of_dots":[1,1,1,1,1,1,1,1,1,1,1,1,1,1,1,1,1,1,1,1,1,1,1,1,1,1,1,1,1,1,1,1,1,1,1,1,1,1,1,1,1,1,1,1,1,1,1,1,1,1,1,1,1,1,1,1,1,1,1,1,1,1,1,1,1,1,1,1,1,1,1,1,1,1,1,1,1,1,1,1,1,1,1,1,1,1,1,1,1,1,1,1,1,1,1,1,1,1,1,1,1,1,1,1,1,1,1,1,1,1,1,1,1,1,1,1,1,1,1,1,1,1,1,1,1,1,1,1,1,1,1,1,1,1,1,1,1,1,1,1,1,1,1,1,1,1,1,1,1,1,1,1,1,1,1,1,1,1,1,1,1,1,1,1,1,1,1,1,1,1,1,1,1,1,1,1,1,1,1,1,1,1,1,1,1,1,1,1,1,1,1,1,1,1,1,1,1,1,1,1],"number_of_sets":1,"coherent_direction":[116,116,229,229,229,116,116,229,229,116,116,229,229,116,229,229,229,229,229,229,229,116,229,229,116,116,229,116,116,116,116,116,229,229,229,116,116,116,229,229,229,229,229,229,116,116,116,116,229,229,116,116,116,229,229,229,229,116,116,116,229,229,229,229,229,116,116,229,116,116,116,116,116,229,229,229,229,229,116,116,116,116,116,229,116,229,116,116,116,229,116,229,116,116,116,229,116,116,229,116,116,229,229,116,229,116,116,229,229,229,229,229,229,116,229,116,116,116,229,116,229,229,116,229,116,229,229,116,229,116,116,229,116,229,229,229,229,116,229,116,116,229,116,229,229,116,229,116,116,229,116,229,116,229,116,116,116,116,116,116,116,116,229,116,229,116,229,116,229,229,116,229,229,116,229,229,229,229,116,116,116,116,229,116,229,229,229,116,116,229,229,229,229,116,229,116,229,116,116,116],"coherence":1,"opposite_coherence":0,"dot_radius":2,"dot_side_length":1,"dot_life":-1,"move_distance":1,"aperture_width":300,"aperture_height":300,"dot_color":["black","black","white","white","white","black","black","white","white","black","black","white","white","black","white","white","white","white","white","white","white","black","white","white","black","black","white","black","black","black","black","black","white","white","white","black","black","black","white","white","white","white","white","white","black","black","black","black","white","white","black","black","black","white","white","white","white","black","black","black","white","white","white","white","white","black","black","white","black","black","black","black","black","white","white","white","white","white","black","black","black","black","black","white","black","white","black","black","black","white","black","white","black","black","black","white","black","black","white","black","black","white","white","black","white","black","black","white","white","white","white","white","white","black","white","black","black","black","white","black","white","white","black","white","black","white","white","black","white","black","black","white","black","white","white","white","white","black","white","black","black","white","black","white","white","black","white","black","black","white","black","white","black","white","black","black","black","black","black","black","black","black","white","black","white","black","white","black","white","white","black","white","white","black","white","white","white","white","black","black","black","black","white","black","white","white","white","black","black","white","white","white","white","black","white","black","white","black","black","black"],"dot_shape":"circle","background_color":"#AAA","RDK_type":3,"aperture_type":2,"reinsert_type":2,"frame_rate":20.670103092783506,"frame_rate_array":[7,12,23,21,20,21,21,20,21,21,21,21,23,18,23,19,21,21,21,20,21,21,21,21,21,21,21,21,20,22,20,22,20,22,21,21,21,20,21,21,20,21,21,20,21,21,20,21,21,21,21,20,22,19,21,21,21,21,23,19,21,22,20,19,22,21,20,19,21,21,21,21,23,22,20,20,21,21,22,19,21,21,21,21,21,21,21,21,23,21,19,22,20,21,21,20,25],"number_of_frames":97,"aperture_center_x":683,"aperture_center_y":384,"fixation_cross":true,"fixation_cross_width":15,"fixation_cross_height":15,"fixation_cross_color":"#111","fixation_cross_thickness":1,"border":true,"border_thickness":2,"border_color":"transparent","canvas_width":1366,"canvas_height":768,"trial_type":"rdk","trial_index":84,"plugin_version":"2.0.0","time_elapsed":502724},{"rt":4596,"stimulus":"\n        <div class=\"response-container\">\n          <div class=\"response-instruction\">\n            <p>rotate the bar by using the left and right arrow keys.</p>\n            <p>when you are determined, press the Enter key.</p>\n          </div>\n          <div class=\"response-circle\">\n            <div class=\"response-fixation\"></div>\n            <div id=\"bar\" class=\"rotating-bar\"></div>\n          </div>\n        </div>\n      ","response":"Enter","trial_type":"html-keyboard-response","trial_index":85,"plugin_version":"2.1.0","time_elapsed":507322,"random_initial_angle":329,"response_angle_css":226,"response_angle_rdk":224,"angular_error_target":-5,"angular_error_distractor":108,"target_direction":229,"target_group":"white","reward_points":9},{"rt":null,"stimulus":"\n          <p style=\"color: #00FF00;\">Your reward: 9 points</p>\n        ","response":null,"trial_type":"html-keyboard-response","trial_index":86,"plugin_version":"2.1.0","time_elapsed":509325},{"rt":null,"stimulus":"<div class=\"fixation\" style=\"font-size: 60px;\">+</div>","response":null,"trial_type":"html-keyboard-response","trial_index":87,"plugin_version":"2.1.0","time_elapsed":510339},{"phase":"learning-awareness","target_group":"black","condition_label":"B_H_vs_W_L_rep18","target_direction":296,"distractor_direction":49,"session_rotation":187,"rt":-1,"response":"","correct":false,"choices":"ALL_KEYS","correct_choice":["a"],"trial_duration":2000,"flip_timestamps":[],"response_ends_trial":false,"number_of_apertures":200,"number_of_dots":[1,1,1,1,1,1,1,1,1,1,1,1,1,1,1,1,1,1,1,1,1,1,1,1,1,1,1,1,1,1,1,1,1,1,1,1,1,1,1,1,1,1,1,1,1,1,1,1,1,1,1,1,1,1,1,1,1,1,1,1,1,1,1,1,1,1,1,1,1,1,1,1,1,1,1,1,1,1,1,1,1,1,1,1,1,1,1,1,1,1,1,1,1,1,1,1,1,1,1,1,1,1,1,1,1,1,1,1,1,1,1,1,1,1,1,1,1,1,1,1,1,1,1,1,1,1,1,1,1,1,1,1,1,1,1,1,1,1,1,1,1,1,1,1,1,1,1,1,1,1,1,1,1,1,1,1,1,1,1,1,1,1,1,1,1,1,1,1,1,1,1,1,1,1,1,1,1,1,1,1,1,1,1,1,1,1,1,1,1,1,1,1,1,1,1,1,1,1,1,1],"number_of_sets":1,"coherent_direction":[296,296,296,296,296,49,49,296,296,296,296,49,296,296,49,49,296,49,296,49,49,49,296,296,49,296,296,49,296,49,296,296,49,296,49,49,296,49,296,49,49,49,49,296,49,296,49,49,296,296,49,296,296,49,49,49,296,49,49,296,49,296,296,296,296,49,49,296,49,49,296,296,49,49,296,296,296,49,296,296,49,49,296,296,49,296,49,296,49,296,296,296,49,296,49,296,49,49,49,49,296,296,49,296,296,296,49,49,49,296,49,296,296,49,49,296,296,296,296,49,49,49,49,296,296,49,296,49,49,49,49,296,49,49,49,296,49,296,296,296,296,49,296,49,49,296,49,49,49,49,49,49,296,49,49,296,49,49,296,296,49,296,49,49,49,296,49,49,296,296,49,49,49,49,49,296,49,49,296,296,296,296,296,49,296,49,296,49,296,49,296,49,296,49,296,296,296,296,296,296],"coherence":1,"opposite_coherence":0,"dot_radius":2,"dot_side_length":1,"dot_life":-1,"move_distance":1,"aperture_width":300,"aperture_height":300,"dot_color":["black","black","black","black","black","white","white","black","black","black","black","white","black","black","white","white","black","white","black","white","white","white","black","black","white","black","black","white","black","white","black","black","white","black","white","white","black","white","black","white","white","white","white","black","white","black","white","white","black","black","white","black","black","white","white","white","black","white","white","black","white","black","black","black","black","white","white","black","white","white","black","black","white","white","black","black","black","white","black","black","white","white","black","black","white","black","white","black","white","black","black","black","white","black","white","black","white","white","white","white","black","black","white","black","black","black","white","white","white","black","white","black","black","white","white","black","black","black","black","white","white","white","white","black","black","white","black","white","white","white","white","black","white","white","white","black","white","black","black","black","black","white","black","white","white","black","white","white","white","white","white","white","black","white","white","black","white","white","black","black","white","black","white","white","white","black","white","white","black","black","white","white","white","white","white","black","white","white","black","black","black","black","black","white","black","white","black","white","black","white","black","white","black","white","black","black","black","black","black","black"],"dot_shape":"circle","background_color":"#AAA","RDK_type":3,"aperture_type":2,"reinsert_type":2,"frame_rate":20.802083333333332,"frame_rate_array":[15,22,20,21,20,21,21,20,21,20,21,21,21,21,22,21,21,20,21,21,21,21,20,21,21,21,21,21,20,21,21,21,21,20,21,21,20,21,21,21,21,21,21,21,21,21,21,21,20,21,21,21,21,21,21,21,21,21,21,20,21,21,21,21,21,20,21,21,20,21,21,20,21,21,21,21,21,21,21,22,20,20,21,22,20,20,21,21,22,20,21,21,22,21,21,21],"number_of_frames":96,"aperture_center_x":683,"aperture_center_y":384,"fixation_cross":true,"fixation_cross_width":15,"fixation_cross_height":15,"fixation_cross_color":"#111","fixation_cross_thickness":1,"border":true,"border_thickness":2,"border_color":"transparent","canvas_width":1366,"canvas_height":768,"trial_type":"rdk","trial_index":88,"plugin_version":"2.0.0","time_elapsed":512352},{"rt":8642,"stimulus":"\n        <div class=\"response-container\">\n          <div class=\"response-instruction\">\n            <p>rotate the bar by using the left and right arrow keys.</p>\n            <p>when you are determined, press the Enter key.</p>\n          </div>\n          <div class=\"response-circle\">\n            <div class=\"response-fixation\"></div>\n            <div id=\"bar\" class=\"rotating-bar\"></div>\n          </div>\n        </div>\n      ","response":"Enter","trial_type":"html-keyboard-response","trial_index":89,"plugin_version":"2.1.0","time_elapsed":520995,"random_initial_angle":198,"response_angle_css":48,"response_angle_rdk":42,"angular_error_target":106,"angular_error_distractor":-7,"target_direction":296,"target_group":"black","reward_points":0},{"rt":null,"stimulus":"\n          <p style=\"color: #FF3333;\">Your reward: 0 points</p>\n        ","response":null,"trial_type":"html-keyboard-response","trial_index":90,"plugin_version":"2.1.0","time_elapsed":523005},{"rt":null,"stimulus":"<div class=\"fixation\" style=\"font-size: 60px;\">+</div>","response":null,"trial_type":"html-keyboard-response","trial_index":91,"plugin_version":"2.1.0","time_elapsed":524019},{"phase":"learning-awareness","target_group":"black","condition_label":"B_H_vs_W_L_rep2","target_direction":301,"distractor_direction":45,"session_rotation":187,"rt":-1,"response":"","correct":false,"choices":"ALL_KEYS","correct_choice":["a"],"trial_duration":2000,"flip_timestamps":[],"response_ends_trial":false,"number_of_apertures":200,"number_of_dots":[1,1,1,1,1,1,1,1,1,1,1,1,1,1,1,1,1,1,1,1,1,1,1,1,1,1,1,1,1,1,1,1,1,1,1,1,1,1,1,1,1,1,1,1,1,1,1,1,1,1,1,1,1,1,1,1,1,1,1,1,1,1,1,1,1,1,1,1,1,1,1,1,1,1,1,1,1,1,1,1,1,1,1,1,1,1,1,1,1,1,1,1,1,1,1,1,1,1,1,1,1,1,1,1,1,1,1,1,1,1,1,1,1,1,1,1,1,1,1,1,1,1,1,1,1,1,1,1,1,1,1,1,1,1,1,1,1,1,1,1,1,1,1,1,1,1,1,1,1,1,1,1,1,1,1,1,1,1,1,1,1,1,1,1,1,1,1,1,1,1,1,1,1,1,1,1,1,1,1,1,1,1,1,1,1,1,1,1,1,1,1,1,1,1,1,1,1,1,1,1],"number_of_sets":1,"coherent_direction":[301,45,301,45,45,301,45,45,301,45,45,301,301,45,45,301,301,45,301,45,45,301,301,301,45,45,45,301,301,45,45,45,301,45,45,45,45,301,301,301,301,301,45,45,301,45,301,301,301,45,301,301,301,301,301,301,45,45,45,45,45,45,45,45,301,301,301,45,301,45,301,45,45,45,45,45,45,45,301,301,45,301,301,45,301,301,301,301,45,301,301,301,45,301,45,301,45,301,45,301,45,45,301,45,301,301,45,301,301,45,301,45,45,301,45,301,301,45,45,301,45,45,45,45,301,45,45,45,45,301,301,45,45,45,45,301,45,45,301,45,301,301,301,301,45,301,301,301,301,301,45,45,45,301,301,45,301,45,301,301,301,301,45,301,45,301,45,45,45,45,45,45,45,301,301,301,301,301,301,301,301,45,301,45,301,301,45,301,45,45,301,301,45,45,301,45,301,45,301,45],"coherence":1,"opposite_coherence":0,"dot_radius":2,"dot_side_length":1,"dot_life":-1,"move_distance":1,"aperture_width":300,"aperture_height":300,"dot_color":["black","white","black","white","white","black","white","white","black","white","white","black","black","white","white","black","black","white","black","white","white","black","black","black","white","white","white","black","black","white","white","white","black","white","white","white","white","black","black","black","black","black","white","white","black","white","black","black","black","white","black","black","black","black","black","black","white","white","white","white","white","white","white","white","black","black","black","white","black","white","black","white","white","white","white","white","white","white","black","black","white","black","black","white","black","black","black","black","white","black","black","black","white","black","white","black","white","black","white","black","white","white","black","white","black","black","white","black","black","white","black","white","white","black","white","black","black","white","white","black","white","white","white","white","black","white","white","white","white","black","black","white","white","white","white","black","white","white","black","white","black","black","black","black","white","black","black","black","black","black","white","white","white","black","black","white","black","white","black","black","black","black","white","black","white","black","white","white","white","white","white","white","white","black","black","black","black","black","black","black","black","white","black","white","black","black","white","black","white","white","black","black","white","white","black","white","black","white","black","white"],"dot_shape":"circle","background_color":"#AAA","RDK_type":3,"aperture_type":2,"reinsert_type":2,"frame_rate":20.645833333333332,"frame_rate_array":[6,14,20,21,21,21,20,21,20,21,23,20,21,21,21,21,21,20,21,21,21,21,20,21,22,21,21,21,22,20,21,21,20,21,20,21,21,22,20,22,20,22,20,20,21,20,21,21,21,21,21,22,20,22,21,21,20,20,22,21,21,21,23,20,20,22,21,21,21,20,20,21,22,21,20,21,21,21,21,20,22,20,21,22,21,21,21,20,20,19,20,21,21,21,21,22],"number_of_frames":96,"aperture_center_x":683,"aperture_center_y":384,"fixation_cross":true,"fixation_cross_width":15,"fixation_cross_height":15,"fixation_cross_color":"#111","fixation_cross_thickness":1,"border":true,"border_thickness":2,"border_color":"transparent","canvas_width":1366,"canvas_height":768,"trial_type":"rdk","trial_index":92,"plugin_version":"2.0.0","time_elapsed":526025},{"rt":6510,"stimulus":"\n        <div class=\"response-container\">\n          <div class=\"response-instruction\">\n            <p>rotate the bar by using the left and right arrow keys.</p>\n            <p>when you are determined, press the Enter key.</p>\n          </div>\n          <div class=\"response-circle\">\n            <div class=\"response-fixation\"></div>\n            <div id=\"bar\" class=\"rotating-bar\"></div>\n          </div>\n        </div>\n      ","response":"Enter","trial_type":"html-keyboard-response","trial_index":93,"plugin_version":"2.1.0","time_elapsed":532536,"random_initial_angle":175,"response_angle_css":121,"response_angle_rdk":329,"angular_error_target":28,"angular_error_distractor":-76,"target_direction":301,"target_group":"black","reward_points":4},{"rt":null,"stimulus":"\n          <p style=\"color: #00FF00;\">Your reward: 4 points</p>\n        ","response":null,"trial_type":"html-keyboard-response","trial_index":94,"plugin_version":"2.1.0","time_elapsed":534541},{"rt":null,"stimulus":"<div class=\"fixation\" style=\"font-size: 60px;\">+</div>","response":null,"trial_type":"html-keyboard-response","trial_index":95,"plugin_version":"2.1.0","time_elapsed":535554},{"phase":"learning-awareness","target_group":"white","condition_label":"W_H_vs_B_L_rep14","target_direction":225,"distractor_direction":135,"session_rotation":187,"rt":-1,"response":"","correct":false,"choices":"ALL_KEYS","correct_choice":["a"],"trial_duration":2000,"flip_timestamps":[],"response_ends_trial":false,"number_of_apertures":200,"number_of_dots":[1,1,1,1,1,1,1,1,1,1,1,1,1,1,1,1,1,1,1,1,1,1,1,1,1,1,1,1,1,1,1,1,1,1,1,1,1,1,1,1,1,1,1,1,1,1,1,1,1,1,1,1,1,1,1,1,1,1,1,1,1,1,1,1,1,1,1,1,1,1,1,1,1,1,1,1,1,1,1,1,1,1,1,1,1,1,1,1,1,1,1,1,1,1,1,1,1,1,1,1,1,1,1,1,1,1,1,1,1,1,1,1,1,1,1,1,1,1,1,1,1,1,1,1,1,1,1,1,1,1,1,1,1,1,1,1,1,1,1,1,1,1,1,1,1,1,1,1,1,1,1,1,1,1,1,1,1,1,1,1,1,1,1,1,1,1,1,1,1,1,1,1,1,1,1,1,1,1,1,1,1,1,1,1,1,1,1,1,1,1,1,1,1,1,1,1,1,1,1,1],"number_of_sets":1,"coherent_direction":[135,225,225,225,135,225,225,225,135,135,225,135,225,135,135,225,135,135,225,135,135,225,135,225,135,225,225,135,225,225,135,135,135,225,135,135,225,135,225,135,225,135,225,225,135,225,225,135,225,225,225,225,135,135,225,135,135,135,225,135,225,135,225,135,135,135,225,225,225,135,225,225,225,225,225,135,135,225,135,225,225,135,225,225,225,135,135,225,225,135,225,225,135,135,135,225,135,135,135,135,225,135,225,135,225,135,225,135,135,135,225,225,135,225,135,135,225,225,225,225,225,135,135,225,225,135,225,135,225,225,225,225,135,225,225,225,135,225,225,225,135,225,135,135,225,135,135,135,225,135,135,135,225,225,225,225,135,135,135,135,135,225,135,135,225,135,135,225,225,135,135,135,225,225,225,135,135,135,225,135,225,135,135,225,225,135,225,135,225,135,135,225,225,135,135,135,225,135,135,225],"coherence":1,"opposite_coherence":0,"dot_radius":2,"dot_side_length":1,"dot_life":-1,"move_distance":1,"aperture_width":300,"aperture_height":300,"dot_color":["black","white","white","white","black","white","white","white","black","black","white","black","white","black","black","white","black","black","white","black","black","white","black","white","black","white","white","black","white","white","black","black","black","white","black","black","white","black","white","black","white","black","white","white","black","white","white","black","white","white","white","white","black","black","white","black","black","black","white","black","white","black","white","black","black","black","white","white","white","black","white","white","white","white","white","black","black","white","black","white","white","black","white","white","white","black","black","white","white","black","white","white","black","black","black","white","black","black","black","black","white","black","white","black","white","black","white","black","black","black","white","white","black","white","black","black","white","white","white","white","white","black","black","white","white","black","white","black","white","white","white","white","black","white","white","white","black","white","white","white","black","white","black","black","white","black","black","black","white","black","black","black","white","white","white","white","black","black","black","black","black","white","black","black","white","black","black","white","white","black","black","black","white","white","white","black","black","black","white","black","white","black","black","white","white","black","white","black","white","black","black","white","white","black","black","black","white","black","black","white"],"dot_shape":"circle","background_color":"#AAA","RDK_type":3,"aperture_type":2,"reinsert_type":2,"frame_rate":20.666666666666668,"frame_rate_array":[9,15,21,23,19,21,21,21,21,21,20,21,23,21,22,17,19,23,20,21,20,20,21,22,21,21,21,23,21,21,20,21,22,21,20,21,21,21,23,19,22,19,19,21,21,21,20,21,21,23,19,21,22,20,21,20,21,21,21,20,22,21,20,22,20,21,21,21,20,21,20,21,21,21,20,21,21,21,21,20,21,21,21,21,21,21,21,21,20,21,21,21,21,21,21,21],"number_of_frames":96,"aperture_center_x":683,"aperture_center_y":384,"fixation_cross":true,"fixation_cross_width":15,"fixation_cross_height":15,"fixation_cross_color":"#111","fixation_cross_thickness":1,"border":true,"border_thickness":2,"border_color":"transparent","canvas_width":1366,"canvas_height":768,"trial_type":"rdk","trial_index":96,"plugin_version":"2.0.0","time_elapsed":537560},{"rt":6923,"stimulus":"\n        <div class=\"response-container\">\n          <div class=\"response-instruction\">\n            <p>rotate the bar by using the left and right arrow keys.</p>\n            <p>when you are determined, press the Enter key.</p>\n          </div>\n          <div class=\"response-circle\">\n            <div class=\"response-fixation\"></div>\n            <div id=\"bar\" class=\"rotating-bar\"></div>\n          </div>\n        </div>\n      ","response":"Enter","trial_type":"html-keyboard-response","trial_index":97,"plugin_version":"2.1.0","time_elapsed":544483,"random_initial_angle":135,"response_angle_css":-117,"response_angle_rdk":207,"angular_error_target":-18,"angular_error_distractor":72,"target_direction":225,"target_group":"white","reward_points":6},{"rt":null,"stimulus":"\n          <p style=\"color: #00FF00;\">Your reward: 6 points</p>\n        ","response":null,"trial_type":"html-keyboard-response","trial_index":98,"plugin_version":"2.1.0","time_elapsed":546490},{"rt":null,"stimulus":"<div class=\"fixation\" style=\"font-size: 60px;\">+</div>","response":null,"trial_type":"html-keyboard-response","trial_index":99,"plugin_version":"2.1.0","time_elapsed":547501},{"phase":"learning-awareness","target_group":"white","condition_label":"W_H_vs_B_L_rep12","target_direction":219,"distractor_direction":111,"session_rotation":187,"rt":-1,"response":"","correct":false,"choices":"ALL_KEYS","correct_choice":["a"],"trial_duration":2000,"flip_timestamps":[],"response_ends_trial":false,"number_of_apertures":200,"number_of_dots":[1,1,1,1,1,1,1,1,1,1,1,1,1,1,1,1,1,1,1,1,1,1,1,1,1,1,1,1,1,1,1,1,1,1,1,1,1,1,1,1,1,1,1,1,1,1,1,1,1,1,1,1,1,1,1,1,1,1,1,1,1,1,1,1,1,1,1,1,1,1,1,1,1,1,1,1,1,1,1,1,1,1,1,1,1,1,1,1,1,1,1,1,1,1,1,1,1,1,1,1,1,1,1,1,1,1,1,1,1,1,1,1,1,1,1,1,1,1,1,1,1,1,1,1,1,1,1,1,1,1,1,1,1,1,1,1,1,1,1,1,1,1,1,1,1,1,1,1,1,1,1,1,1,1,1,1,1,1,1,1,1,1,1,1,1,1,1,1,1,1,1,1,1,1,1,1,1,1,1,1,1,1,1,1,1,1,1,1,1,1,1,1,1,1,1,1,1,1,1,1],"number_of_sets":1,"coherent_direction":[219,111,219,111,219,219,111,219,219,219,219,219,219,111,219,219,219,219,219,111,219,111,111,111,219,219,219,219,111,111,111,111,219,111,111,111,111,219,111,111,219,111,111,111,111,219,219,219,111,111,219,111,219,219,111,111,219,219,219,111,219,111,219,219,219,111,111,111,111,219,219,111,111,219,111,111,111,111,219,219,111,111,219,111,219,219,111,111,111,219,111,111,219,111,111,219,111,111,219,219,219,111,219,219,219,111,111,111,111,219,219,111,111,219,219,111,219,219,219,219,111,219,219,111,219,219,219,111,111,111,219,219,219,219,219,111,111,111,111,219,219,111,219,219,111,219,219,219,219,111,219,219,111,219,111,219,111,111,219,111,111,111,111,111,111,111,219,111,219,219,219,111,111,219,219,219,219,219,111,219,111,111,219,219,111,219,111,219,219,111,219,111,111,111,111,111,111,111,111,111],"coherence":1,"opposite_coherence":0,"dot_radius":2,"dot_side_length":1,"dot_life":-1,"move_distance":1,"aperture_width":300,"aperture_height":300,"dot_color":["white","black","white","black","white","white","black","white","white","white","white","white","white","black","white","white","white","white","white","black","white","black","black","black","white","white","white","white","black","black","black","black","white","black","black","black","black","white","black","black","white","black","black","black","black","white","white","white","black","black","white","black","white","white","black","black","white","white","white","black","white","black","white","white","white","black","black","black","black","white","white","black","black","white","black","black","black","black","white","white","black","black","white","black","white","white","black","black","black","white","black","black","white","black","black","white","black","black","white","white","white","black","white","white","white","black","black","black","black","white","white","black","black","white","white","black","white","white","white","white","black","white","white","black","white","white","white","black","black","black","white","white","white","white","white","black","black","black","black","white","white","black","white","white","black","white","white","white","white","black","white","white","black","white","black","white","black","black","white","black","black","black","black","black","black","black","white","black","white","white","white","black","black","white","white","white","white","white","black","white","black","black","white","white","black","white","black","white","white","black","white","black","black","black","black","black","black","black","black","black"],"dot_shape":"circle","background_color":"#AAA","RDK_type":3,"aperture_type":2,"reinsert_type":2,"frame_rate":20.875,"frame_rate_array":[20,20,21,21,21,21,21,21,21,21,21,20,21,21,21,20,21,20,21,21,21,21,21,21,21,21,21,21,22,20,21,21,21,21,21,21,21,21,21,21,21,21,21,21,20,22,21,20,21,21,21,21,21,21,21,21,21,21,21,21,20,21,21,21,21,21,21,21,21,21,21,21,21,22,20,21,21,21,21,21,20,21,21,20,21,20,21,21,21,21,21,20,21,20,21,21],"number_of_frames":96,"aperture_center_x":683,"aperture_center_y":384,"fixation_cross":true,"fixation_cross_width":15,"fixation_cross_height":15,"fixation_cross_color":"#111","fixation_cross_thickness":1,"border":true,"border_thickness":2,"border_color":"transparent","canvas_width":1366,"canvas_height":768,"trial_type":"rdk","trial_index":100,"plugin_version":"2.0.0","time_elapsed":549525},{"rt":6033,"stimulus":"\n        <div class=\"response-container\">\n          <div class=\"response-instruction\">\n            <p>rotate the bar by using the left and right arrow keys.</p>\n            <p>when you are determined, press the Enter key.</p>\n          </div>\n          <div class=\"response-circle\">\n            <div class=\"response-fixation\"></div>\n            <div id=\"bar\" class=\"rotating-bar\"></div>\n          </div>\n        </div>\n      ","response":"Enter","trial_type":"html-keyboard-response","trial_index":101,"plugin_version":"2.1.0","time_elapsed":555559,"random_initial_angle":41,"response_angle_css":225,"response_angle_rdk":225,"angular_error_target":6,"angular_error_distractor":114,"target_direction":219,"target_group":"white","reward_points":8},{"rt":null,"stimulus":"\n          <p style=\"color: #00FF00;\">Your reward: 8 points</p>\n        ","response":null,"trial_type":"html-keyboard-response","trial_index":102,"plugin_version":"2.1.0","time_elapsed":557566},{"rt":null,"stimulus":"<div class=\"fixation\" style=\"font-size: 60px;\">+</div>","response":null,"trial_type":"html-keyboard-response","trial_index":103,"plugin_version":"2.1.0","time_elapsed":558568},{"phase":"learning-awareness","target_group":"black","condition_label":"B_H_vs_W_L_rep8","target_direction":290,"distractor_direction":29,"session_rotation":187,"rt":-1,"response":"","correct":false,"choices":"ALL_KEYS","correct_choice":["a"],"trial_duration":2000,"flip_timestamps":[],"response_ends_trial":false,"number_of_apertures":200,"number_of_dots":[1,1,1,1,1,1,1,1,1,1,1,1,1,1,1,1,1,1,1,1,1,1,1,1,1,1,1,1,1,1,1,1,1,1,1,1,1,1,1,1,1,1,1,1,1,1,1,1,1,1,1,1,1,1,1,1,1,1,1,1,1,1,1,1,1,1,1,1,1,1,1,1,1,1,1,1,1,1,1,1,1,1,1,1,1,1,1,1,1,1,1,1,1,1,1,1,1,1,1,1,1,1,1,1,1,1,1,1,1,1,1,1,1,1,1,1,1,1,1,1,1,1,1,1,1,1,1,1,1,1,1,1,1,1,1,1,1,1,1,1,1,1,1,1,1,1,1,1,1,1,1,1,1,1,1,1,1,1,1,1,1,1,1,1,1,1,1,1,1,1,1,1,1,1,1,1,1,1,1,1,1,1,1,1,1,1,1,1,1,1,1,1,1,1,1,1,1,1,1,1],"number_of_sets":1,"coherent_direction":[29,290,290,29,29,29,29,29,290,290,290,290,29,29,29,29,290,290,290,290,290,290,29,29,29,29,29,290,290,29,29,290,29,290,290,290,29,290,29,290,29,290,290,290,290,290,290,290,29,290,290,290,29,290,290,290,290,29,29,290,29,290,290,29,290,29,290,290,29,290,29,29,290,290,290,29,290,290,290,29,29,29,290,290,290,290,29,29,29,290,29,290,29,29,290,29,290,290,29,290,290,290,29,290,290,29,290,29,29,29,290,290,29,29,29,29,29,29,29,29,29,29,29,29,29,29,29,29,29,290,29,290,29,290,290,29,29,29,29,290,29,29,290,290,29,29,290,290,29,29,290,29,29,290,29,29,290,290,290,29,290,29,290,290,29,29,290,290,290,290,29,29,29,290,29,290,29,29,29,29,290,290,290,290,290,290,290,290,290,290,29,29,29,290,29,29,29,290,29,290],"coherence":1,"opposite_coherence":0,"dot_radius":2,"dot_side_length":1,"dot_life":-1,"move_distance":1,"aperture_width":300,"aperture_height":300,"dot_color":["white","black","black","white","white","white","white","white","black","black","black","black","white","white","white","white","black","black","black","black","black","black","white","white","white","white","white","black","black","white","white","black","white","black","black","black","white","black","white","black","white","black","black","black","black","black","black","black","white","black","black","black","white","black","black","black","black","white","white","black","white","black","black","white","black","white","black","black","white","black","white","white","black","black","black","white","black","black","black","white","white","white","black","black","black","black","white","white","white","black","white","black","white","white","black","white","black","black","white","black","black","black","white","black","black","white","black","white","white","white","black","black","white","white","white","white","white","white","white","white","white","white","white","white","white","white","white","white","white","black","white","black","white","black","black","white","white","white","white","black","white","white","black","black","white","white","black","black","white","white","black","white","white","black","white","white","black","black","black","white","black","white","black","black","white","white","black","black","black","black","white","white","white","black","white","black","white","white","white","white","black","black","black","black","black","black","black","black","black","black","white","white","white","black","white","white","white","black","white","black"],"dot_shape":"circle","background_color":"#AAA","RDK_type":3,"aperture_type":2,"reinsert_type":2,"frame_rate":20.791666666666668,"frame_rate_array":[10,20,20,22,21,21,21,22,21,21,20,21,21,21,21,20,21,21,21,21,21,21,20,21,21,20,21,21,21,21,22,20,21,21,20,21,21,21,21,20,21,21,21,21,20,21,21,21,22,20,20,21,20,22,21,21,22,23,21,22,18,19,20,21,22,21,21,21,22,44,6,15,20,21,22,20,22,20,20,21,21,22,19,21,23,19,21,20,22,21,22,22,20,20,20,22],"number_of_frames":96,"aperture_center_x":683,"aperture_center_y":384,"fixation_cross":true,"fixation_cross_width":15,"fixation_cross_height":15,"fixation_cross_color":"#111","fixation_cross_thickness":1,"border":true,"border_thickness":2,"border_color":"transparent","canvas_width":1366,"canvas_height":768,"trial_type":"rdk","trial_index":104,"plugin_version":"2.0.0","time_elapsed":560580},{"rt":6232,"stimulus":"\n        <div class=\"response-container\">\n          <div class=\"response-instruction\">\n            <p>rotate the bar by using the left and right arrow keys.</p>\n            <p>when you are determined, press the Enter key.</p>\n          </div>\n          <div class=\"response-circle\">\n            <div class=\"response-fixation\"></div>\n            <div id=\"bar\" class=\"rotating-bar\"></div>\n          </div>\n        </div>\n      ","response":"Enter","trial_type":"html-keyboard-response","trial_index":105,"plugin_version":"2.1.0","time_elapsed":566812,"random_initial_angle":186,"response_angle_css":127,"response_angle_rdk":323,"angular_error_target":33,"angular_error_distractor":-66,"target_direction":290,"target_group":"black","reward_points":3},{"rt":null,"stimulus":"\n          <p style=\"color: #00FF00;\">Your reward: 3 points</p>\n        ","response":null,"trial_type":"html-keyboard-response","trial_index":106,"plugin_version":"2.1.0","time_elapsed":568815},{"rt":null,"stimulus":"<div class=\"fixation\" style=\"font-size: 60px;\">+</div>","response":null,"trial_type":"html-keyboard-response","trial_index":107,"plugin_version":"2.1.0","time_elapsed":569833},{"phase":"learning-awareness","target_group":"black","condition_label":"B_H_vs_W_L_rep9","target_direction":278,"distractor_direction":35,"session_rotation":187,"rt":-1,"response":"","correct":false,"choices":"ALL_KEYS","correct_choice":["a"],"trial_duration":2000,"flip_timestamps":[],"response_ends_trial":false,"number_of_apertures":200,"number_of_dots":[1,1,1,1,1,1,1,1,1,1,1,1,1,1,1,1,1,1,1,1,1,1,1,1,1,1,1,1,1,1,1,1,1,1,1,1,1,1,1,1,1,1,1,1,1,1,1,1,1,1,1,1,1,1,1,1,1,1,1,1,1,1,1,1,1,1,1,1,1,1,1,1,1,1,1,1,1,1,1,1,1,1,1,1,1,1,1,1,1,1,1,1,1,1,1,1,1,1,1,1,1,1,1,1,1,1,1,1,1,1,1,1,1,1,1,1,1,1,1,1,1,1,1,1,1,1,1,1,1,1,1,1,1,1,1,1,1,1,1,1,1,1,1,1,1,1,1,1,1,1,1,1,1,1,1,1,1,1,1,1,1,1,1,1,1,1,1,1,1,1,1,1,1,1,1,1,1,1,1,1,1,1,1,1,1,1,1,1,1,1,1,1,1,1,1,1,1,1,1,1],"number_of_sets":1,"coherent_direction":[278,35,35,35,35,278,278,278,278,278,278,278,35,35,278,278,35,278,278,35,278,278,278,278,35,35,278,278,278,35,35,35,278,35,35,278,278,35,35,278,35,35,278,35,35,278,278,35,35,35,278,35,35,35,35,35,278,278,35,35,278,278,35,35,35,35,35,35,278,35,35,35,278,278,35,35,35,278,278,35,35,35,35,35,278,278,278,35,35,35,278,35,35,278,278,278,278,35,35,278,278,278,35,278,278,35,35,35,35,278,278,35,35,278,35,35,35,35,278,278,35,35,278,278,278,278,35,278,35,278,35,278,278,35,278,35,278,278,278,278,35,278,35,278,35,278,278,35,278,278,278,35,278,278,35,278,278,35,278,35,35,35,35,278,35,278,35,278,35,278,278,35,278,278,278,278,278,278,278,278,278,35,35,35,35,35,35,278,278,35,278,35,35,278,278,35,35,278,35,278],"coherence":1,"opposite_coherence":0,"dot_radius":2,"dot_side_length":1,"dot_life":-1,"move_distance":1,"aperture_width":300,"aperture_height":300,"dot_color":["black","white","white","white","white","black"