[{"rt":4178,"stimulus":"Welcome to the experiment. Press any key to begin.","response":" ","trial_type":"html-keyboard-response","trial_index":0,"plugin_version":"2.1.0","time_elapsed":4186},{"rt":26977,"stimulus":"\n        <div class=\"instructions-container\">\n          <h2>Instructions</h2>\n\n          <p>\n          In this experiment, you will see <strong>two Random Dot Kinematograms (RDKs)</strong> displayed simultaneously.\n          </p>\n\n          <p>\n          An RDK is a visual stimulus consisting of many small dots that move coherently in a single direction. \n          In this experiment, the dots will be either <strong>white</strong> or <strong>black</strong> \n          (see the short demo below for an example of an RDK stimulus).\n          </p>\n\n          <p>\n          On each trial, the two RDKs will move in different directions. \n          Your task is to decide <strong>which RDK appears to contain more dots</strong>.\n          </p>\n\n          <p>\n          The RDK that you judge to have more dots is called the <strong>target RDK</strong>. \n          For example, if the white RDK appears to have more dots than the black RDK, \n          you should report the motion direction of the white RDK.\n          </p>\n\n          <p>\n          After viewing the RDKs, you will rotate a bar to indicate the perceived direction of the target RDK \n          using the <strong>left</strong> and <strong>right arrow keys</strong>. \n          Press <strong>Enter</strong> when you are satisfied with your response.\n          When the bar is held down, the rotation speed increases.\n          </p>\n\n          <p>\n          You will receive points based on the <strong>accuracy of your response</strong>, \n          and your final <strong>bonus reward</strong> may depend on your overall performance. \n          Please try to respond as accurately as possible.\n          </p>\n\n          <p>\n          You will first complete <strong>16 practice trials</strong>. \n          Press the <strong>Enter</strong> key to start the practice phase.\n          </p>\n\n          <canvas id=\"instruction-demo-rdk\" width=\"200\" height=\"200\"style=\"display:block;margin:12px auto; border-radius: 50%;\"></canvas>\n        </div>\n      ","response":"Enter","trial_type":"html-keyboard-response","trial_index":1,"plugin_version":"2.1.0","time_elapsed":31172},{"rt":null,"stimulus":"<div class=\"fixation\" style=\"font-size: 60px;\">+</div>","response":null,"trial_type":"html-keyboard-response","trial_index":2,"plugin_version":"2.1.0","time_elapsed":32190},{"target_group":"black","target_index":1,"condition_label":"practice","rt":-1,"response":"","correct":false,"choices":"ALL_KEYS","correct_choice":["a"],"trial_duration":2000,"flip_timestamps":[],"response_ends_trial":false,"number_of_apertures":2,"number_of_dots":[61,100],"number_of_sets":1,"coherent_direction":[318,63],"coherence":1,"opposite_coherence":0,"dot_radius":2,"dot_side_length":1,"dot_life":-1,"move_distance":1,"aperture_width":300,"aperture_height":300,"dot_color":["white","black"],"dot_shape":"circle","background_color":"#AAA","RDK_type":3,"aperture_type":2,"reinsert_type":2,"frame_rate":16.591666666666665,"frame_rate_array":[4,19,12,18,15,17,16,16,17,17,17,16,17,17,17,16,17,17,16,17,17,17,17,17,16,16,17,17,17,16,17,16,17,18,15,17,16,17,17,16,17,17,17,17,17,16,17,17,17,17,16,18,16,17,17,17,17,16,17,17,16,17,17,18,18,14,17,17,17,17,16,17,17,16,17,16,17,17,17,17,16,17,17,17,17,17,17,16,17,17,16,17,17,16,17,18,15,16,17,17,16,17,17,16,17,17,16,17,17,17,17,17,16,17,16,17,17,16,17,17],"number_of_frames":120,"aperture_center_x":768,"aperture_center_y":432,"fixation_cross":true,"fixation_cross_width":15,"fixation_cross_height":15,"fixation_cross_color":"#111","fixation_cross_thickness":1,"border":true,"border_thickness":2,"border_color":"transparent","canvas_width":1536,"canvas_height":864,"trial_type":"rdk","trial_index":3,"plugin_version":"2.0.0","time_elapsed":34197,"phase":"practice","target_direction":63,"distractor_direction":318},{"rt":15557,"stimulus":"\n        <div class=\"response-container\">\n          <div class=\"response-instruction\">\n            <p>rotate the bar by using the left and right arrow keys.</p>\n            <p>when you are determined, press the Enter key.</p>\n          </div>\n          <div class=\"response-circle\">\n            <div class=\"response-fixation\"></div>\n            <div id=\"bar\" class=\"rotating-bar\"></div>\n          </div>\n        </div>\n      ","response":"Enter","trial_type":"html-keyboard-response","trial_index":4,"plugin_version":"2.1.0","time_elapsed":49756,"random_initial_angle":154,"response_angle_css":154,"response_angle_rdk":296,"angular_error_target":-127,"angular_error_distractor":-22,"target_direction":63,"target_group":"black","reward_points":0},{"rt":null,"stimulus":"\n          <p style=\"color: #FF3333;\">Your reward: 0 points</p>\n        ","response":null,"trial_type":"html-keyboard-response","trial_index":5,"plugin_version":"2.1.0","time_elapsed":51763},{"rt":null,"stimulus":"<div class=\"fixation\" style=\"font-size: 60px;\">+</div>","response":null,"trial_type":"html-keyboard-response","trial_index":6,"plugin_version":"2.1.0","time_elapsed":52780},{"target_group":"white","target_index":0,"condition_label":"practice","rt":-1,"response":"","correct":false,"choices":"ALL_KEYS","correct_choice":["a"],"trial_duration":2000,"flip_timestamps":[],"response_ends_trial":false,"number_of_apertures":2,"number_of_dots":[100,80],"number_of_sets":1,"coherent_direction":[163,45],"coherence":1,"opposite_coherence":0,"dot_radius":2,"dot_side_length":1,"dot_life":-1,"move_distance":1,"aperture_width":300,"aperture_height":300,"dot_color":["white","black"],"dot_shape":"circle","background_color":"#AAA","RDK_type":3,"aperture_type":2,"reinsert_type":2,"frame_rate":16.691666666666666,"frame_rate_array":[24,2,13,16,17,17,17,17,17,17,17,17,16,17,17,16,18,17,17,16,17,16,17,16,17,17,17,16,17,17,17,17,17,17,16,18,22,11,17,17,16,17,17,17,17,16,17,18,17,17,16,18,21,13,16,24,16,12,13,17,17,17,16,17,20,14,22,10,17,17,17,16,18,16,17,17,17,21,12,16,17,17,17,17,17,17,17,17,17,16,16,17,16,17,17,20,21,9,16,17,17,17,16,17,17,17,17,17,17,17,17,17,17,17,17,17,16,17,17,17],"number_of_frames":120,"aperture_center_x":768,"aperture_center_y":432,"fixation_cross":true,"fixation_cross_width":15,"fixation_cross_height":15,"fixation_cross_color":"#111","fixation_cross_thickness":1,"border":true,"border_thickness":2,"border_color":"transparent","canvas_width":1536,"canvas_height":864,"trial_type":"rdk","trial_index":7,"plugin_version":"2.0.0","time_elapsed":54787,"phase":"practice","target_direction":163,"distractor_direction":45},{"rt":58936,"stimulus":"\n        <div class=\"response-container\">\n          <div class=\"response-instruction\">\n            <p>rotate the bar by using the left and right arrow keys.</p>\n            <p>when you are determined, press the Enter key.</p>\n          </div>\n          <div class=\"response-circle\">\n            <div class=\"response-fixation\"></div>\n            <div id=\"bar\" class=\"rotating-bar\"></div>\n          </div>\n        </div>\n      ","response":"Enter","trial_type":"html-keyboard-response","trial_index":8,"plugin_version":"2.1.0","time_elapsed":113723,"random_initial_angle":201,"response_angle_css":46,"response_angle_rdk":44,"angular_error_target":-119,"angular_error_distractor":-1,"target_direction":163,"target_group":"white","reward_points":0},{"rt":null,"stimulus":"\n          <p style=\"color: #FF3333;\">Your reward: 0 points</p>\n        ","response":null,"trial_type":"html-keyboard-response","trial_index":9,"plugin_version":"2.1.0","time_elapsed":115738},{"rt":null,"stimulus":"<div class=\"fixation\" style=\"font-size: 60px;\">+</div>","response":null,"trial_type":"html-keyboard-response","trial_index":10,"plugin_version":"2.1.0","time_elapsed":116751},{"target_group":"black","target_index":1,"condition_label":"practice","rt":-1,"response":"","correct":false,"choices":"ALL_KEYS","correct_choice":["a"],"trial_duration":2000,"flip_timestamps":[],"response_ends_trial":false,"number_of_apertures":2,"number_of_dots":[71,100],"number_of_sets":1,"coherent_direction":[311,159],"coherence":1,"opposite_coherence":0,"dot_radius":2,"dot_side_length":1,"dot_life":-1,"move_distance":1,"aperture_width":300,"aperture_height":300,"dot_color":["white","black"],"dot_shape":"circle","background_color":"#AAA","RDK_type":3,"aperture_type":2,"reinsert_type":2,"frame_rate":16.725,"frame_rate_array":[7,16,17,17,17,16,16,16,17,17,17,17,17,17,17,17,17,16,17,17,17,17,16,17,17,17,17,17,16,17,17,16,17,17,16,17,18,17,17,16,17,17,17,17,17,17,17,17,17,16,17,17,16,17,17,17,16,16,17,17,16,17,17,16,17,16,17,17,17,17,17,17,17,17,17,17,17,17,17,17,16,17,17,17,17,17,17,16,17,17,17,17,17,16,17,17,16,16,17,16,17,17,17,17,17,17,17,16,17,17,17,17,17,17,17,18,17,17,17,16],"number_of_frames":120,"aperture_center_x":768,"aperture_center_y":432,"fixation_cross":true,"fixation_cross_width":15,"fixation_cross_height":15,"fixation_cross_color":"#111","fixation_cross_thickness":1,"border":true,"border_thickness":2,"border_color":"transparent","canvas_width":1536,"canvas_height":864,"trial_type":"rdk","trial_index":11,"plugin_version":"2.0.0","time_elapsed":118756,"phase":"practice","target_direction":159,"distractor_direction":311},{"rt":6459,"stimulus":"\n        <div class=\"response-container\">\n          <div class=\"response-instruction\">\n            <p>rotate the bar by using the left and right arrow keys.</p>\n            <p>when you are determined, press the Enter key.</p>\n          </div>\n          <div class=\"response-circle\">\n            <div class=\"response-fixation\"></div>\n            <div id=\"bar\" class=\"rotating-bar\"></div>\n          </div>\n        </div>\n      ","response":"Enter","trial_type":"html-keyboard-response","trial_index":12,"plugin_version":"2.1.0","time_elapsed":125218,"random_initial_angle":48,"response_angle_css":-49,"response_angle_rdk":139,"angular_error_target":-20,"angular_error_distractor":-172,"target_direction":159,"target_group":"black","reward_points":6},{"rt":null,"stimulus":"\n          <p style=\"color: #00FF00;\">Your reward: 6 points</p>\n        ","response":null,"trial_type":"html-keyboard-response","trial_index":13,"plugin_version":"2.1.0","time_elapsed":127222},{"rt":null,"stimulus":"<div class=\"fixation\" style=\"font-size: 60px;\">+</div>","response":null,"trial_type":"html-keyboard-response","trial_index":14,"plugin_version":"2.1.0","time_elapsed":128238},{"target_group":"black","target_index":1,"condition_label":"practice","rt":-1,"response":"","correct":false,"choices":"ALL_KEYS","correct_choice":["a"],"trial_duration":2000,"flip_timestamps":[],"response_ends_trial":false,"number_of_apertures":2,"number_of_dots":[68,100],"number_of_sets":1,"coherent_direction":[65,321],"coherence":1,"opposite_coherence":0,"dot_radius":2,"dot_side_length":1,"dot_life":-1,"move_distance":1,"aperture_width":300,"aperture_height":300,"dot_color":["white","black"],"dot_shape":"circle","background_color":"#AAA","RDK_type":3,"aperture_type":2,"reinsert_type":2,"frame_rate":16.789915966386555,"frame_rate_array":[12,17,17,17,17,16,16,17,17,17,17,17,17,17,16,17,16,17,17,17,17,17,17,17,16,16,16,17,17,17,17,16,17,17,16,17,16,17,16,17,16,17,17,17,16,17,17,16,17,16,17,17,17,16,17,16,17,16,17,17,16,17,16,17,17,16,16,17,17,17,49,2,16,17,17,17,17,17,17,16,19,14,23,10,16,17,17,16,17,17,17,17,16,17,17,16,24,16,14,20,9,16,17,18,16,17,17,17,17,16,17,17,17,23,10,16,17,17,16],"number_of_frames":119,"aperture_center_x":768,"aperture_center_y":432,"fixation_cross":true,"fixation_cross_width":15,"fixation_cross_height":15,"fixation_cross_color":"#111","fixation_cross_thickness":1,"border":true,"border_thickness":2,"border_color":"transparent","canvas_width":1536,"canvas_height":864,"trial_type":"rdk","trial_index":15,"plugin_version":"2.0.0","time_elapsed":130254,"phase":"practice","target_direction":321,"distractor_direction":65},{"rt":3398,"stimulus":"\n        <div class=\"response-container\">\n          <div class=\"response-instruction\">\n            <p>rotate the bar by using the left and right arrow keys.</p>\n            <p>when you are determined, press the Enter key.</p>\n          </div>\n          <div class=\"response-circle\">\n            <div class=\"response-fixation\"></div>\n            <div id=\"bar\" class=\"rotating-bar\"></div>\n          </div>\n        </div>\n      ","response":"Enter","trial_type":"html-keyboard-response","trial_index":16,"plugin_version":"2.1.0","time_elapsed":133653,"random_initial_angle":89,"response_angle_css":133,"response_angle_rdk":317,"angular_error_target":-4,"angular_error_distractor":-108,"target_direction":321,"target_group":"black","reward_points":9},{"rt":null,"stimulus":"\n          <p style=\"color: #00FF00;\">Your reward: 9 points</p>\n        ","response":null,"trial_type":"html-keyboard-response","trial_index":17,"plugin_version":"2.1.0","time_elapsed":135664},{"rt":null,"stimulus":"<div class=\"fixation\" style=\"font-size: 60px;\">+</div>","response":null,"trial_type":"html-keyboard-response","trial_index":18,"plugin_version":"2.1.0","time_elapsed":136677},{"target_group":"white","target_index":0,"condition_label":"practice","rt":-1,"response":"","correct":false,"choices":"ALL_KEYS","correct_choice":["a"],"trial_duration":2000,"flip_timestamps":[],"response_ends_trial":false,"number_of_apertures":2,"number_of_dots":[100,54],"number_of_sets":1,"coherent_direction":[224,32],"coherence":1,"opposite_coherence":0,"dot_radius":2,"dot_side_length":1,"dot_life":-1,"move_distance":1,"aperture_width":300,"aperture_height":300,"dot_color":["white","black"],"dot_shape":"circle","background_color":"#AAA","RDK_type":3,"aperture_type":2,"reinsert_type":2,"frame_rate":16.68595041322314,"frame_rate_array":[6,12,17,18,15,16,17,17,17,16,17,17,17,16,17,17,17,17,20,14,18,15,17,17,16,17,18,16,17,17,16,17,17,16,16,17,17,17,17,17,17,25,8,17,17,16,19,14,17,16,18,16,17,16,17,17,17,16,17,16,17,17,16,17,17,17,17,17,19,18,13,17,17,19,17,15,16,17,18,17,15,17,17,18,15,17,17,17,17,17,17,17,17,17,17,17,17,17,17,17,17,17,17,17,17,17,17,17,17,17,17,17,17,21,13,16,18,16,18,16,17],"number_of_frames":121,"aperture_center_x":768,"aperture_center_y":432,"fixation_cross":true,"fixation_cross_width":15,"fixation_cross_height":15,"fixation_cross_color":"#111","fixation_cross_thickness":1,"border":true,"border_thickness":2,"border_color":"transparent","canvas_width":1536,"canvas_height":864,"trial_type":"rdk","trial_index":19,"plugin_version":"2.0.0","time_elapsed":138682,"phase":"practice","target_direction":224,"distractor_direction":32},{"rt":4559,"stimulus":"\n        <div class=\"response-container\">\n          <div class=\"response-instruction\">\n            <p>rotate the bar by using the left and right arrow keys.</p>\n            <p>when you are determined, press the Enter key.</p>\n          </div>\n          <div class=\"response-circle\">\n            <div class=\"response-fixation\"></div>\n            <div id=\"bar\" class=\"rotating-bar\"></div>\n          </div>\n        </div>\n      ","response":"Enter","trial_type":"html-keyboard-response","trial_index":20,"plugin_version":"2.1.0","time_elapsed":143243,"random_initial_angle":93,"response_angle_css":53,"response_angle_rdk":37,"angular_error_target":173,"angular_error_distractor":5,"target_direction":224,"target_group":"white","reward_points":0},{"rt":null,"stimulus":"\n          <p style=\"color: #FF3333;\">Your reward: 0 points</p>\n        ","response":null,"trial_type":"html-keyboard-response","trial_index":21,"plugin_version":"2.1.0","time_elapsed":145256},{"rt":null,"stimulus":"<div class=\"fixation\" style=\"font-size: 60px;\">+</div>","response":null,"trial_type":"html-keyboard-response","trial_index":22,"plugin_version":"2.1.0","time_elapsed":146266},{"target_group":"black","target_index":1,"condition_label":"practice","rt":-1,"response":"","correct":false,"choices":"ALL_KEYS","correct_choice":["a"],"trial_duration":2000,"flip_timestamps":[],"response_ends_trial":false,"number_of_apertures":2,"number_of_dots":[63,100],"number_of_sets":1,"coherent_direction":[58,218],"coherence":1,"opposite_coherence":0,"dot_radius":2,"dot_side_length":1,"dot_life":-1,"move_distance":1,"aperture_width":300,"aperture_height":300,"dot_color":["white","black"],"dot_shape":"circle","background_color":"#AAA","RDK_type":3,"aperture_type":2,"reinsert_type":2,"frame_rate":17.033898305084747,"frame_rate_array":[13,15,15,17,18,16,16,21,15,17,17,17,14,16,17,17,17,17,16,18,14,18,17,17,16,16,18,16,17,18,17,15,17,17,16,16,18,16,17,17,17,17,16,16,16,17,17,17,17,17,17,17,17,17,16,17,17,17,17,17,17,17,16,17,17,17,17,17,18,15,17,16,17,17,17,17,17,17,17,17,16,17,17,19,15,17,17,16,17,17,16,17,17,17,17,17,17,17,17,17,17,17,16,17,18,17,16,17,16,17,17,18,63,13,7,17,16,19],"number_of_frames":118,"aperture_center_x":768,"aperture_center_y":432,"fixation_cross":true,"fixation_cross_width":15,"fixation_cross_height":15,"fixation_cross_color":"#111","fixation_cross_thickness":1,"border":true,"border_thickness":2,"border_color":"transparent","canvas_width":1536,"canvas_height":864,"trial_type":"rdk","trial_index":23,"plugin_version":"2.0.0","time_elapsed":148278,"phase":"practice","target_direction":218,"distractor_direction":58},{"rt":4825,"stimulus":"\n        <div class=\"response-container\">\n          <div class=\"response-instruction\">\n            <p>rotate the bar by using the left and right arrow keys.</p>\n            <p>when you are determined, press the Enter key.</p>\n          </div>\n          <div class=\"response-circle\">\n            <div class=\"response-fixation\"></div>\n            <div id=\"bar\" class=\"rotating-bar\"></div>\n          </div>\n        </div>\n      ","response":"Enter","trial_type":"html-keyboard-response","trial_index":24,"plugin_version":"2.1.0","time_elapsed":153104,"random_initial_angle":20,"response_angle_css":229,"response_angle_rdk":221,"angular_error_target":3,"angular_error_distractor":163,"target_direction":218,"target_group":"black","reward_points":9},{"rt":null,"stimulus":"\n          <p style=\"color: #00FF00;\">Your reward: 9 points</p>\n        ","response":null,"trial_type":"html-keyboard-response","trial_index":25,"plugin_version":"2.1.0","time_elapsed":155114},{"rt":null,"stimulus":"<div class=\"fixation\" style=\"font-size: 60px;\">+</div>","response":null,"trial_type":"html-keyboard-response","trial_index":26,"plugin_version":"2.1.0","time_elapsed":156118},{"target_group":"white","target_index":0,"condition_label":"practice","rt":-1,"response":"","correct":false,"choices":"ALL_KEYS","correct_choice":["a"],"trial_duration":2000,"flip_timestamps":[],"response_ends_trial":false,"number_of_apertures":2,"number_of_dots":[100,56],"number_of_sets":1,"coherent_direction":[269,166],"coherence":1,"opposite_coherence":0,"dot_radius":2,"dot_side_length":1,"dot_life":-1,"move_distance":1,"aperture_width":300,"aperture_height":300,"dot_color":["white","black"],"dot_shape":"circle","background_color":"#AAA","RDK_type":3,"aperture_type":2,"reinsert_type":2,"frame_rate":16.694214876033058,"frame_rate_array":[14,12,11,17,19,14,17,17,15,25,9,17,17,16,17,17,26,7,17,16,17,17,16,17,17,17,16,17,17,17,16,18,16,16,17,16,20,12,17,17,17,17,17,16,17,17,17,16,17,17,17,17,16,18,16,17,17,33,11,5,17,17,17,17,17,17,17,17,17,17,17,17,17,17,17,17,17,17,16,17,17,17,18,16,17,17,17,17,17,17,16,17,17,17,17,17,16,17,17,17,16,17,17,17,17,17,16,17,17,17,17,17,17,16,18,17,17,17,17,17,17],"number_of_frames":121,"aperture_center_x":768,"aperture_center_y":432,"fixation_cross":true,"fixation_cross_width":15,"fixation_cross_height":15,"fixation_cross_color":"#111","fixation_cross_thickness":1,"border":true,"border_thickness":2,"border_color":"transparent","canvas_width":1536,"canvas_height":864,"trial_type":"rdk","trial_index":27,"plugin_version":"2.0.0","time_elapsed":158124,"phase":"practice","target_direction":269,"distractor_direction":166},{"rt":5330,"stimulus":"\n        <div class=\"response-container\">\n          <div class=\"response-instruction\">\n            <p>rotate the bar by using the left and right arrow keys.</p>\n            <p>when you are determined, press the Enter key.</p>\n          </div>\n          <div class=\"response-circle\">\n            <div class=\"response-fixation\"></div>\n            <div id=\"bar\" class=\"rotating-bar\"></div>\n          </div>\n        </div>\n      ","response":"Enter","trial_type":"html-keyboard-response","trial_index":28,"plugin_version":"2.1.0","time_elapsed":163455,"random_initial_angle":227,"response_angle_css":304,"response_angle_rdk":146,"angular_error_target":-123,"angular_error_distractor":-20,"target_direction":269,"target_group":"white","reward_points":0},{"rt":null,"stimulus":"\n          <p style=\"color: #FF3333;\">Your reward: 0 points</p>\n        ","response":null,"trial_type":"html-keyboard-response","trial_index":29,"plugin_version":"2.1.0","time_elapsed":165464},{"rt":null,"stimulus":"<div class=\"fixation\" style=\"font-size: 60px;\">+</div>","response":null,"trial_type":"html-keyboard-response","trial_index":30,"plugin_version":"2.1.0","time_elapsed":166485},{"target_group":"black","target_index":1,"condition_label":"practice","rt":-1,"response":"","correct":false,"choices":"ALL_KEYS","correct_choice":["a"],"trial_duration":2000,"flip_timestamps":[],"response_ends_trial":false,"number_of_apertures":2,"number_of_dots":[91,100],"number_of_sets":1,"coherent_direction":[146,264],"coherence":1,"opposite_coherence":0,"dot_radius":2,"dot_side_length":1,"dot_life":-1,"move_distance":1,"aperture_width":300,"aperture_height":300,"dot_color":["white","black"],"dot_shape":"circle","background_color":"#AAA","RDK_type":3,"aperture_type":2,"reinsert_type":2,"frame_rate":16.933333333333334,"frame_rate_array":[14,17,17,17,17,17,17,17,17,17,17,17,17,17,17,17,17,17,17,17,17,16,17,17,17,17,17,17,17,17,17,16,17,17,17,17,17,17,17,17,17,17,17,17,17,17,17,17,17,17,17,17,17,17,17,17,17,17,17,17,17,17,16,17,17,17,17,17,17,17,17,17,17,17,17,17,17,17,17,17,17,17,17,17,17,17,17,17,17,17,17,17,17,16,18,16,17,17,17,17,17,17,17,17,17,17,17,17,18,15,17,17,17,17,17,17,17,17,17,17],"number_of_frames":120,"aperture_center_x":768,"aperture_center_y":432,"fixation_cross":true,"fixation_cross_width":15,"fixation_cross_height":15,"fixation_cross_color":"#111","fixation_cross_thickness":1,"border":true,"border_thickness":2,"border_color":"transparent","canvas_width":1536,"canvas_height":864,"trial_type":"rdk","trial_index":31,"plugin_version":"2.0.0","time_elapsed":168499,"phase":"practice","target_direction":264,"distractor_direction":146},{"rt":3208,"stimulus":"\n        <div class=\"response-container\">\n          <div class=\"response-instruction\">\n            <p>rotate the bar by using the left and right arrow keys.</p>\n            <p>when you are determined, press the Enter key.</p>\n          </div>\n          <div class=\"response-circle\">\n            <div class=\"response-fixation\"></div>\n            <div id=\"bar\" class=\"rotating-bar\"></div>\n          </div>\n        </div>\n      ","response":"Enter","trial_type":"html-keyboard-response","trial_index":32,"plugin_version":"2.1.0","time_elapsed":171707,"random_initial_angle":127,"response_angle_css":140,"response_angle_rdk":310,"angular_error_target":46,"angular_error_distractor":164,"target_direction":264,"target_group":"black","reward_points":0},{"rt":null,"stimulus":"\n          <p style=\"color: #FF3333;\">Your reward: 0 points</p>\n        ","response":null,"trial_type":"html-keyboard-response","trial_index":33,"plugin_version":"2.1.0","time_elapsed":173716},{"rt":null,"stimulus":"<div class=\"fixation\" style=\"font-size: 60px;\">+</div>","response":null,"trial_type":"html-keyboard-response","trial_index":34,"plugin_version":"2.1.0","time_elapsed":174726},{"target_group":"white","target_index":0,"condition_label":"practice","rt":-1,"response":"","correct":false,"choices":"ALL_KEYS","correct_choice":["a"],"trial_duration":2000,"flip_timestamps":[],"response_ends_trial":false,"number_of_apertures":2,"number_of_dots":[100,51],"number_of_sets":1,"coherent_direction":[22,147],"coherence":1,"opposite_coherence":0,"dot_radius":2,"dot_side_length":1,"dot_life":-1,"move_distance":1,"aperture_width":300,"aperture_height":300,"dot_color":["white","black"],"dot_shape":"circle","background_color":"#AAA","RDK_type":3,"aperture_type":2,"reinsert_type":2,"frame_rate":16.818181818181817,"frame_rate_array":[5,14,17,17,17,17,17,17,17,17,17,17,17,17,17,17,17,17,17,17,17,16,17,17,17,17,17,17,17,17,17,17,17,17,17,17,17,17,17,17,17,17,17,17,17,17,17,16,17,16,17,17,17,17,17,17,17,17,16,17,17,17,17,17,17,17,17,17,17,17,17,17,17,17,17,17,17,17,17,17,17,17,17,16,17,17,16,17,17,17,17,17,17,17,17,17,17,17,17,17,17,17,16,17,17,17,17,17,17,17,17,17,17,17,17,17,17,17,17,17,17],"number_of_frames":121,"aperture_center_x":768,"aperture_center_y":432,"fixation_cross":true,"fixation_cross_width":15,"fixation_cross_height":15,"fixation_cross_color":"#111","fixation_cross_thickness":1,"border":true,"border_thickness":2,"border_color":"transparent","canvas_width":1536,"canvas_height":864,"trial_type":"rdk","trial_index":35,"plugin_version":"2.0.0","time_elapsed":176730,"phase":"practice","target_direction":22,"distractor_direction":147},{"rt":4810,"stimulus":"\n        <div class=\"response-container\">\n          <div class=\"response-instruction\">\n            <p>rotate the bar by using the left and right arrow keys.</p>\n            <p>when you are determined, press the Enter key.</p>\n          </div>\n          <div class=\"response-circle\">\n            <div class=\"response-fixation\"></div>\n            <div id=\"bar\" class=\"rotating-bar\"></div>\n          </div>\n        </div>\n      ","response":"Enter","trial_type":"html-keyboard-response","trial_index":36,"plugin_version":"2.1.0","time_elapsed":181542,"random_initial_angle":31,"response_angle_css":-64,"response_angle_rdk":154,"angular_error_target":132,"angular_error_distractor":7,"target_direction":22,"target_group":"white","reward_points":0},{"rt":null,"stimulus":"\n          <p style=\"color: #FF3333;\">Your reward: 0 points</p>\n        ","response":null,"trial_type":"html-keyboard-response","trial_index":37,"plugin_version":"2.1.0","time_elapsed":183556},{"rt":null,"stimulus":"<div class=\"fixation\" style=\"font-size: 60px;\">+</div>","response":null,"trial_type":"html-keyboard-response","trial_index":38,"plugin_version":"2.1.0","time_elapsed":184568},{"target_group":"black","target_index":1,"condition_label":"practice","rt":-1,"response":"","correct":false,"choices":"ALL_KEYS","correct_choice":["a"],"trial_duration":2000,"flip_timestamps":[],"response_ends_trial":false,"number_of_apertures":2,"number_of_dots":[55,100],"number_of_sets":1,"coherent_direction":[68,175],"coherence":1,"opposite_coherence":0,"dot_radius":2,"dot_side_length":1,"dot_life":-1,"move_distance":1,"aperture_width":300,"aperture_height":300,"dot_color":["white","black"],"dot_shape":"circle","background_color":"#AAA","RDK_type":3,"aperture_type":2,"reinsert_type":2,"frame_rate":16.876033057851238,"frame_rate_array":[6,17,17,17,17,17,17,17,17,17,17,17,17,17,17,17,17,17,17,17,17,17,17,17,17,17,17,17,17,17,24,16,11,17,17,16,17,17,17,17,17,17,17,17,17,17,17,17,17,17,17,17,17,17,17,17,17,17,17,17,17,17,17,17,16,17,17,17,17,17,17,17,17,17,16,17,17,17,17,17,17,17,17,17,17,17,17,17,17,17,17,17,17,17,17,17,17,17,17,17,17,17,17,17,17,17,17,17,17,17,17,17,17,16,17,17,17,17,17,17,17],"number_of_frames":121,"aperture_center_x":768,"aperture_center_y":432,"fixation_cross":true,"fixation_cross_width":15,"fixation_cross_height":15,"fixation_cross_color":"#111","fixation_cross_thickness":1,"border":true,"border_thickness":2,"border_color":"transparent","canvas_width":1536,"canvas_height":864,"trial_type":"rdk","trial_index":39,"plugin_version":"2.0.0","time_elapsed":186575,"phase":"practice","target_direction":175,"distractor_direction":68},{"rt":4899,"stimulus":"\n        <div class=\"response-container\">\n          <div class=\"response-instruction\">\n            <p>rotate the bar by using the left and right arrow keys.</p>\n            <p>when you are determined, press the Enter key.</p>\n          </div>\n          <div class=\"response-circle\">\n            <div class=\"response-fixation\"></div>\n            <div id=\"bar\" class=\"rotating-bar\"></div>\n          </div>\n        </div>\n      ","response":"Enter","trial_type":"html-keyboard-response","trial_index":40,"plugin_version":"2.1.0","time_elapsed":191474,"random_initial_angle":155,"response_angle_css":234,"response_angle_rdk":216,"angular_error_target":41,"angular_error_distractor":148,"target_direction":175,"target_group":"black","reward_points":1},{"rt":null,"stimulus":"\n          <p style=\"color: #FF3333;\">Your reward: 1 points</p>\n        ","response":null,"trial_type":"html-keyboard-response","trial_index":41,"plugin_version":"2.1.0","time_elapsed":193480},{"rt":null,"stimulus":"<div class=\"fixation\" style=\"font-size: 60px;\">+</div>","response":null,"trial_type":"html-keyboard-response","trial_index":42,"plugin_version":"2.1.0","time_elapsed":194481},{"target_group":"white","target_index":0,"condition_label":"practice","rt":-1,"response":"","correct":false,"choices":"ALL_KEYS","correct_choice":["a"],"trial_duration":2000,"flip_timestamps":[],"response_ends_trial":false,"number_of_apertures":2,"number_of_dots":[100,54],"number_of_sets":1,"coherent_direction":[262,139],"coherence":1,"opposite_coherence":0,"dot_radius":2,"dot_side_length":1,"dot_life":-1,"move_distance":1,"aperture_width":300,"aperture_height":300,"dot_color":["white","black"],"dot_shape":"circle","background_color":"#AAA","RDK_type":3,"aperture_type":2,"reinsert_type":2,"frame_rate":16.71900826446281,"frame_rate_array":[5,16,16,17,17,17,17,17,17,17,17,17,16,17,17,17,18,16,17,17,17,17,17,17,17,16,17,17,17,17,16,17,17,17,17,17,23,11,16,19,15,17,17,16,17,17,17,17,17,17,17,17,17,17,17,17,16,17,17,17,17,16,17,17,17,17,17,17,17,17,17,17,16,17,17,17,17,17,17,17,18,16,17,16,17,17,17,16,17,17,16,17,16,17,17,17,17,16,16,17,17,16,17,20,15,16,17,16,17,17,16,16,17,17,17,17,17,17,16,17,16],"number_of_frames":121,"aperture_center_x":768,"aperture_center_y":432,"fixation_cross":true,"fixation_cross_width":15,"fixation_cross_height":15,"fixation_cross_color":"#111","fixation_cross_thickness":1,"border":true,"border_thickness":2,"border_color":"transparent","canvas_width":1536,"canvas_height":864,"trial_type":"rdk","trial_index":43,"plugin_version":"2.0.0","time_elapsed":196488,"phase":"practice","target_direction":262,"distractor_direction":139},{"rt":4436,"stimulus":"\n        <div class=\"response-container\">\n          <div class=\"response-instruction\">\n            <p>rotate the bar by using the left and right arrow keys.</p>\n            <p>when you are determined, press the Enter key.</p>\n          </div>\n          <div class=\"response-circle\">\n            <div class=\"response-fixation\"></div>\n            <div id=\"bar\" class=\"rotating-bar\"></div>\n          </div>\n        </div>\n      ","response":"Enter","trial_type":"html-keyboard-response","trial_index":44,"plugin_version":"2.1.0","time_elapsed":200924,"random_initial_angle":215,"response_angle_css":312,"response_angle_rdk":138,"angular_error_target":-124,"angular_error_distractor":-1,"target_direction":262,"target_group":"white","reward_points":0},{"rt":null,"stimulus":"\n          <p style=\"color: #FF3333;\">Your reward: 0 points</p>\n        ","response":null,"trial_type":"html-keyboard-response","trial_index":45,"plugin_version":"2.1.0","time_elapsed":202934},{"rt":null,"stimulus":"<div class=\"fixation\" style=\"font-size: 60px;\">+</div>","response":null,"trial_type":"html-keyboard-response","trial_index":46,"plugin_version":"2.1.0","time_elapsed":203944},{"target_group":"white","target_index":0,"condition_label":"practice","rt":-1,"response":"","correct":false,"choices":"ALL_KEYS","correct_choice":["a"],"trial_duration":2000,"flip_timestamps":[],"response_ends_trial":false,"number_of_apertures":2,"number_of_dots":[100,86],"number_of_sets":1,"coherent_direction":[120,338],"coherence":1,"opposite_coherence":0,"dot_radius":2,"dot_side_length":1,"dot_life":-1,"move_distance":1,"aperture_width":300,"aperture_height":300,"dot_color":["white","black"],"dot_shape":"circle","background_color":"#AAA","RDK_type":3,"aperture_type":2,"reinsert_type":2,"frame_rate":16.793388429752067,"frame_rate_array":[7,12,17,17,17,17,17,17,17,17,17,17,17,17,17,17,17,17,17,17,16,17,17,17,17,17,17,17,17,16,17,17,17,17,17,17,17,17,17,17,17,17,17,17,17,17,17,17,17,17,17,17,17,17,17,17,17,17,17,17,17,17,17,17,17,17,17,17,16,17,17,17,17,17,17,16,17,17,17,17,17,17,17,17,17,17,16,17,17,17,17,17,17,17,17,16,17,17,17,17,17,17,16,17,18,17,17,17,17,17,16,17,17,17,16,17,16,17,17,17,16],"number_of_frames":121,"aperture_center_x":768,"aperture_center_y":432,"fixation_cross":true,"fixation_cross_width":15,"fixation_cross_height":15,"fixation_cross_color":"#111","fixation_cross_thickness":1,"border":true,"border_thickness":2,"border_color":"transparent","canvas_width":1536,"canvas_height":864,"trial_type":"rdk","trial_index":47,"plugin_version":"2.0.0","time_elapsed":205951,"phase":"practice","target_direction":120,"distractor_direction":338},{"rt":11523,"stimulus":"\n        <div class=\"response-container\">\n          <div class=\"response-instruction\">\n            <p>rotate the bar by using the left and right arrow keys.</p>\n            <p>when you are determined, press the Enter key.</p>\n          </div>\n          <div class=\"response-circle\">\n            <div class=\"response-fixation\"></div>\n            <div id=\"bar\" class=\"rotating-bar\"></div>\n          </div>\n        </div>\n      ","response":"Enter","trial_type":"html-keyboard-response","trial_index":48,"plugin_version":"2.1.0","time_elapsed":217474,"random_initial_angle":272,"response_angle_css":129,"response_angle_rdk":321,"angular_error_target":-159,"angular_error_distractor":-17,"target_direction":120,"target_group":"white","reward_points":0},{"rt":null,"stimulus":"\n          <p style=\"color: #FF3333;\">Your reward: 0 points</p>\n        ","response":null,"trial_type":"html-keyboard-response","trial_index":49,"plugin_version":"2.1.0","time_elapsed":219481},{"rt":null,"stimulus":"<div class=\"fixation\" style=\"font-size: 60px;\">+</div>","response":null,"trial_type":"html-keyboard-response","trial_index":50,"plugin_version":"2.1.0","time_elapsed":220490},{"target_group":"white","target_index":0,"condition_label":"practice","rt":-1,"response":"","correct":false,"choices":"ALL_KEYS","correct_choice":["a"],"trial_duration":2000,"flip_timestamps":[],"response_ends_trial":false,"number_of_apertures":2,"number_of_dots":[100,50],"number_of_sets":1,"coherent_direction":[257,162],"coherence":1,"opposite_coherence":0,"dot_radius":2,"dot_side_length":1,"dot_life":-1,"move_distance":1,"aperture_width":300,"aperture_height":300,"dot_color":["white","black"],"dot_shape":"circle","background_color":"#AAA","RDK_type":3,"aperture_type":2,"reinsert_type":2,"frame_rate":16.84873949579832,"frame_rate_array":[15,19,14,17,17,16,18,16,17,16,17,17,17,17,17,16,17,24,10,16,17,16,17,17,16,17,17,17,17,17,17,18,15,17,16,17,16,17,16,18,17,16,17,17,18,15,19,14,16,17,18,15,17,17,17,17,19,16,16,17,17,16,17,17,16,17,17,17,16,17,16,19,18,17,40,6,17,25,9,17,16,16,17,17,17,17,17,17,17,17,17,16,17,16,17,17,16,17,16,17,17,16,16,17,17,16,17,17,22,20,8,16,18,16,17,16,17,17,17],"number_of_frames":119,"aperture_center_x":768,"aperture_center_y":432,"fixation_cross":true,"fixation_cross_width":15,"fixation_cross_height":15,"fixation_cross_color":"#111","fixation_cross_thickness":1,"border":true,"border_thickness":2,"border_color":"transparent","canvas_width":1536,"canvas_height":864,"trial_type":"rdk","trial_index":51,"plugin_version":"2.0.0","time_elapsed":222494,"phase":"practice","target_direction":257,"distractor_direction":162},{"rt":5395,"stimulus":"\n        <div class=\"response-container\">\n          <div class=\"response-instruction\">\n            <p>rotate the bar by using the left and right arrow keys.</p>\n            <p>when you are determined, press the Enter key.</p>\n          </div>\n          <div class=\"response-circle\">\n            <div class=\"response-fixation\"></div>\n            <div id=\"bar\" class=\"rotating-bar\"></div>\n          </div>\n        </div>\n      ","response":"Enter","trial_type":"html-keyboard-response","trial_index":52,"plugin_version":"2.1.0","time_elapsed":227891,"random_initial_angle":287,"response_angle_css":307,"response_angle_rdk":143,"angular_error_target":-114,"angular_error_distractor":-19,"target_direction":257,"target_group":"white","reward_points":0},{"rt":null,"stimulus":"\n          <p style=\"color: #FF3333;\">Your reward: 0 points</p>\n        ","response":null,"trial_type":"html-keyboard-response","trial_index":53,"plugin_version":"2.1.0","time_elapsed":229903},{"rt":null,"stimulus":"<div class=\"fixation\" style=\"font-size: 60px;\">+</div>","response":null,"trial_type":"html-keyboard-response","trial_index":54,"plugin_version":"2.1.0","time_elapsed":230910},{"target_group":"white","target_index":0,"condition_label":"practice","rt":-1,"response":"","correct":false,"choices":"ALL_KEYS","correct_choice":["a"],"trial_duration":2000,"flip_timestamps":[],"response_ends_trial":false,"number_of_apertures":2,"number_of_dots":[100,96],"number_of_sets":1,"coherent_direction":[60,192],"coherence":1,"opposite_coherence":0,"dot_radius":2,"dot_side_length":1,"dot_life":-1,"move_distance":1,"aperture_width":300,"aperture_height":300,"dot_color":["white","black"],"dot_shape":"circle","background_color":"#AAA","RDK_type":3,"aperture_type":2,"reinsert_type":2,"frame_rate":16.675,"frame_rate_array":[7,16,17,17,17,16,17,16,17,17,16,16,17,17,17,16,16,17,17,16,17,17,17,17,17,17,17,16,17,17,17,17,16,17,17,16,17,17,16,17,16,16,17,17,16,18,16,17,17,17,16,16,16,17,17,17,17,17,17,17,17,17,17,17,17,17,17,17,17,17,17,17,17,16,17,17,17,17,17,17,17,16,17,17,16,17,17,17,16,17,17,16,17,17,17,16,17,17,17,17,17,16,16,17,17,17,17,17,16,16,17,17,18,16,17,17,16,17,17,17],"number_of_frames":120,"aperture_center_x":768,"aperture_center_y":432,"fixation_cross":true,"fixation_cross_width":15,"fixation_cross_height":15,"fixation_cross_color":"#111","fixation_cross_thickness":1,"border":true,"border_thickness":2,"border_color":"transparent","canvas_width":1536,"canvas_height":864,"trial_type":"rdk","trial_index":55,"plugin_version":"2.0.0","time_elapsed":232914,"phase":"practice","target_direction":60,"distractor_direction":192},{"rt":4816,"stimulus":"\n        <div class=\"response-container\">\n          <div class=\"response-instruction\">\n            <p>rotate the bar by using the left and right arrow keys.</p>\n            <p>when you are determined, press the Enter key.</p>\n          </div>\n          <div class=\"response-circle\">\n            <div class=\"response-fixation\"></div>\n            <div id=\"bar\" class=\"rotating-bar\"></div>\n          </div>\n        </div>\n      ","response":"Enter","trial_type":"html-keyboard-response","trial_index":56,"plugin_version":"2.1.0","time_elapsed":237731,"random_initial_angle":128,"response_angle_css":241,"response_angle_rdk":209,"angular_error_target":149,"angular_error_distractor":17,"target_direction":60,"target_group":"white","reward_points":0},{"rt":null,"stimulus":"\n          <p style=\"color: #FF3333;\">Your reward: 0 points</p>\n        ","response":null,"trial_type":"html-keyboard-response","trial_index":57,"plugin_version":"2.1.0","time_elapsed":239734},{"rt":null,"stimulus":"<div class=\"fixation\" style=\"font-size: 60px;\">+</div>","response":null,"trial_type":"html-keyboard-response","trial_index":58,"plugin_version":"2.1.0","time_elapsed":240744},{"target_group":"black","target_index":1,"condition_label":"practice","rt":-1,"response":"","correct":false,"choices":"ALL_KEYS","correct_choice":["a"],"trial_duration":2000,"flip_timestamps":[],"response_ends_trial":false,"number_of_apertures":2,"number_of_dots":[86,100],"number_of_sets":1,"coherent_direction":[144,358],"coherence":1,"opposite_coherence":0,"dot_radius":2,"dot_side_length":1,"dot_life":-1,"move_distance":1,"aperture_width":300,"aperture_height":300,"dot_color":["white","black"],"dot_shape":"circle","background_color":"#AAA","RDK_type":3,"aperture_type":2,"reinsert_type":2,"frame_rate":16.899159663865547,"frame_rate_array":[3,16,17,17,19,66,1,15,17,16,17,17,17,19,14,17,17,17,17,17,18,17,17,16,17,17,17,15,16,17,17,17,16,16,17,16,18,17,17,17,17,17,16,16,17,17,16,17,18,16,17,15,17,17,17,17,17,16,17,16,18,16,15,17,16,17,17,17,17,18,17,17,17,17,15,17,17,17,16,17,17,17,16,17,17,16,17,17,16,17,17,16,17,17,15,17,17,16,17,18,16,17,17,17,17,17,16,18,16,19,14,17,24,14,17,18,13,16,15],"number_of_frames":119,"aperture_center_x":768,"aperture_center_y":432,"fixation_cross":true,"fixation_cross_width":15,"fixation_cross_height":15,"fixation_cross_color":"#111","fixation_cross_thickness":1,"border":true,"border_thickness":2,"border_color":"transparent","canvas_width":1536,"canvas_height":864,"trial_type":"rdk","trial_index":59,"plugin_version":"2.0.0","time_elapsed":242751,"phase":"practice","target_direction":358,"distractor_direction":144},{"rt":3720,"stimulus":"\n        <div class=\"response-container\">\n          <div class=\"response-instruction\">\n            <p>rotate the bar by using the left and right arrow keys.</p>\n            <p>when you are determined, press the Enter key.</p>\n          </div>\n          <div class=\"response-circle\">\n            <div class=\"response-fixation\"></div>\n            <div id=\"bar\" class=\"rotating-bar\"></div>\n          </div>\n        </div>\n      ","response":"Enter","trial_type":"html-keyboard-response","trial_index":60,"plugin_version":"2.1.0","time_elapsed":246472,"random_initial_angle":58,"response_angle_css":115,"response_angle_rdk":335,"angular_error_target":-23,"angular_error_distractor":-169,"target_direction":358,"target_group":"black","reward_points":5},{"rt":null,"stimulus":"\n          <p style=\"color: #00FF00;\">Your reward: 5 points</p>\n        ","response":null,"trial_type":"html-keyboard-response","trial_index":61,"plugin_version":"2.1.0","time_elapsed":248488},{"rt":null,"stimulus":"<div class=\"fixation\" style=\"font-size: 60px;\">+</div>","response":null,"trial_type":"html-keyboard-response","trial_index":62,"plugin_version":"2.1.0","time_elapsed":249500},{"target_group":"black","target_index":1,"condition_label":"practice","rt":-1,"response":"","correct":false,"choices":"ALL_KEYS","correct_choice":["a"],"trial_duration":2000,"flip_timestamps":[],"response_ends_trial":false,"number_of_apertures":2,"number_of_dots":[81,100],"number_of_sets":1,"coherent_direction":[144,285],"coherence":1,"opposite_coherence":0,"dot_radius":2,"dot_side_length":1,"dot_life":-1,"move_distance":1,"aperture_width":300,"aperture_height":300,"dot_color":["white","black"],"dot_shape":"circle","background_color":"#AAA","RDK_type":3,"aperture_type":2,"reinsert_type":2,"frame_rate":16.702479338842974,"frame_rate_array":[15,11,14,16,17,17,17,17,16,16,17,16,17,17,16,17,17,17,17,17,17,17,17,16,17,17,17,17,17,17,17,16,17,17,16,16,17,17,17,17,17,17,17,17,16,16,17,17,17,17,16,18,17,17,17,16,17,17,16,17,16,17,17,17,16,18,17,16,17,16,17,17,17,17,17,17,16,16,17,17,16,17,17,17,17,16,17,17,17,17,17,17,16,16,17,17,17,17,17,17,17,17,17,16,17,16,18,17,16,17,16,17,18,16,17,17,17,17,17,17,17],"number_of_frames":121,"aperture_center_x":768,"aperture_center_y":432,"fixation_cross":true,"fixation_cross_width":15,"fixation_cross_height":15,"fixation_cross_color":"#111","fixation_cross_thickness":1,"border":true,"border_thickness":2,"border_color":"transparent","canvas_width":1536,"canvas_height":864,"trial_type":"rdk","trial_index":63,"plugin_version":"2.0.0","time_elapsed":251512,"phase":"practice","target_direction":285,"distractor_direction":144},{"rt":4339,"stimulus":"\n        <div class=\"response-container\">\n          <div class=\"response-instruction\">\n            <p>rotate the bar by using the left and right arrow keys.</p>\n            <p>when you are determined, press the Enter key.</p>\n          </div>\n          <div class=\"response-circle\">\n            <div class=\"response-fixation\"></div>\n            <div id=\"bar\" class=\"rotating-bar\"></div>\n          </div>\n        </div>\n      ","response":"Enter","trial_type":"html-keyboard-response","trial_index":64,"plugin_version":"2.1.0","time_elapsed":255853,"random_initial_angle":195,"response_angle_css":139,"response_angle_rdk":311,"angular_error_target":26,"angular_error_distractor":167,"target_direction":285,"target_group":"black","reward_points":4},{"rt":null,"stimulus":"\n          <p style=\"color: #00FF00;\">Your reward: 4 points</p>\n        ","response":null,"trial_type":"html-keyboard-response","trial_index":65,"plugin_version":"2.1.0","time_elapsed":257864},{"rt":26254,"stimulus":"\n        <div class=\"instructions-container\">\n          <h2>End of Practice</h2>\n          <p>You have completed the practice trials.</p>\n          <p>Press <strong>Enter</strong> key to begin the main experiment.</p>\n        </div>\n      ","response":"Enter","trial_type":"html-keyboard-response","trial_index":66,"plugin_version":"2.1.0","time_elapsed":284121},{"rt":null,"stimulus":"<div class=\"fixation\" style=\"font-size: 60px;\">+</div>","response":null,"trial_type":"html-keyboard-response","trial_index":67,"plugin_version":"2.1.0","time_elapsed":285139},{"phase":"learning-awareness","target_group":"black","condition_label":"B_H_vs_W_L_rep8","target_direction":64,"distractor_direction":170,"session_rotation":333,"rt":-1,"response":"","correct":false,"choices":"ALL_KEYS","correct_choice":["a"],"trial_duration":2000,"flip_timestamps":[],"response_ends_trial":false,"number_of_apertures":200,"number_of_dots":[1,1,1,1,1,1,1,1,1,1,1,1,1,1,1,1,1,1,1,1,1,1,1,1,1,1,1,1,1,1,1,1,1,1,1,1,1,1,1,1,1,1,1,1,1,1,1,1,1,1,1,1,1,1,1,1,1,1,1,1,1,1,1,1,1,1,1,1,1,1,1,1,1,1,1,1,1,1,1,1,1,1,1,1,1,1,1,1,1,1,1,1,1,1,1,1,1,1,1,1,1,1,1,1,1,1,1,1,1,1,1,1,1,1,1,1,1,1,1,1,1,1,1,1,1,1,1,1,1,1,1,1,1,1,1,1,1,1,1,1,1,1,1,1,1,1,1,1,1,1,1,1,1,1,1,1,1,1,1,1,1,1,1,1,1,1,1,1,1,1,1,1,1,1,1,1,1,1,1,1,1,1,1,1,1,1,1,1,1,1,1,1,1,1,1,1,1,1,1,1],"number_of_sets":1,"coherent_direction":[64,170,170,64,64,64,170,64,170,170,64,170,64,64,64,170,170,170,170,170,64,64,64,64,64,170,64,64,170,170,64,64,64,170,170,64,64,64,64,64,170,64,170,64,170,170,64,170,64,170,64,64,170,64,64,64,170,64,170,64,64,64,64,170,64,170,64,64,170,170,170,64,170,170,170,170,170,170,170,64,170,64,64,170,64,170,170,64,64,170,170,170,64,64,170,170,170,64,64,170,170,170,64,170,170,64,170,170,64,64,170,64,170,170,170,170,64,170,170,170,64,64,64,64,64,170,170,170,64,64,64,64,64,170,64,170,170,64,170,170,64,64,64,64,170,170,170,64,64,170,64,64,64,170,170,170,170,170,64,64,170,64,64,170,64,64,170,64,170,170,64,64,64,64,170,170,170,170,64,170,170,170,170,64,64,170,64,170,170,170,64,170,170,64,170,64,64,170,64,64],"coherence":1,"opposite_coherence":0,"dot_radius":2,"dot_side_length":1,"dot_life":-1,"move_distance":1,"aperture_width":300,"aperture_height":300,"dot_color":["black","white","white","black","black","black","white","black","white","white","black","white","black","black","black","white","white","white","white","white","black","black","black","black","black","white","black","black","white","white","black","black","black","white","white","black","black","black","black","black","white","black","white","black","white","white","black","white","black","white","black","black","white","black","black","black","white","black","white","black","black","black","black","white","black","white","black","black","white","white","white","black","white","white","white","white","white","white","white","black","white","black","black","white","black","white","white","black","black","white","white","white","black","black","white","white","white","black","black","white","white","white","black","white","white","black","white","white","black","black","white","black","white","white","white","white","black","white","white","white","black","black","black","black","black","white","white","white","black","black","black","black","black","white","black","white","white","black","white","white","black","black","black","black","white","white","white","black","black","white","black","black","black","white","white","white","white","white","black","black","white","black","black","white","black","black","white","black","white","white","black","black","black","black","white","white","white","white","black","white","white","white","white","black","black","white","black","white","white","white","black","white","white","black","white","black","black","white","black","black"],"dot_shape":"circle","background_color":"#AAA","RDK_type":3,"aperture_type":2,"reinsert_type":2,"frame_rate":16.816666666666666,"frame_rate_array":[9,6,35,24,20,6,14,17,19,16,17,16,17,17,16,18,15,18,16,17,16,16,17,17,17,17,17,17,16,17,21,13,17,17,17,17,17,17,17,17,17,16,17,17,17,17,16,16,17,17,17,17,16,17,17,17,17,17,17,17,16,17,16,17,25,9,16,18,17,17,17,17,17,17,17,17,17,17,16,17,16,17,16,17,17,18,17,17,17,17,17,17,17,17,17,17,16,19,14,17,16,18,17,17,17,17,17,17,17,17,17,16,17,17,16,17,17,17,17,17],"number_of_frames":120,"aperture_center_x":768,"aperture_center_y":432,"fixation_cross":true,"fixation_cross_width":15,"fixation_cross_height":15,"fixation_cross_color":"#111","fixation_cross_thickness":1,"border":true,"border_thickness":2,"border_color":"transparent","canvas_width":1536,"canvas_height":864,"trial_type":"rdk","trial_index":68,"plugin_version":"2.0.0","time_elapsed":287148},{"rt":5498,"stimulus":"\n        <div class=\"response-container\">\n          <div class=\"response-instruction\">\n            <p>rotate the bar by using the left and right arrow keys.</p>\n            <p>when you are determined, press the Enter key.</p>\n          </div>\n          <div class=\"response-circle\">\n            <div class=\"response-fixation\"></div>\n            <div id=\"bar\" class=\"rotating-bar\"></div>\n          </div>\n        </div>\n      ","response":"Enter","trial_type":"html-keyboard-response","trial_index":69,"plugin_version":"2.1.0","time_elapsed":292648,"random_initial_angle":259,"response_angle_css":49,"response_angle_rdk":41,"angular_error_target":-23,"angular_error_distractor":-129,"target_direction":64,"target_group":"black","reward_points":5},{"rt":null,"stimulus":"\n          <p style=\"color: #00FF00;\">Your reward: 5 points</p>\n        ","response":null,"trial_type":"html-keyboard-response","trial_index":70,"plugin_version":"2.1.0","time_elapsed":294663},{"rt":null,"stimulus":"<div class=\"fixation\" style=\"font-size: 60px;\">+</div>","response":null,"trial_type":"html-keyboard-response","trial_index":71,"plugin_version":"2.1.0","time_elapsed":295679},{"phase":"learning-awareness","target_group":"black","condition_label":"B_H_vs_W_L_rep5","target_direction":84,"distractor_direction":179,"session_rotation":333,"rt":-1,"response":"","correct":false,"choices":"ALL_KEYS","correct_choice":["a"],"trial_duration":2000,"flip_timestamps":[],"response_ends_trial":false,"number_of_apertures":200,"number_of_dots":[1,1,1,1,1,1,1,1,1,1,1,1,1,1,1,1,1,1,1,1,1,1,1,1,1,1,1,1,1,1,1,1,1,1,1,1,1,1,1,1,1,1,1,1,1,1,1,1,1,1,1,1,1,1,1,1,1,1,1,1,1,1,1,1,1,1,1,1,1,1,1,1,1,1,1,1,1,1,1,1,1,1,1,1,1,1,1,1,1,1,1,1,1,1,1,1,1,1,1,1,1,1,1,1,1,1,1,1,1,1,1,1,1,1,1,1,1,1,1,1,1,1,1,1,1,1,1,1,1,1,1,1,1,1,1,1,1,1,1,1,1,1,1,1,1,1,1,1,1,1,1,1,1,1,1,1,1,1,1,1,1,1,1,1,1,1,1,1,1,1,1,1,1,1,1,1,1,1,1,1,1,1,1,1,1,1,1,1,1,1,1,1,1,1,1,1,1,1,1,1],"number_of_sets":1,"coherent_direction":[179,84,179,84,84,179,179,179,84,179,179,84,179,84,179,84,84,84,179,84,179,84,179,84,84,84,84,84,179,179,84,84,84,179,179,179,179,84,179,84,84,84,179,179,179,179,84,84,84,84,179,84,84,179,84,84,179,84,179,84,179,179,179,84,84,84,179,84,179,179,179,179,84,179,84,179,179,179,84,84,84,179,179,84,179,84,179,84,179,179,179,179,84,179,84,179,84,84,84,84,179,84,179,179,179,179,84,179,179,84,84,84,84,84,179,84,179,179,179,84,84,179,84,84,84,84,84,179,84,179,179,179,179,84,84,179,179,179,84,84,179,179,179,179,84,179,84,84,84,179,84,179,84,84,179,179,84,84,84,179,84,179,84,179,179,179,84,179,84,84,84,179,84,84,179,84,84,84,179,179,179,84,84,179,179,179,84,179,179,179,84,84,84,179,84,179,179,179,179,84],"coherence":1,"opposite_coherence":0,"dot_radius":2,"dot_side_length":1,"dot_life":-1,"move_distance":1,"aperture_width":300,"aperture_height":300,"dot_color":["white","black","white","black","black","white","white","white","black","white","white","black","white","black","white","black","black","black","white","black","white","black","white","black","black","black","black","black","white","white","black","black","black","white","white","white","white","black","white","black","black","black","white","white","white","white","black","black","black","black","white","black","black","white","black","black","white","black","white","black","white","white","white","black","black","black","white","black","white","white","white","white","black","white","black","white","white","white","black","black","black","white","white","black","white","black","white","black","white","white","white","white","black","white","black","white","black","black","black","black","white","black","white","white","white","white","black","white","white","black","black","black","black","black","white","black","white","white","white","black","black","white","black","black","black","black","black","white","black","white","white","white","white","black","black","white","white","white","black","black","white","white","white","white","black","white","black","black","black","white","black","white","black","black","white","white","black","black","black","white","black","white","black","white","white","white","black","white","black","black","black","white","black","black","white","black","black","black","white","white","white","black","black","white","white","white","black","white","white","white","black","black","black","white","black","white","white","white","white","black"],"dot_shape":"circle","background_color":"#AAA","RDK_type":3,"aperture_type":2,"reinsert_type":2,"frame_rate":16.641666666666666,"frame_rate_array":[7,15,17,17,17,16,17,17,16,17,17,16,17,17,16,17,16,17,16,17,18,17,15,17,18,15,18,16,16,16,17,17,17,17,17,17,17,17,16,17,18,16,17,17,17,17,16,17,17,17,17,16,17,16,16,18,17,17,17,16,17,16,17,17,16,16,17,17,17,17,17,16,17,16,17,17,17,17,17,17,17,17,17,17,16,16,17,16,18,15,17,18,16,16,18,17,17,17,16,17,17,16,17,17,16,17,16,17,17,16,17,18,17,16,17,16,17,17,17,16],"number_of_frames":120,"aperture_center_x":768,"aperture_center_y":432,"fixation_cross":true,"fixation_cross_width":15,"fixation_cross_height":15,"fixation_cross_color":"#111","fixation_cross_thickness":1,"border":true,"border_thickness":2,"border_color":"transparent","canvas_width":1536,"canvas_height":864,"trial_type":"rdk","trial_index":72,"plugin_version":"2.0.0","time_elapsed":297684},{"rt":2291,"stimulus":"\n        <div class=\"response-container\">\n          <div class=\"response-instruction\">\n            <p>rotate the bar by using the left and right arrow keys.</p>\n            <p>when you are determined, press the Enter key.</p>\n          </div>\n          <div class=\"response-circle\">\n            <div class=\"response-fixation\"></div>\n            <div id=\"bar\" class=\"rotating-bar\"></div>\n          </div>\n        </div>\n      ","response":"Enter","trial_type":"html-keyboard-response","trial_index":73,"plugin_version":"2.1.0","time_elapsed":299977,"random_initial_angle":39,"response_angle_css":39,"response_angle_rdk":51,"angular_error_target":-33,"angular_error_distractor":-128,"target_direction":84,"target_group":"black","reward_points":3},{"rt":null,"stimulus":"\n          <p style=\"color: #00FF00;\">Your reward: 3 points</p>\n        ","response":null,"trial_type":"html-keyboard-response","trial_index":74,"plugin_version":"2.1.0","time_elapsed":301979},{"rt":null,"stimulus":"<div class=\"fixation\" style=\"font-size: 60px;\">+</div>","response":null,"trial_type":"html-keyboard-response","trial_index":75,"plugin_version":"2.1.0","time_elapsed":302995},{"phase":"learning-awareness","target_group":"black","condition_label":"B_H_vs_W_L_rep4","target_direction":70,"distractor_direction":181,"session_rotation":333,"rt":-1,"response":"","correct":false,"choices":"ALL_KEYS","correct_choice":["a"],"trial_duration":2000,"flip_timestamps":[],"response_ends_trial":false,"number_of_apertures":200,"number_of_dots":[1,1,1,1,1,1,1,1,1,1,1,1,1,1,1,1,1,1,1,1,1,1,1,1,1,1,1,1,1,1,1,1,1,1,1,1,1,1,1,1,1,1,1,1,1,1,1,1,1,1,1,1,1,1,1,1,1,1,1,1,1,1,1,1,1,1,1,1,1,1,1,1,1,1,1,1,1,1,1,1,1,1,1,1,1,1,1,1,1,1,1,1,1,1,1,1,1,1,1,1,1,1,1,1,1,1,1,1,1,1,1,1,1,1,1,1,1,1,1,1,1,1,1,1,1,1,1,1,1,1,1,1,1,1,1,1,1,1,1,1,1,1,1,1,1,1,1,1,1,1,1,1,1,1,1,1,1,1,1,1,1,1,1,1,1,1,1,1,1,1,1,1,1,1,1,1,1,1,1,1,1,1,1,1,1,1,1,1,1,1,1,1,1,1,1,1,1,1,1,1],"number_of_sets":1,"coherent_direction":[70,181,70,181,70,181,181,181,70,181,70,70,70,181,181,181,70,70,70,181,70,70,70,70,181,181,70,70,70,181,70,70,181,70,70,181,181,181,181,70,181,181,181,70,181,70,70,181,70,181,70,181,181,181,181,181,181,70,181,181,70,181,181,70,181,181,70,70,181,70,181,181,70,70,181,70,181,70,181,181,181,70,181,181,70,70,181,181,70,181,181,70,70,181,181,70,70,70,181,181,70,70,70,70,70,181,181,181,70,70,181,181,181,70,70,70,70,181,181,70,70,181,70,70,70,181,70,181,181,181,70,70,70,181,70,181,70,181,70,70,70,181,70,181,181,181,181,70,70,181,181,181,181,181,70,70,70,70,181,181,181,181,181,70,70,70,70,181,70,70,181,70,70,70,181,181,181,181,181,70,181,70,70,181,181,70,70,70,181,70,181,70,181,181,181,70,70,70,70,70],"coherence":1,"opposite_coherence":0,"dot_radius":2,"dot_side_length":1,"dot_life":-1,"move_distance":1,"aperture_width":300,"aperture_height":300,"dot_color":["black","white","black","white","black","white","white","white","black","white","black","black","black","white","white","white","black","black","black","white","black","black","black","black","white","white","black","black","black","white","black","black","white","black","black","white","white","white","white","black","white","white","white","black","white","black","black","white","black","white","black","white","white","white","white","white","white","black","white","white","black","white","white","black","white","white","black","black","white","black","white","white","black","black","white","black","white","black","white","white","white","black","white","white","black","black","white","white","black","white","white","black","black","white","white","black","black","black","white","white","black","black","black","black","black","white","white","white","black","black","white","white","white","black","black","black","black","white","white","black","black","white","black","black","black","white","black","white","white","white","black","black","black","white","black","white","black","white","black","black","black","white","black","white","white","white","white","black","black","white","white","white","white","white","black","black","black","black","white","white","white","white","white","black","black","black","black","white","black","black","white","black","black","black","white","white","white","white","white","black","white","black","black","white","white","black","black","black","white","black","white","black","white","white","white","black","black","black","black","black"],"dot_shape":"circle","background_color":"#AAA","RDK_type":3,"aperture_type":2,"reinsert_type":2,"frame_rate":16.58677685950413,"frame_rate_array":[6,12,17,17,17,16,16,17,17,17,17,17,16,17,17,16,17,17,17,14,17,17,17,17,18,17,16,16,17,16,17,17,17,17,17,16,17,17,17,17,16,17,18,16,16,17,16,17,17,19,13,19,15,17,17,17,16,20,14,17,17,17,16,18,15,17,17,17,17,16,17,16,20,14,17,16,17,17,16,17,17,16,16,17,16,17,17,17,24,10,17,16,17,17,17,16,17,17,17,17,16,18,16,17,17,17,16,18,15,17,17,22,11,17,17,16,17,16,16,17,17],"number_of_frames":121,"aperture_center_x":768,"aperture_center_y":432,"fixation_cross":true,"fixation_cross_width":15,"fixation_cross_height":15,"fixation_cross_color":"#111","fixation_cross_thickness":1,"border":true,"border_thickness":2,"border_color":"transparent","canvas_width":1536,"canvas_height":864,"trial_type":"rdk","trial_index":76,"plugin_version":"2.0.0","time_elapsed":305003},{"rt":1526,"stimulus":"\n        <div class=\"response-container\">\n          <div class=\"response-instruction\">\n            <p>rotate the bar by using the left and right arrow keys.</p>\n            <p>when you are determined, press the Enter key.</p>\n          </div>\n          <div class=\"response-circle\">\n            <div class=\"response-fixation\"></div>\n            <div id=\"bar\" class=\"rotating-bar\"></div>\n          </div>\n        </div>\n      ","response":"Enter","trial_type":"html-keyboard-response","trial_index":77,"plugin_version":"2.1.0","time_elapsed":306532,"random_initial_angle":50,"response_angle_css":50,"response_angle_rdk":40,"angular_error_target":-30,"angular_error_distractor":-141,"target_direction":70,"target_group":"black","reward_points":4},{"rt":null,"stimulus":"\n          <p style=\"color: #00FF00;\">Your reward: 4 points</p>\n        ","response":null,"trial_type":"html-keyboard-response","trial_index":78,"plugin_version":"2.1.0","time_elapsed":308543},{"rt":null,"stimulus":"<div class=\"fixation\" style=\"font-size: 60px;\">+</div>","response":null,"trial_type":"html-keyboard-response","trial_index":79,"plugin_version":"2.1.0","time_elapsed":309550},{"phase":"learning-awareness","target_group":"black","condition_label":"B_H_vs_W_L_rep2","target_direction":93,"distractor_direction":192,"session_rotation":333,"rt":-1,"response":"","correct":false,"choices":"ALL_KEYS","correct_choice":["a"],"trial_duration":2000,"flip_timestamps":[],"response_ends_trial":false,"number_of_apertures":200,"number_of_dots":[1,1,1,1,1,1,1,1,1,1,1,1,1,1,1,1,1,1,1,1,1,1,1,1,1,1,1,1,1,1,1,1,1,1,1,1,1,1,1,1,1,1,1,1,1,1,1,1,1,1,1,1,1,1,1,1,1,1,1,1,1,1,1,1,1,1,1,1,1,1,1,1,1,1,1,1,1,1,1,1,1,1,1,1,1,1,1,1,1,1,1,1,1,1,1,1,1,1,1,1,1,1,1,1,1,1,1,1,1,1,1,1,1,1,1,1,1,1,1,1,1,1,1,1,1,1,1,1,1,1,1,1,1,1,1,1,1,1,1,1,1,1,1,1,1,1,1,1,1,1,1,1,1,1,1,1,1,1,1,1,1,1,1,1,1,1,1,1,1,1,1,1,1,1,1,1,1,1,1,1,1,1,1,1,1,1,1,1,1,1,1,1,1,1,1,1,1,1,1,1],"number_of_sets":1,"coherent_direction":[192,93,93,192,93,192,93,192,192,192,93,192,93,93,93,192,93,93,93,93,93,93,192,93,192,192,192,93,192,93,93,192,192,192,192,93,192,192,93,93,192,93,192,93,192,192,93,93,93,93,192,93,93,192,93,93,93,93,93,192,192,93,192,192,192,192,93,93,93,93,192,93,93,93,93,93,192,192,192,192,192,192,192,192,192,192,93,192,93,93,192,192,93,192,93,192,93,192,93,192,93,192,93,192,192,192,93,192,192,93,93,192,93,192,93,93,93,93,192,93,192,192,192,93,192,192,93,192,93,192,93,192,93,192,93,93,192,192,93,192,192,192,192,192,192,93,93,93,93,93,93,192,93,192,93,93,93,192,192,93,192,192,192,192,93,192,192,192,93,93,192,192,192,93,93,192,93,192,192,93,93,93,192,93,93,93,93,93,93,93,192,192,192,192,192,93,192,192,93,93],"coherence":1,"opposite_coherence":0,"dot_radius":2,"dot_side_length":1,"dot_life":-1,"move_distance":1,"aperture_width":300,"aperture_height":300,"dot_color":["white","black","black","white","black","white","black","white","white","white","black","white","black","black","black","white","black","black","black","black","black","black","white","black","white","white","white","black","white","black","black","white","white","white","white","black","white","white","black","black","white","black","white","black","white","white","black","black","black","black","white","black","black","white","black","black","black","black","black","white","white","black","white","white","white","white","black","black","black","black","white","black","black","black","black","black","white","white","white","white","white","white","white","white","white","white","black","white","black","black","white","white","black","white","black","white","black","white","black","white","black","white","black","white","white","white","black","white","white","black","black","white","black","white","black","black","black","black","white","black","white","white","white","black","white","white","black","white","black","white","black","white","black","white","black","black","white","white","black","white","white","white","white","white","white","black","black","black","black","black","black","white","black","white","black","black","black","white","white","black","white","white","white","white","black","white","white","white","black","black","white","white","white","black","black","white","black","white","white","black","black","black","white","black","black","black","black","black","black","black","white","white","white","white","white","black","white","white","black","black"],"dot_shape":"circle","background_color":"#AAA","RDK_type":3,"aperture_type":2,"reinsert_type":2,"frame_rate":16.608333333333334,"frame_rate_array":[10,18,16,17,16,17,15,17,16,16,18,16,16,18,17,16,17,17,17,16,17,17,17,17,17,16,18,17,16,18,16,22,12,17,17,17,17,17,16,17,16,16,17,17,17,16,16,17,17,16,15,17,17,17,16,17,16,17,16,17,17,16,17,17,17,16,17,17,16,17,16,16,18,16,16,18,16,16,17,16,17,17,16,16,17,17,17,17,17,15,17,16,16,17,17,17,16,18,16,16,17,17,17,17,16,18,16,18,16,17,17,17,16,17,16,16,17,17,16,17],"number_of_frames":120,"aperture_center_x":768,"aperture_center_y":432,"fixation_cross":true,"fixation_cross_width":15,"fixation_cross_height":15,"fixation_cross_color":"#111","fixation_cross_thickness":1,"border":true,"border_thickness":2,"border_color":"transparent","canvas_width":1536,"canvas_height":864,"trial_type":"rdk","trial_index":80,"plugin_version":"2.0.0","time_elapsed":311558},{"rt":3570,"stimulus":"\n        <div class=\"response-container\">\n          <div class=\"response-instruction\">\n            <p>rotate the bar by using the left and right arrow keys.</p>\n            <p>when you are determined, press the Enter key.</p>\n          </div>\n          <div class=\"response-circle\">\n            <div class=\"response-fixation\"></div>\n            <div id=\"bar\" class=\"rotating-bar\"></div>\n          </div>\n        </div>\n      ","response":"Enter","trial_type":"html-keyboard-response","trial_index":81,"plugin_version":"2.1.0","time_elapsed":315129,"random_initial_angle":333,"response_angle_css":363,"response_angle_rdk":87,"angular_error_target":-6,"angular_error_distractor":-105,"target_direction":93,"target_group":"black","reward_points":8},{"rt":null,"stimulus":"\n          <p style=\"color: #00FF00;\">Your reward: 8 points</p>\n        ","response":null,"trial_type":"html-keyboard-response","trial_index":82,"plugin_version":"2.1.0","time_elapsed":317140},{"rt":null,"stimulus":"<div class=\"fixation\" style=\"font-size: 60px;\">+</div>","response":null,"trial_type":"html-keyboard-response","trial_index":83,"plugin_version":"2.1.0","time_elapsed":318151},{"phase":"learning-awareness","target_group":"white","condition_label":"W_H_vs_B_L_rep24","target_direction":351,"distractor_direction":248,"session_rotation":333,"rt":-1,"response":"","correct":false,"choices":"ALL_KEYS","correct_choice":["a"],"trial_duration":2000,"flip_timestamps":[],"response_ends_trial":false,"number_of_apertures":200,"number_of_dots":[1,1,1,1,1,1,1,1,1,1,1,1,1,1,1,1,1,1,1,1,1,1,1,1,1,1,1,1,1,1,1,1,1,1,1,1,1,1,1,1,1,1,1,1,1,1,1,1,1,1,1,1,1,1,1,1,1,1,1,1,1,1,1,1,1,1,1,1,1,1,1,1,1,1,1,1,1,1,1,1,1,1,1,1,1,1,1,1,1,1,1,1,1,1,1,1,1,1,1,1,1,1,1,1,1,1,1,1,1,1,1,1,1,1,1,1,1,1,1,1,1,1,1,1,1,1,1,1,1,1,1,1,1,1,1,1,1,1,1,1,1,1,1,1,1,1,1,1,1,1,1,1,1,1,1,1,1,1,1,1,1,1,1,1,1,1,1,1,1,1,1,1,1,1,1,1,1,1,1,1,1,1,1,1,1,1,1,1,1,1,1,1,1,1,1,1,1,1,1,1],"number_of_sets":1,"coherent_direction":[351,248,351,351,248,248,248,351,351,248,351,248,248,248,351,351,351,351,351,351,351,248,351,248,248,351,248,248,248,248,351,351,248,248,351,248,351,351,248,351,248,351,351,351,351,351,248,351,248,351,248,351,248,351,248,248,351,248,351,351,248,248,248,248,248,248,351,351,248,248,351,248,248,248,351,248,351,248,248,248,351,351,248,248,248,248,351,248,248,351,351,248,351,248,351,248,248,351,248,351,351,248,248,248,351,351,248,351,248,248,351,351,248,351,248,248,351,351,248,351,351,248,351,351,351,248,351,351,248,351,248,351,248,351,351,351,248,248,248,248,248,248,351,248,351,351,351,248,351,248,351,248,248,351,248,351,248,351,248,248,351,351,351,351,351,248,248,248,351,248,248,248,248,248,351,248,351,248,351,351,248,351,248,351,248,351,248,351,351,351,351,351,248,351,248,248,351,351,351,351],"coherence":1,"opposite_coherence":0,"dot_radius":2,"dot_side_length":1,"dot_life":-1,"move_distance":1,"aperture_width":300,"aperture_height":300,"dot_color":["white","black","white","white","black","black","black","white","white","black","white","black","black","black","white","white","white","white","white","white","white","black","white","black","black","white","black","black","black","black","white","white","black","black","white","black","white","white","black","white","black","white","white","white","white","white","black","white","black","white","black","white","black","white","black","black","white","black","white","white","black","black","black","black","black","black","white","white","black","black","white","black","black","black","white","black","white","black","black","black","white","white","black","black","black","black","white","black","black","white","white","black","white","black","white","black","black","white","black","white","white","black","black","black","white","white","black","white","black","black","white","white","black","white","black","black","white","white","black","white","white","black","white","white","white","black","white","white","black","white","black","white","black","white","white","white","black","black","black","black","black","black","white","black","white","white","white","black","white","black","white","black","black","white","black","white","black","white","black","black","white","white","white","white","white","black","black","black","white","black","black","black","black","black","white","black","white","black","white","white","black","white","black","white","black","white","black","white","white","white","white","white","black","white","black","black","white","white","white","white"],"dot_shape":"circle","background_color":"#AAA","RDK_type":3,"aperture_type":2,"reinsert_type":2,"frame_rate":16.7,"frame_rate_array":[9,13,26,17,5,17,18,17,17,17,16,16,17,18,17,19,15,17,16,17,17,17,17,17,16,17,17,17,16,16,17,17,17,17,17,16,17,16,17,16,17,17,16,18,18,17,17,16,19,15,17,17,17,17,16,17,17,17,17,17,18,14,16,17,19,16,17,17,17,16,16,17,18,18,17,16,17,19,16,17,16,17,17,16,17,17,17,17,17,16,17,17,17,15,16,18,17,18,16,18,16,16,16,17,17,17,17,17,17,16,17,17,17,17,16,16,18,16,16,17],"number_of_frames":120,"aperture_center_x":768,"aperture_center_y":432,"fixation_cross":true,"fixation_cross_width":15,"fixation_cross_height":15,"fixation_cross_color":"#111","fixation_cross_thickness":1,"border":true,"border_thickness":2,"border_color":"transparent","canvas_width":1536,"canvas_height":864,"trial_type":"rdk","trial_index":84,"plugin_version":"2.0.0","time_elapsed":320158},{"rt":4509,"stimulus":"\n        <div class=\"response-container\">\n          <div class=\"response-instruction\">\n            <p>rotate the bar by using the left and right arrow keys.</p>\n            <p>when you are determined, press the Enter key.</p>\n          </div>\n          <div class=\"response-circle\">\n            <div class=\"response-fixation\"></div>\n            <div id=\"bar\" class=\"rotating-bar\"></div>\n          </div>\n        </div>\n      ","response":"Enter","trial_type":"html-keyboard-response","trial_index":85,"plugin_version":"2.1.0","time_elapsed":324670,"random_initial_angle":183,"response_angle_css":220,"response_angle_rdk":230,"angular_error_target":-121,"angular_error_distractor":-18,"target_direction":351,"target_group":"white","reward_points":0},{"rt":null,"stimulus":"\n          <p style=\"color: #FF3333;\">Your reward: 0 points</p>\n        ","response":null,"trial_type":"html-keyboard-response","trial_index":86,"plugin_version":"2.1.0","time_elapsed":326684},{"rt":null,"stimulus":"<div class=\"fixation\" style=\"font-size: 60px;\">+</div>","response":null,"trial_type":"html-keyboard-response","trial_index":87,"plugin_version":"2.1.0","time_elapsed":327690},{"phase":"learning-awareness","target_group":"white","condition_label":"W_H_vs_B_L_rep5","target_direction":338,"distractor_direction":245,"session_rotation":333,"rt":-1,"response":"","correct":false,"choices":"ALL_KEYS","correct_choice":["a"],"trial_duration":2000,"flip_timestamps":[],"response_ends_trial":false,"number_of_apertures":200,"number_of_dots":[1,1,1,1,1,1,1,1,1,1,1,1,1,1,1,1,1,1,1,1,1,1,1,1,1,1,1,1,1,1,1,1,1,1,1,1,1,1,1,1,1,1,1,1,1,1,1,1,1,1,1,1,1,1,1,1,1,1,1,1,1,1,1,1,1,1,1,1,1,1,1,1,1,1,1,1,1,1,1,1,1,1,1,1,1,1,1,1,1,1,1,1,1,1,1,1,1,1,1,1,1,1,1,1,1,1,1,1,1,1,1,1,1,1,1,1,1,1,1,1,1,1,1,1,1,1,1,1,1,1,1,1,1,1,1,1,1,1,1,1,1,1,1,1,1,1,1,1,1,1,1,1,1,1,1,1,1,1,1,1,1,1,1,1,1,1,1,1,1,1,1,1,1,1,1,1,1,1,1,1,1,1,1,1,1,1,1,1,1,1,1,1,1,1,1,1,1,1,1,1],"number_of_sets":1,"coherent_direction":[245,245,245,338,245,338,338,245,338,245,245,338,338,338,338,338,338,338,245,245,245,245,245,338,338,338,338,245,338,245,245,338,338,245,245,245,245,245,245,338,245,338,338,338,338,338,338,245,245,338,245,338,338,338,338,245,338,245,338,245,245,338,338,338,245,245,245,338,245,338,245,338,338,245,338,338,338,338,338,245,245,245,338,245,245,245,245,245,338,245,338,338,245,338,338,245,245,245,338,338,338,338,338,338,245,245,338,338,338,338,338,338,245,338,338,245,338,245,338,338,338,338,338,245,245,245,338,245,245,338,338,338,245,245,245,338,338,338,245,338,338,245,245,245,338,245,338,245,245,245,338,338,338,245,245,245,245,338,338,245,245,338,245,245,338,245,245,245,245,245,245,245,338,245,245,338,245,338,338,338,338,245,245,245,245,245,338,338,245,338,245,245,245,245,245,338,338,245,338,245],"coherence":1,"opposite_coherence":0,"dot_radius":2,"dot_side_length":1,"dot_life":-1,"move_distance":1,"aperture_width":300,"aperture_height":300,"dot_color":["black","black","black","white","black","white","white","black","white","black","black","white","white","white","white","white","white","white","black","black","black","black","black","white","white","white","white","black","white","black","black","white","white","black","black","black","black","black","black","white","black","white","white","white","white","white","white","black","black","white","black","white","white","white","white","black","white","black","white","black","black","white","white","white","black","black","black","white","black","white","black","white","white","black","white","white","white","white","white","black","black","black","white","black","black","black","black","black","white","black","white","white","black","white","white","black","black","black","white","white","white","white","white","white","black","black","white","white","white","white","white","white","black","white","white","black","white","black","white","white","white","white","white","black","black","black","white","black","black","white","white","white","black","black","black","white","white","white","black","white","white","black","black","black","white","black","white","black","black","black","white","white","white","black","black","black","black","white","white","black","black","white","black","black","white","black","black","black","black","black","black","black","white","black","black","white","black","white","white","white","white","black","black","black","black","black","white","white","black","white","black","black","black","black","black","white","white","black","white","black"],"dot_shape":"circle","background_color":"#AAA","RDK_type":3,"aperture_type":2,"reinsert_type":2,"frame_rate":16.633333333333333,"frame_rate_array":[14,12,14,16,18,17,15,18,17,17,17,17,17,17,15,18,16,17,17,17,16,17,16,18,16,17,20,14,17,16,16,18,16,16,17,18,16,17,17,16,16,17,17,16,17,17,17,17,16,16,17,17,17,17,17,16,17,17,17,16,17,17,16,17,18,14,17,16,18,17,16,16,18,16,17,17,17,16,16,17,17,16,16,17,17,17,18,16,17,16,17,17,17,18,15,17,16,17,17,17,18,16,17,16,16,17,17,17,17,17,17,16,16,18,16,17,16,18,16,16],"number_of_frames":120,"aperture_center_x":768,"aperture_center_y":432,"fixation_cross":true,"fixation_cross_width":15,"fixation_cross_height":15,"fixation_cross_color":"#111","fixation_cross_thickness":1,"border":true,"border_thickness":2,"border_color":"transparent","canvas_width":1536,"canvas_height":864,"trial_type":"rdk","trial_index":88,"plugin_version":"2.0.0","time_elapsed":329703},{"rt":5226,"stimulus":"\n        <div class=\"response-container\">\n          <div class=\"response-instruction\">\n            <p>rotate the bar by using the left and right arrow keys.</p>\n            <p>when you are determined, press the Enter key.</p>\n          </div>\n          <div class=\"response-circle\">\n            <div class=\"response-fixation\"></div>\n            <div id=\"bar\" class=\"rotating-bar\"></div>\n          </div>\n        </div>\n      ","response":"Enter","trial_type":"html-keyboard-response","trial_index":89,"plugin_version":"2.1.0","time_elapsed":334931,"random_initial_angle":249,"response_angle_css":212,"response_angle_rdk":238,"angular_error_target":-100,"angular_error_distractor":-7,"target_direction":338,"target_group":"white","reward_points":0},{"rt":null,"stimulus":"\n          <p style=\"color: #FF3333;\">Your reward: 0 points</p>\n        ","response":null,"trial_type":"html-keyboard-response","trial_index":90,"plugin_version":"2.1.0","time_elapsed":336936},{"rt":null,"stimulus":"<div class=\"fixation\" style=\"font-size: 60px;\">+</div>","response":null,"trial_type":"html-keyboard-response","trial_index":91,"plugin_version":"2.1.0","time_elapsed":337952},{"phase":"learning-awareness","target_group":"white","condition_label":"W_H_vs_B_L_rep1","target_direction":352,"distractor_direction":246,"session_rotation":333,"rt":-1,"response":"","correct":false,"choices":"ALL_KEYS","correct_choice":["a"],"trial_duration":2000,"flip_timestamps":[],"response_ends_trial":false,"number_of_apertures":200,"number_of_dots":[1,1,1,1,1,1,1,1,1,1,1,1,1,1,1,1,1,1,1,1,1,1,1,1,1,1,1,1,1,1,1,1,1,1,1,1,1,1,1,1,1,1,1,1,1,1,1,1,1,1,1,1,1,1,1,1,1,1,1,1,1,1,1,1,1,1,1,1,1,1,1,1,1,1,1,1,1,1,1,1,1,1,1,1,1,1,1,1,1,1,1,1,1,1,1,1,1,1,1,1,1,1,1,1,1,1,1,1,1,1,1,1,1,1,1,1,1,1,1,1,1,1,1,1,1,1,1,1,1,1,1,1,1,1,1,1,1,1,1,1,1,1,1,1,1,1,1,1,1,1,1,1,1,1,1,1,1,1,1,1,1,1,1,1,1,1,1,1,1,1,1,1,1,1,1,1,1,1,1,1,1,1,1,1,1,1,1,1,1,1,1,1,1,1,1,1,1,1,1,1],"number_of_sets":1,"coherent_direction":[246,352,246,246,246,246,246,352,246,246,246,246,352,352,352,352,246,352,246,352,352,352,352,246,246,352,352,352,246,352,246,352,352,352,246,246,246,352,246,246,246,352,246,246,246,352,352,352,246,246,246,352,352,246,352,352,352,352,246,246,246,246,352,352,352,352,352,246,246,352,352,352,352,352,246,246,246,246,246,246,352,352,352,246,246,352,352,352,352,352,352,246,246,352,246,246,352,246,246,352,352,246,352,246,246,352,246,352,246,246,246,246,246,246,352,246,246,352,352,352,352,352,246,352,246,352,246,352,352,246,246,246,352,352,246,352,352,246,352,246,352,352,352,246,352,246,352,352,352,246,246,352,352,246,352,246,246,352,352,246,246,246,246,246,352,246,352,246,246,352,246,246,352,246,352,352,352,352,352,246,246,352,352,246,352,246,246,352,246,246,246,246,246,352,352,246,246,352,352,352],"coherence":1,"opposite_coherence":0,"dot_radius":2,"dot_side_length":1,"dot_life":-1,"move_distance":1,"aperture_width":300,"aperture_height":300,"dot_color":["black","white","black","black","black","black","black","white","black","black","black","black","white","white","white","white","black","white","black","white","white","white","white","black","black","white","white","white","black","white","black","white","white","white","black","black","black","white","black","black","black","white","black","black","black","white","white","white","black","black","black","white","white","black","white","white","white","white","black","black","black","black","white","white","white","white","white","black","black","white","white","white","white","white","black","black","black","black","black","black","white","white","white","black","black","white","white","white","white","white","white","black","black","white","black","black","white","black","black","white","white","black","white","black","black","white","black","white","black","black","black","black","black","black","white","black","black","white","white","white","white","white","black","white","black","white","black","white","white","black","black","black","white","white","black","white","white","black","white","black","white","white","white","black","white","black","white","white","white","black","black","white","white","black","white","black","black","white","white","black","black","black","black","black","white","black","white","black","black","white","black","black","white","black","white","white","white","white","white","black","black","white","white","black","white","black","black","white","black","black","black","black","black","white","white","black","black","white","white","white"],"dot_shape":"circle","background_color":"#AAA","RDK_type":3,"aperture_type":2,"reinsert_type":2,"frame_rate":16.633333333333333,"frame_rate_array":[10,19,11,17,17,16,17,17,17,18,16,17,17,18,15,17,17,17,17,17,17,17,17,17,16,17,16,16,17,15,18,17,17,17,17,17,17,17,16,16,17,17,17,17,16,17,17,17,16,17,17,17,16,17,17,16,17,16,16,17,17,16,16,17,18,16,17,16,17,16,17,16,18,16,17,16,16,17,17,17,17,17,18,15,17,17,17,17,17,17,17,17,17,15,16,17,18,16,16,17,17,17,17,18,14,17,17,16,16,16,17,17,17,17,16,17,17,17,17,16],"number_of_frames":120,"aperture_center_x":768,"aperture_center_y":432,"fixation_cross":true,"fixation_cross_width":15,"fixation_cross_height":15,"fixation_cross_color":"#111","fixation_cross_thickness":1,"border":true,"border_thickness":2,"border_color":"transparent","canvas_width":1536,"canvas_height":864,"trial_type":"rdk","trial_index":92,"plugin_version":"2.0.0","time_elapsed":339966},{"rt":5719,"stimulus":"\n        <div class=\"response-container\">\n          <div class=\"response-instruction\">\n            <p>rotate the bar by using the left and right arrow keys.</p>\n            <p>when you are determined, press the Enter key.</p>\n          </div>\n          <div class=\"response-circle\">\n            <div class=\"response-fixation\"></div>\n            <div id=\"bar\" class=\"rotating-bar\"></div>\n          </div>\n        </div>\n      ","response":"Enter","trial_type":"html-keyboard-response","trial_index":93,"plugin_version":"2.1.0","time_elapsed":345686,"random_initial_angle":249,"response_angle_css":206,"response_angle_rdk":244,"angular_error_target":-108,"angular_error_distractor":-2,"target_direction":352,"target_group":"white","reward_points":0},{"rt":null,"stimulus":"\n          <p style=\"color: #FF3333;\">Your reward: 0 points</p>\n        ","response":null,"trial_type":"html-keyboard-response","trial_index":94,"plugin_version":"2.1.0","time_elapsed":347700},{"rt":null,"stimulus":"<div class=\"fixation\" style=\"font-size: 60px;\">+</div>","response":null,"trial_type":"html-keyboard-response","trial_index":95,"plugin_version":"2.1.0","time_elapsed":348704},{"phase":"learning-awareness","target_group":"white","condition_label":"W_H_vs_B_L_rep10","target_direction":351,"distractor_direction":252,"session_rotation":333,"rt":-1,"response":"","correct":false,"choices":"ALL_KEYS","correct_choice":["a"],"trial_duration":2000,"flip_timestamps":[],"response_ends_trial":false,"number_of_apertures":200,"number_of_dots":[1,1,1,1,1,1,1,1,1,1,1,1,1,1,1,1,1,1,1,1,1,1,1,1,1,1,1,1,1,1,1,1,1,1,1,1,1,1,1,1,1,1,1,1,1,1,1,1,1,1,1,1,1,1,1,1,1,1,1,1,1,1,1,1,1,1,1,1,1,1,1,1,1,1,1,1,1,1,1,1,1,1,1,1,1,1,1,1,1,1,1,1,1,1,1,1,1,1,1,1,1,1,1,1,1,1,1,1,1,1,1,1,1,1,1,1,1,1,1,1,1,1,1,1,1,1,1,1,1,1,1,1,1,1,1,1,1,1,1,1,1,1,1,1,1,1,1,1,1,1,1,1,1,1,1,1,1,1,1,1,1,1,1,1,1,1,1,1,1,1,1,1,1,1,1,1,1,1,1,1,1,1,1,1,1,1,1,1,1,1,1,1,1,1,1,1,1,1,1,1],"number_of_sets":1,"coherent_direction":[252,351,252,351,351,252,351,252,351,351,252,351,252,252,351,252,252,351,252,351,351,252,351,252,252,351,351,351,351,351,351,351,252,351,252,351,351,351,351,252,252,351,252,351,252,351,351,351,252,351,351,351,351,351,252,351,351,252,351,252,351,252,351,252,351,351,351,351,252,252,351,351,252,351,252,351,351,252,351,252,252,351,252,351,252,252,252,252,351,351,252,351,252,252,252,351,252,252,252,252,252,252,252,252,252,351,351,252,252,351,252,351,351,252,351,252,252,351,351,252,351,252,252,252,351,252,351,351,351,252,351,351,252,252,351,252,252,252,252,252,351,351,351,351,252,252,252,351,252,252,252,252,252,252,351,351,252,252,252,252,351,351,252,351,252,252,351,351,252,351,351,252,351,252,252,351,252,351,351,351,252,351,252,351,351,351,351,351,252,351,252,351,252,252,351,252,351,252,252,252],"coherence":1,"opposite_coherence":0,"dot_radius":2,"dot_side_length":1,"dot_life":-1,"move_distance":1,"aperture_width":300,"aperture_height":300,"dot_color":["black","white","black","white","white","black","white","black","white","white","black","white","black","black","white","black","black","white","black","white","white","black","white","black","black","white","white","white","white","white","white","white","black","white","black","white","white","white","white","black","black","white","black","white","black","white","white","white","black","white","white","white","white","white","black","white","white","black","white","black","white","black","white","black","white","white","white","white","black","black","white","white","black","white","black","white","white","black","white","black","black","white","black","white","black","black","black","black","white","white","black","white","black","black","black","white","black","black","black","black","black","black","black","black","black","white","white","black","black","white","black","white","white","black","white","black","black","white","white","black","white","black","black","black","white","black","white","white","white","black","white","white","black","black","white","black","black","black","black","black","white","white","white","white","black","black","black","white","black","black","black","black","black","black","white","white","black","black","black","black","white","white","black","white","black","black","white","white","black","white","white","black","white","black","black","white","black","white","white","white","black","white","black","white","white","white","white","white","black","white","black","white","black","black","white","black","white","black","black","black"],"dot_shape":"circle","background_color":"#AAA","RDK_type":3,"aperture_type":2,"reinsert_type":2,"frame_rate":16.591666666666665,"frame_rate_array":[10,8,17,16,17,17,17,16,18,16,16,17,16,16,19,17,17,16,17,24,9,16,16,17,17,17,17,17,16,17,17,17,15,17,16,17,17,16,17,16,18,17,16,17,16,16,16,17,18,17,17,17,17,16,17,17,17,16,17,16,17,17,17,16,17,17,17,16,16,18,17,16,16,17,17,17,16,17,16,16,18,16,18,17,17,17,16,17,17,17,17,17,17,16,17,17,17,17,17,16,17,16,18,15,17,17,16,17,17,17,15,16,18,16,17,17,18,16,18,16],"number_of_frames":120,"aperture_center_x":768,"aperture_center_y":432,"fixation_cross":true,"fixation_cross_width":15,"fixation_cross_height":15,"fixation_cross_color":"#111","fixation_cross_thickness":1,"border":true,"border_thickness":2,"border_color":"transparent","canvas_width":1536,"canvas_height":864,"trial_type":"rdk","trial_index":96,"plugin_version":"2.0.0","time_elapsed":350711},{"rt":7086,"stimulus":"\n        <div class=\"response-container\">\n          <div class=\"response-instruction\">\n            <p>rotate the bar by using the left and right arrow keys.</p>\n            <p>when you are determined, press the Enter key.</p>\n          </div>\n          <div class=\"response-circle\">\n            <div class=\"response-fixation\"></div>\n            <div id=\"bar\" class=\"rotating-bar\"></div>\n          </div>\n        </div>\n      ","response":"Enter","trial_type":"html-keyboard-response","trial_index":97,"plugin_version":"2.1.0","time_elapsed":357798,"random_initial_angle":333,"response_angle_css":211,"response_angle_rdk":239,"angular_error_target":-112,"angular_error_distractor":-13,"target_direction":351,"target_group":"white","reward_points":0},{"rt":null,"stimulus":"\n          <p style=\"color: #FF3333;\">Your reward: 0 points</p>\n        ","response":null,"trial_type":"html-keyboard-response","trial_index":98,"plugin_version":"2.1.0","time_elapsed":359803},{"rt":null,"stimulus":"<div class=\"fixation\" style=\"font-size: 60px;\">+</div>","response":null,"trial_type":"html-keyboard-response","trial_index":99,"plugin_version":"2.1.0","time_elapsed":360808},{"phase":"learning-awareness","target_group":"black","condition_label":"B_H_vs_W_L_rep22","target_direction":74,"distractor_direction":194,"session_rotation":333,"rt":-1,"response":"","correct":false,"choices":"ALL_KEYS","correct_choice":["a"],"trial_duration":2000,"flip_timestamps":[],"response_ends_trial":false,"number_of_apertures":200,"number_of_dots":[1,1,1,1,1,1,1,1,1,1,1,1,1,1,1,1,1,1,1,1,1,1,1,1,1,1,1,1,1,1,1,1,1,1,1,1,1,1,1,1,1,1,1,1,1,1,1,1,1,1,1,1,1,1,1,1,1,1,1,1,1,1,1,1,1,1,1,1,1,1,1,1,1,1,1,1,1,1,1,1,1,1,1,1,1,1,1,1,1,1,1,1,1,1,1,1,1,1,1,1,1,1,1,1,1,1,1,1,1,1,1,1,1,1,1,1,1,1,1,1,1,1,1,1,1,1,1,1,1,1,1,1,1,1,1,1,1,1,1,1,1,1,1,1,1,1,1,1,1,1,1,1,1,1,1,1,1,1,1,1,1,1,1,1,1,1,1,1,1,1,1,1,1,1,1,1,1,1,1,1,1,1,1,1,1,1,1,1,1,1,1,1,1,1,1,1,1,1,1,1],"number_of_sets":1,"coherent_direction":[194,74,194,194,74,194,194,74,194,194,194,194,74,74,74,194,74,74,194,74,194,74,74,74,194,194,74,194,194,74,74,74,74,194,74,194,74,194,74,74,194,194,74,194,74,194,194,194,74,74,194,74,74,74,194,74,194,74,74,194,194,194,74,74,74,74,74,194,194,194,74,74,194,74,194,74,74,194,194,74,194,194,74,194,194,74,194,74,74,194,74,194,194,74,74,74,194,194,194,74,194,194,194,194,194,74,194,194,74,74,74,74,194,194,74,194,194,74,194,194,74,74,194,194,194,74,194,194,194,74,194,194,194,74,74,74,74,74,74,74,74,194,194,194,194,74,74,74,194,194,74,74,194,74,194,194,194,194,194,74,74,74,194,74,194,74,74,194,74,74,74,194,74,74,194,74,194,194,194,74,194,194,194,74,194,74,194,194,194,74,194,74,74,74,74,74,74,74,74,194],"coherence":1,"opposite_coherence":0,"dot_radius":2,"dot_side_length":1,"dot_life":-1,"move_distance":1,"aperture_width":300,"aperture_height":300,"dot_color":["white","black","white","white","black","white","white","black","white","white","white","white","black","black","black","white","black","black","white","black","white","black","black","black","white","white","black","white","white","black","black","black","black","white","black","white","black","white","black","black","white","white","black","white","black","white","white","white","black","black","white","black","black","black","white","black","white","black","black","white","white","white","black","black","black","black","black","white","white","white","black","black","white","black","white","black","black","white","white","black","white","white","black","white","white","black","white","black","black","white","black","white","white","black","black","black","white","white","white","black","white","white","white","white","white","black","white","white","black","black","black","black","white","white","black","white","white","black","white","white","black","black","white","white","white","black","white","white","white","black","white","white","white","black","black","black","black","black","black","black","black","white","white","white","white","black","black","black","white","white","black","black","white","black","white","white","white","white","white","black","black","black","white","black","white","black","black","white","black","black","black","white","black","black","white","black","white","white","white","black","white","white","white","black","white","black","white","white","white","black","white","black","black","black","black","black","black","black","black","white"],"dot_shape":"circle","background_color":"#AAA","RDK_type":3,"aperture_type":2,"reinsert_type":2,"frame_rate":16.66115702479339,"frame_rate_array":[11,15,14,17,17,17,17,17,17,18,16,16,17,17,16,16,17,17,17,17,16,17,17,16,17,17,16,17,17,16,18,16,17,16,17,17,16,17,16,17,17,17,17,16,16,17,17,17,15,17,17,17,17,17,17,16,17,18,15,17,16,17,17,17,17,16,17,16,17,17,17,27,12,15,15,16,18,16,18,16,16,15,17,17,18,17,17,17,16,17,17,17,17,16,16,16,17,17,17,18,16,17,17,15,18,16,17,17,17,17,16,17,16,16,17,18,17,17,16,19,15],"number_of_frames":121,"aperture_center_x":768,"aperture_center_y":432,"fixation_cross":true,"fixation_cross_width":15,"fixation_cross_height":15,"fixation_cross_color":"#111","fixation_cross_thickness":1,"border":true,"border_thickness":2,"border_color":"transparent","canvas_width":1536,"canvas_height":864,"trial_type":"rdk","trial_index":100,"plugin_version":"2.0.0","time_elapsed":362826},{"rt":2634,"stimulus":"\n        <div class=\"response-container\">\n          <div class=\"response-instruction\">\n            <p>rotate the bar by using the left and right arrow keys.</p>\n            <p>when you are determined, press the Enter key.</p>\n          </div>\n          <div class=\"response-circle\">\n            <div class=\"response-fixation\"></div>\n            <div id=\"bar\" class=\"rotating-bar\"></div>\n          </div>\n        </div>\n      ","response":"Enter","trial_type":"html-keyboard-response","trial_index":101,"plugin_version":"2.1.0","time_elapsed":365462,"random_initial_angle":349,"response_angle_css":407,"response_angle_rdk":43,"angular_error_target":-31,"angular_error_distractor":-151,"target_direction":74,"target_group":"black","reward_points":3},{"rt":null,"stimulus":"\n          <p style=\"color: #00FF00;\">Your reward: 3 points</p>\n        ","response":null,"trial_type":"html-keyboard-response","trial_index":102,"plugin_version":"2.1.0","time_elapsed":367467},{"rt":null,"stimulus":"<div class=\"fixation\" style=\"font-size: 60px;\">+</div>","response":null,"trial_type":"html-keyboard-response","trial_index":103,"plugin_version":"2.1.0","time_elapsed":368483},{"phase":"learning-awareness","target_group":"white","condition_label":"W_H_vs_B_L_rep9","target_direction":10,"distractor_direction":263,"session_rotation":333,"rt":-1,"response":"","correct":false,"choices":"ALL_KEYS","correct_choice":["a"],"trial_duration":2000,"flip_timestamps":[],"response_ends_trial":false,"number_of_apertures":200,"number_of_dots":[1,1,1,1,1,1,1,1,1,1,1,1,1,1,1,1,1,1,1,1,1,1,1,1,1,1,1,1,1,1,1,1,1,1,1,1,1,1,1,1,1,1,1,1,1,1,1,1,1,1,1,1,1,1,1,1,1,1,1,1,1,1,1,1,1,1,1,1,1,1,1,1,1,1,1,1,1,1,1,1,1,1,1,1,1,1,1,1,1,1,1,1,1,1,1,1,1,1,1,1,1,1,1,1,1,1,1,1,1,1,1,1,1,1,1,1,1,1,1,1,1,1,1,1,1,1,1,1,1,1,1,1,1,1,1,1,1,1,1,1,1,1,1,1,1,1,1,1,1,1,1,1,1,1,1,1,1,1,1,1,1,1,1,1,1,1,1,1,1,1,1,1,1,1,1,1,1,1,1,1,1,1,1,1,1,1,1,1,1,1,1,1,1,1,1,1,1,1,1,1],"number_of_sets":1,"coherent_direction":[10,263,10,263,10,10,263,263,10,263,10,263,263,263,263,10,10,10,10,10,263,263,10,10,10,263,263,10,10,10,263,10,10,263,10,263,263,263,10,10,10,10,263,10,10,263,263,263,10,10,10,10,263,263,263,263,263,263,263,10,263,10,263,10,10,10,263,10,10,263,263,10,10,263,263,263,263,10,10,10,263,263,263,10,263,263,263,10,263,263,10,263,263,10,263,263,263,10,10,10,263,10,263,10,263,10,263,263,10,263,10,263,263,10,10,263,10,263,10,263,263,10,10,10,263,263,263,10,10,10,10,10,263,263,263,10,10,263,263,263,10,10,263,10,263,10,10,10,263,10,10,263,263,263,10,263,263,263,10,10,10,263,10,10,10,10,263,263,10,263,263,263,263,10,263,10,263,263,10,263,263,10,263,263,263,10,10,263,10,10,10,10,10,10,263,263,10,263,10,10],"coherence":1,"opposite_coherence":0,"dot_radius":2,"dot_side_length":1,"dot_life":-1,"move_distance":1,"aperture_width":300,"aperture_height":300,"dot_color":["white","black","white","black","white","white","black","black","white","black","white","black","black","black","black","white","white","white","white","white","black","black","white","white","white","black","black","white","white","white","black","white","white","black","white","black","black","black","white","white","white","white","black","white","white","black","black","black","white","white","white","white","black","black","black","black","black","black","black","white","black","white","black","white","white","white","black","white","white","black","black","white","white","black","black","black","black","white","white","white","black","black","black","white","black","black","black","white","black","black","white","black","black","white","black","black","black","white","white","white","black","white","black","white","black","white","black","black","white","black","white","black","black","white","white","black","white","black","white","black","black","white","white","white","black","black","black","white","white","white","white","white","black","black","black","white","white","black","black","black","white","white","black","white","black","white","white","white","black","white","white","black","black","black","white","black","black","black","white","white","white","black","white","white","white","white","black","black","white","black","black","black","black","white","black","white","black","black","white","black","black","white","black","black","black","white","white","black","white","white","white","white","white","white","black","black","white","black","white","white"],"dot_shape":"circle","background_color":"#AAA","RDK_type":3,"aperture_type":2,"reinsert_type":2,"frame_rate":16.52892561983471,"frame_rate_array":[9,4,12,17,16,17,17,17,17,17,16,17,20,14,16,17,16,17,16,17,17,17,16,16,17,16,17,17,16,18,16,26,8,16,16,17,17,17,16,17,16,17,17,17,17,17,17,17,17,18,15,17,17,16,17,17,17,18,15,17,17,17,17,16,17,17,17,17,17,17,17,17,17,17,16,17,17,16,17,17,17,17,17,17,16,16,16,17,18,16,17,17,17,25,8,17,17,16,16,17,17,17,16,17,16,17,17,17,17,16,17,17,17,17,16,17,17,16,17,16,17],"number_of_frames":121,"aperture_center_x":768,"aperture_center_y":432,"fixation_cross":true,"fixation_cross_width":15,"fixation_cross_height":15,"fixation_cross_color":"#111","fixation_cross_thickness":1,"border":true,"border_thickness":2,"border_color":"transparent","canvas_width":1536,"canvas_height":864,"trial_type":"rdk","trial_index":104,"plugin_version":"2.0.0","time_elapsed":370501},{"rt":3474,"stimulus":"\n        <div class=\"response-container\">\n          <div class=\"response-instruction\">\n            <p>rotate the bar by using the left and right arrow keys.</p>\n            <p>when you are determined, press the Enter key.</p>\n          </div>\n          <div class=\"response-circle\">\n            <div class=\"response-fixation\"></div>\n            <div id=\"bar\" class=\"rotating-bar\"></div>\n          </div>\n        </div>\n      ","response":"Enter","trial_type":"html-keyboard-response","trial_index":105,"plugin_version":"2.1.0","time_elapsed":373976,"random_initial_angle":213,"response_angle_css":181,"response_angle_rdk":269,"angular_error_target":-101,"angular_error_distractor":6,"target_direction":10,"target_group":"white","reward_points":0},{"rt":null,"stimulus":"\n          <p style=\"color: #FF3333;\">Your reward: 0 points</p>\n        ","response":null,"trial_type":"html-keyboard-response","trial_index":106,"plugin_version":"2.1.0","time_elapsed":375991},{"rt":null,"stimulus":"<div class=\"fixation\" style=\"font-size: 60px;\">+</div>","response":null,"trial_type":"html-