[{"rt":2189,"stimulus":"Welcome to the experiment. Press any key to begin.","response":" ","trial_type":"html-keyboard-response","trial_index":0,"plugin_version":"2.1.0","time_elapsed":2191},{"rt":19623,"stimulus":"\n        <div class=\"instructions-container\">\n          <h2>Instructions</h2>\n\n          <p>\n          In this experiment, you will see <strong>two Random Dot Kinematograms (RDKs)</strong> displayed simultaneously.\n          </p>\n\n          <p>\n          An RDK is a visual stimulus consisting of many small dots that move coherently in a single direction. \n          In this experiment, the dots will be either <strong>white</strong> or <strong>black</strong> \n          (see the short demo below for an example of an RDK stimulus).\n          </p>\n\n          <p>\n          On each trial, the two RDKs will move in different directions. \n          Your task is to decide <strong>which RDK appears to contain more dots</strong>.\n          </p>\n\n          <p>\n          The RDK that you judge to have more dots is called the <strong>target RDK</strong>. \n          For example, if the white RDK appears to have more dots than the black RDK, \n          you should report the motion direction of the white RDK.\n          </p>\n\n          <p>\n          After viewing the RDKs, you will rotate a bar to indicate the perceived direction of the target RDK \n          using the <strong>left</strong> and <strong>right arrow keys</strong>. \n          Press <strong>Enter</strong> when you are satisfied with your response.\n          </p>\n\n          <p>\n          You will receive points based on the <strong>accuracy of your response</strong>, \n          and your final <strong>bonus reward</strong> may depend on your overall performance. \n          Please try to respond as accurately as possible.\n          </p>\n\n          <p>\n          You will first complete <strong>three practice trials</strong>. \n          Press the <strong>Enter</strong> key to start the practice phase.\n          </p>\n\n          <canvas id=\"instruction-demo-rdk\" width=\"300\" height=\"300\"style=\"display:block;margin:12px auto; border-radius: 50%;\"></canvas>\n        </div>\n      ","response":"Enter","trial_type":"html-keyboard-response","trial_index":1,"plugin_version":"2.1.0","time_elapsed":21814},{"rt":null,"stimulus":"<div class=\"fixation\" style=\"font-size: 60px;\">+</div>","response":null,"trial_type":"html-keyboard-response","trial_index":2,"plugin_version":"2.1.0","time_elapsed":22827},{"target_group":"black","target_index":1,"condition_label":"B_H_vs_W_L","rt":-1,"response":"","correct":false,"choices":"ALL_KEYS","correct_choice":["a"],"trial_duration":2000,"flip_timestamps":[],"response_ends_trial":false,"number_of_apertures":2,"number_of_dots":[50,100],"number_of_sets":1,"coherent_direction":[10,100],"coherence":1,"opposite_coherence":0,"dot_radius":2,"dot_side_length":1,"dot_life":-1,"move_distance":1,"aperture_width":300,"aperture_height":300,"dot_color":["white","black"],"dot_shape":"circle","background_color":"#AAA","RDK_type":3,"aperture_type":2,"reinsert_type":2,"frame_rate":6.090651558073654,"frame_rate_array":[5,5,9,2,9,19,6,6,8,26,5,6,6,6,6,6,6,6,6,6,6,6,6,6,6,6,6,6,6,6,6,6,6,6,6,6,6,6,6,6,6,6,6,6,6,6,6,6,6,6,6,6,6,6,6,6,6,6,6,6,6,6,6,6,6,6,6,6,6,6,6,6,6,6,6,6,6,6,6,6,6,6,6,6,6,6,6,6,6,6,6,6,6,6,6,6,6,6,6,6,6,6,6,6,6,6,6,6,6,6,6,6,6,6,6,6,6,6,6,6,6,6,6,6,6,6,6,6,6,6,6,6,6,6,6,6,6,6,6,6,6,6,6,6,6,6,6,6,6,6,6,6,6,6,6,6,6,6,6,6,6,6,6,6,6,6,6,6,6,6,6,6,6,6,6,6,6,5,6,6,6,6,6,6,6,6,6,6,6,6,6,6,6,6,6,6,6,6,6,6,6,6,6,6,6,6,6,6,6,6,6,6,6,6,6,6,6,6,6,6,6,6,6,6,6,6,6,6,6,6,6,6,6,6,6,6,6,6,6,6,6,6,6,6,6,6,6,6,6,6,6,6,6,6,6,6,6,6,6,6,6,6,6,6,6,6,6,6,6,6,6,6,6,6,6,6,6,6,6,6,6,6,6,6,6,6,6,6,6,6,6,6,6,6,6,6,6,6,6,6,6,6,6,6,6,6,6,6,6,6,6,6,6,6,6,6,6,6,6,6,6,6,6,6,6,6,5,6,6,6,6,6,6,6,6,6,6,6,6,6,6,6,6,6,6,6,6,6,6,6,6,6,6],"number_of_frames":353,"aperture_center_x":960,"aperture_center_y":540,"fixation_cross":true,"fixation_cross_width":15,"fixation_cross_height":15,"fixation_cross_color":"#111","fixation_cross_thickness":1,"border":true,"border_thickness":2,"border_color":"transparent","canvas_width":1920,"canvas_height":1080,"trial_type":"rdk","trial_index":3,"plugin_version":"2.0.0","time_elapsed":24836,"target_direction":100,"distractor_direction":10},{"rt":12869,"stimulus":"\n        <div class=\"response-container\">\n          <div class=\"response-instruction\">\n            <p>rotate the bar by using the left and right arrow keys.</p>\n            <p>when you are determined, press the Enter key.</p>\n          </div>\n          <div class=\"response-circle\">\n            <div class=\"response-fixation\"></div>\n            <div id=\"bar\" class=\"rotating-bar\"></div>\n          </div>\n        </div>\n      ","response":"Enter","trial_type":"html-keyboard-response","trial_index":4,"plugin_version":"2.1.0","time_elapsed":37705,"response_angle_css":23,"response_angle_rdk":67,"angular_error_target":-33,"angular_error_distractor":57,"target_direction":100,"target_group":"black","reward_points":3},{"rt":null,"stimulus":"\n          <p style=\"color: #00FF00;\">Your reward: 3 points</p>\n        ","response":null,"trial_type":"html-keyboard-response","trial_index":5,"plugin_version":"2.1.0","time_elapsed":39721},{"rt":null,"stimulus":"<div class=\"fixation\" style=\"font-size: 60px;\">+</div>","response":null,"trial_type":"html-keyboard-response","trial_index":6,"plugin_version":"2.1.0","time_elapsed":40730},{"target_group":"white","target_index":0,"condition_label":"W_H_vs_B_L","rt":-1,"response":"","correct":false,"choices":"ALL_KEYS","correct_choice":["a"],"trial_duration":2000,"flip_timestamps":[],"response_ends_trial":false,"number_of_apertures":2,"number_of_dots":[100,50],"number_of_sets":1,"coherent_direction":[150,30],"coherence":1,"opposite_coherence":0,"dot_radius":2,"dot_side_length":1,"dot_life":-1,"move_distance":1,"aperture_width":300,"aperture_height":300,"dot_color":["white","black"],"dot_shape":"circle","background_color":"#AAA","RDK_type":3,"aperture_type":2,"reinsert_type":2,"frame_rate":5.977715877437326,"frame_rate_array":[4,6,6,6,11,5,6,6,6,6,6,6,6,6,6,6,6,6,6,6,6,6,6,6,6,6,6,6,6,6,6,6,6,6,6,6,6,6,6,6,6,6,6,5,6,6,6,6,6,6,6,6,6,6,6,6,6,6,6,6,6,6,6,6,6,6,6,6,6,6,6,6,6,6,6,6,6,6,5,6,6,6,6,6,6,6,6,6,6,6,6,6,6,6,6,6,6,6,6,6,6,6,6,6,6,6,6,6,6,6,6,6,6,6,6,6,6,6,6,6,6,6,6,6,6,6,6,6,6,6,6,6,6,6,6,6,6,6,6,6,6,6,6,6,6,6,6,6,6,6,6,6,6,6,6,6,6,6,6,6,6,6,6,6,6,6,6,6,6,6,6,6,6,6,6,6,6,6,6,6,6,6,6,6,6,6,6,6,6,6,6,5,6,5,6,5,6,6,6,6,6,6,5,6,5,6,6,6,6,6,6,6,6,6,6,6,6,6,6,6,6,6,6,6,6,6,5,6,6,6,5,6,6,6,6,6,6,6,6,6,6,6,6,6,6,6,6,6,6,6,6,6,6,6,6,6,6,6,6,6,6,6,6,6,6,6,6,6,6,6,6,6,6,6,6,6,6,6,6,5,6,6,6,6,6,6,6,6,6,6,6,6,6,6,6,6,6,6,6,6,6,6,6,6,6,6,6,6,6,6,6,6,6,6,6,6,6,6,6,6,6,6,6,6,6,6,6,6,6,6,6,6,6,6,6,6,6,6,6,6,6,6,6,6,6,6,6,6,6,6,6,6,6,6,6,6,6,6,6],"number_of_frames":359,"aperture_center_x":960,"aperture_center_y":540,"fixation_cross":true,"fixation_cross_width":15,"fixation_cross_height":15,"fixation_cross_color":"#111","fixation_cross_thickness":1,"border":true,"border_thickness":2,"border_color":"transparent","canvas_width":1920,"canvas_height":1080,"trial_type":"rdk","trial_index":7,"plugin_version":"2.0.0","time_elapsed":42737,"target_direction":150,"distractor_direction":30},{"rt":1350,"stimulus":"\n        <div class=\"response-container\">\n          <div class=\"response-instruction\">\n            <p>rotate the bar by using the left and right arrow keys.</p>\n            <p>when you are determined, press the Enter key.</p>\n          </div>\n          <div class=\"response-circle\">\n            <div class=\"response-fixation\"></div>\n            <div id=\"bar\" class=\"rotating-bar\"></div>\n          </div>\n        </div>\n      ","response":"Enter","trial_type":"html-keyboard-response","trial_index":8,"plugin_version":"2.1.0","time_elapsed":44088,"response_angle_css":71,"response_angle_rdk":19,"angular_error_target":-131,"angular_error_distractor":-11,"target_direction":150,"target_group":"white","reward_points":0},{"rt":null,"stimulus":"\n          <p style=\"color: #FF3333;\">Your reward: 0 points</p>\n        ","response":null,"trial_type":"html-keyboard-response","trial_index":9,"plugin_version":"2.1.0","time_elapsed":46096},{"rt":null,"stimulus":"<div class=\"fixation\" style=\"font-size: 60px;\">+</div>","response":null,"trial_type":"html-keyboard-response","trial_index":10,"plugin_version":"2.1.0","time_elapsed":47098},{"target_group":"black","target_index":1,"condition_label":"B_H_vs_W_L","rt":-1,"response":"","correct":false,"choices":"ALL_KEYS","correct_choice":["a"],"trial_duration":2000,"flip_timestamps":[],"response_ends_trial":false,"number_of_apertures":2,"number_of_dots":[50,100],"number_of_sets":1,"coherent_direction":[270,180],"coherence":1,"opposite_coherence":0,"dot_radius":2,"dot_side_length":1,"dot_life":-1,"move_distance":1,"aperture_width":300,"aperture_height":300,"dot_color":["white","black"],"dot_shape":"circle","background_color":"#AAA","RDK_type":3,"aperture_type":2,"reinsert_type":2,"frame_rate":5.977777777777778,"frame_rate_array":[4,5,6,6,6,6,6,6,6,6,6,6,6,6,6,6,6,6,6,6,6,6,6,6,6,6,6,6,6,6,6,6,6,6,6,6,6,6,6,6,6,6,6,6,6,6,6,6,6,6,6,6,6,6,6,6,6,6,6,6,6,6,6,6,6,5,6,6,6,6,6,6,6,6,6,6,6,6,6,6,6,6,6,6,6,6,6,6,6,6,6,6,6,6,6,6,6,6,6,6,6,5,6,6,6,6,6,6,6,6,6,6,6,6,6,6,6,6,6,6,6,6,6,6,6,6,6,6,6,6,6,6,6,6,6,6,6,6,6,6,6,6,6,6,6,6,6,6,6,6,6,6,6,6,6,6,6,6,6,6,6,6,6,6,6,6,6,6,6,6,6,6,6,6,6,6,6,6,6,6,6,6,6,6,6,6,6,6,6,6,6,6,6,6,6,6,6,6,6,6,6,6,6,6,6,6,6,6,6,6,6,6,6,6,5,6,6,6,6,5,6,6,6,6,6,6,6,6,6,6,6,6,6,6,6,6,6,6,6,6,6,6,6,6,6,6,6,6,6,6,6,6,6,6,6,6,6,6,6,6,6,6,6,6,6,6,6,6,6,6,6,6,6,6,6,6,6,6,6,6,6,6,6,6,6,6,6,6,6,6,6,6,6,6,6,6,6,6,5,6,6,7,5,6,6,6,6,6,6,6,6,6,6,6,6,6,6,6,6,6,6,6,6,6,6,6,6,6,6,6,6,6,6,6,6,6,6,6,6,6,6,6,6,6,6,6,6,6,6,6,6,6,6,6,6,6,6,6,6,6],"number_of_frames":360,"aperture_center_x":960,"aperture_center_y":540,"fixation_cross":true,"fixation_cross_width":15,"fixation_cross_height":15,"fixation_cross_color":"#111","fixation_cross_thickness":1,"border":true,"border_thickness":2,"border_color":"transparent","canvas_width":1920,"canvas_height":1080,"trial_type":"rdk","trial_index":11,"plugin_version":"2.0.0","time_elapsed":49104,"target_direction":180,"distractor_direction":270},{"rt":3658,"stimulus":"\n        <div class=\"response-container\">\n          <div class=\"response-instruction\">\n            <p>rotate the bar by using the left and right arrow keys.</p>\n            <p>when you are determined, press the Enter key.</p>\n          </div>\n          <div class=\"response-circle\">\n            <div class=\"response-fixation\"></div>\n            <div id=\"bar\" class=\"rotating-bar\"></div>\n          </div>\n        </div>\n      ","response":"Enter","trial_type":"html-keyboard-response","trial_index":12,"plugin_version":"2.1.0","time_elapsed":52762,"response_angle_css":507,"response_angle_rdk":303,"angular_error_target":123,"angular_error_distractor":33,"target_direction":180,"target_group":"black","reward_points":0},{"rt":null,"stimulus":"\n          <p style=\"color: #FF3333;\">Your reward: 0 points</p>\n        ","response":null,"trial_type":"html-keyboard-response","trial_index":13,"plugin_version":"2.1.0","time_elapsed":54771},{"rt":3169,"stimulus":"\n        <div class=\"instructions-container\">\n          <h2>End of Practice</h2>\n          <p>You have completed the practice trials.</p>\n          <p>Press <strong>Enter</strong> key to begin the main experiment.</p>\n        </div>\n      ","response":"Enter","trial_type":"html-keyboard-response","trial_index":14,"plugin_version":"2.1.0","time_elapsed":57940},{"rt":null,"stimulus":"<div class=\"fixation\" style=\"font-size: 60px;\">+</div>","response":null,"trial_type":"html-keyboard-response","trial_index":15,"plugin_version":"2.1.0","time_elapsed":58943},{"target_group":"black","condition_label":"B_H_vs_W_L_rep4","target_direction":173,"distractor_direction":294,"session_rotation":79,"rt":-1,"response":"","correct":false,"choices":"ALL_KEYS","correct_choice":["a"],"trial_duration":2000,"flip_timestamps":[],"response_ends_trial":false,"number_of_apertures":200,"number_of_dots":[1,1,1,1,1,1,1,1,1,1,1,1,1,1,1,1,1,1,1,1,1,1,1,1,1,1,1,1,1,1,1,1,1,1,1,1,1,1,1,1,1,1,1,1,1,1,1,1,1,1,1,1,1,1,1,1,1,1,1,1,1,1,1,1,1,1,1,1,1,1,1,1,1,1,1,1,1,1,1,1,1,1,1,1,1,1,1,1,1,1,1,1,1,1,1,1,1,1,1,1,1,1,1,1,1,1,1,1,1,1,1,1,1,1,1,1,1,1,1,1,1,1,1,1,1,1,1,1,1,1,1,1,1,1,1,1,1,1,1,1,1,1,1,1,1,1,1,1,1,1,1,1,1,1,1,1,1,1,1,1,1,1,1,1,1,1,1,1,1,1,1,1,1,1,1,1,1,1,1,1,1,1,1,1,1,1,1,1,1,1,1,1,1,1,1,1,1,1,1,1],"number_of_sets":1,"coherent_direction":[173,173,173,173,294,173,173,294,173,294,294,173,294,173,173,173,173,173,294,173,294,173,294,294,173,173,294,173,294,173,294,294,173,294,173,173,173,294,294,173,294,294,173,173,294,173,294,294,294,173,173,173,173,173,173,294,294,173,294,173,294,294,294,294,173,173,294,294,173,173,173,173,294,173,294,294,294,173,294,173,294,294,173,294,173,294,173,294,294,294,294,294,294,294,173,294,173,173,173,173,173,294,173,173,294,173,294,294,173,173,294,294,173,173,173,173,294,173,294,173,173,294,294,294,173,294,294,173,294,294,173,173,173,294,173,173,173,173,294,294,294,173,173,173,294,173,173,173,173,173,173,173,294,294,294,173,294,294,294,294,294,294,173,173,294,173,173,173,294,294,173,294,294,294,294,173,294,294,294,294,173,294,294,294,173,173,173,294,294,294,294,294,294,173,294,173,173,294,173,294],"coherence":1,"opposite_coherence":0,"dot_radius":2,"dot_side_length":1,"dot_life":-1,"move_distance":1,"aperture_width":300,"aperture_height":300,"dot_color":["black","black","black","black","white","black","black","white","black","white","white","black","white","black","black","black","black","black","white","black","white","black","white","white","black","black","white","black","white","black","white","white","black","white","black","black","black","white","white","black","white","white","black","black","white","black","white","white","white","black","black","black","black","black","black","white","white","black","white","black","white","white","white","white","black","black","white","white","black","black","black","black","white","black","white","white","white","black","white","black","white","white","black","white","black","white","black","white","white","white","white","white","white","white","black","white","black","black","black","black","black","white","black","black","white","black","white","white","black","black","white","white","black","black","black","black","white","black","white","black","black","white","white","white","black","white","white","black","white","white","black","black","black","white","black","black","black","black","white","white","white","black","black","black","white","black","black","black","black","black","black","black","white","white","white","black","white","white","white","white","white","white","black","black","white","black","black","black","white","white","black","white","white","white","white","black","white","white","white","white","black","white","white","white","black","black","black","white","white","white","white","white","white","black","white","black","black","white","black","white"],"dot_shape":"circle","background_color":"#AAA","RDK_type":3,"aperture_type":2,"reinsert_type":2,"frame_rate":5.916666666666667,"frame_rate_array":[3,6,6,6,6,6,6,6,6,6,6,6,5,6,6,6,6,6,6,6,6,6,6,6,6,6,6,6,6,6,5,6,5,6,6,6,6,6,6,6,5,6,6,6,6,6,6,6,6,6,6,6,5,6,6,6,6,6,6,6,6,6,6,6,6,6,6,6,6,6,6,6,6,6,6,6,6,6,6,6,6,6,6,6,6,6,6,6,6,6,6,6,6,6,6,6,6,6,6,6,6,6,6,6,6,6,5,6,6,6,5,6,6,6,6,6,6,6,6,6,6,6,6,6,6,6,6,6,6,6,6,6,6,6,6,6,6,6,6,6,6,5,6,6,6,6,5,6,6,6,6,6,6,6,6,6,6,6,5,6,6,6,5,6,6,6,6,6,6,6,6,6,5,6,6,6,6,6,5,6,6,6,6,6,5,6,6,6,6,6,6,6,6,6,6,6,6,6,6,6,6,6,6,6,6,6,6,6,6,6,6,6,6,6,6,6,6,6,6,6,5,6,5,6,6,6,6,6,6,6,6,6,6,5,6,6,6,6,5,6,6,6,6,6,6,6,6,6,6,6,6,6,6,6,6,6,6,6,6,6,6,6,6,6,6,6,6,6,6,6,6,6,6,6,6,6,6,5,6,6,6,6,6,6,6,6,6,6,6,6,6,5,6,6,5,6,6,6,6,6,5,6,6,6,6,6,6,6,6,6,6,6,6,6,6,5,6,6,6,6,6,5,6,6,6,6,6,6,6,5,6,6,5,6,6,6,6,6,6,6,6,6,6,6,6,6,6,6,6,6,5,6,6,6,6,6,6,6,6,6],"number_of_frames":360,"aperture_center_x":960,"aperture_center_y":540,"fixation_cross":true,"fixation_cross_width":15,"fixation_cross_height":15,"fixation_cross_color":"#111","fixation_cross_thickness":1,"border":true,"border_thickness":2,"border_color":"transparent","canvas_width":1920,"canvas_height":1080,"trial_type":"rdk","trial_index":16,"plugin_version":"2.0.0","time_elapsed":60948},{"rt":1795,"stimulus":"\n        <div class=\"response-container\">\n          <div class=\"response-instruction\">\n            <p>rotate the bar by using the left and right arrow keys.</p>\n            <p>when you are determined, press the Enter key.</p>\n          </div>\n          <div class=\"response-circle\">\n            <div class=\"response-fixation\"></div>\n            <div id=\"bar\" class=\"rotating-bar\"></div>\n          </div>\n        </div>\n      ","response":"Enter","trial_type":"html-keyboard-response","trial_index":17,"plugin_version":"2.1.0","time_elapsed":62743,"response_angle_css":521,"response_angle_rdk":289,"angular_error_target":116,"angular_error_distractor":-5,"target_direction":173,"target_group":"black","reward_points":0},{"rt":null,"stimulus":"\n          <p style=\"color: #FF3333;\">Your reward: 0 points</p>\n        ","response":null,"trial_type":"html-keyboard-response","trial_index":18,"plugin_version":"2.1.0","time_elapsed":64758},{"rt":null,"stimulus":"<div class=\"fixation\" style=\"font-size: 60px;\">+</div>","response":null,"trial_type":"html-keyboard-response","trial_index":19,"plugin_version":"2.1.0","time_elapsed":65766},{"target_group":"white","condition_label":"W_H_vs_B_L_rep7","target_direction":106,"distractor_direction":11,"session_rotation":79,"rt":-1,"response":"","correct":false,"choices":"ALL_KEYS","correct_choice":["a"],"trial_duration":2000,"flip_timestamps":[],"response_ends_trial":false,"number_of_apertures":200,"number_of_dots":[1,1,1,1,1,1,1,1,1,1,1,1,1,1,1,1,1,1,1,1,1,1,1,1,1,1,1,1,1,1,1,1,1,1,1,1,1,1,1,1,1,1,1,1,1,1,1,1,1,1,1,1,1,1,1,1,1,1,1,1,1,1,1,1,1,1,1,1,1,1,1,1,1,1,1,1,1,1,1,1,1,1,1,1,1,1,1,1,1,1,1,1,1,1,1,1,1,1,1,1,1,1,1,1,1,1,1,1,1,1,1,1,1,1,1,1,1,1,1,1,1,1,1,1,1,1,1,1,1,1,1,1,1,1,1,1,1,1,1,1,1,1,1,1,1,1,1,1,1,1,1,1,1,1,1,1,1,1,1,1,1,1,1,1,1,1,1,1,1,1,1,1,1,1,1,1,1,1,1,1,1,1,1,1,1,1,1,1,1,1,1,1,1,1,1,1,1,1,1,1],"number_of_sets":1,"coherent_direction":[11,106,11,11,11,106,106,11,11,106,106,106,11,106,11,11,106,11,106,106,106,11,11,11,106,11,106,106,11,11,106,11,11,11,11,11,11,11,11,106,106,11,11,106,11,106,11,106,106,11,11,106,106,11,106,11,11,106,106,106,106,11,106,11,11,11,106,11,11,106,106,106,11,106,11,106,106,11,11,106,106,11,106,11,11,106,106,11,11,11,106,11,106,106,106,11,11,106,11,106,106,106,106,106,106,11,11,106,11,11,106,11,106,11,106,106,11,11,106,106,106,11,106,106,106,106,106,106,11,11,11,106,11,11,106,106,11,11,106,106,11,11,106,106,11,106,11,11,11,11,11,106,11,106,106,106,106,11,11,106,106,11,106,106,106,11,106,106,11,106,11,11,106,106,106,106,11,11,106,106,11,106,11,106,11,11,106,11,11,106,11,106,11,11,106,11,11,106,11,11],"coherence":1,"opposite_coherence":0,"dot_radius":2,"dot_side_length":1,"dot_life":-1,"move_distance":1,"aperture_width":300,"aperture_height":300,"dot_color":["black","white","black","black","black","white","white","black","black","white","white","white","black","white","black","black","white","black","white","white","white","black","black","black","white","black","white","white","black","black","white","black","black","black","black","black","black","black","black","white","white","black","black","white","black","white","black","white","white","black","black","white","white","black","white","black","black","white","white","white","white","black","white","black","black","black","white","black","black","white","white","white","black","white","black","white","white","black","black","white","white","black","white","black","black","white","white","black","black","black","white","black","white","white","white","black","black","white","black","white","white","white","white","white","white","black","black","white","black","black","white","black","white","black","white","white","black","black","white","white","white","black","white","white","white","white","white","white","black","black","black","white","black","black","white","white","black","black","white","white","black","black","white","white","black","white","black","black","black","black","black","white","black","white","white","white","white","black","black","white","white","black","white","white","white","black","white","white","black","white","black","black","white","white","white","white","black","black","white","white","black","white","black","white","black","black","white","black","black","white","black","white","black","black","white","black","black","white","black","black"],"dot_shape":"circle","background_color":"#AAA","RDK_type":3,"aperture_type":2,"reinsert_type":2,"frame_rate":5.969444444444444,"frame_rate_array":[3,5,6,5,6,6,6,6,6,6,6,6,6,6,6,6,6,6,6,6,6,6,6,6,6,6,6,6,6,6,6,6,6,6,6,6,6,6,6,6,6,6,6,6,6,6,6,6,6,6,5,6,6,6,6,6,6,6,6,6,6,6,6,6,6,6,6,6,6,6,6,6,6,6,6,6,6,6,6,6,6,6,6,6,6,6,6,6,6,6,6,6,6,6,6,6,6,6,6,6,6,6,6,6,6,6,6,6,6,6,6,6,6,6,6,6,6,6,6,6,6,6,6,6,6,6,6,5,6,6,6,6,6,6,6,6,6,6,6,6,6,6,6,6,6,6,6,6,6,6,6,6,6,6,6,6,6,6,6,6,6,6,6,6,6,6,6,6,6,6,6,6,6,6,6,6,6,6,6,6,6,6,6,5,6,6,6,6,6,6,6,6,6,6,6,6,6,6,6,6,6,6,6,6,6,6,6,6,6,6,6,6,6,6,6,6,6,6,6,6,6,5,6,6,6,6,6,6,6,6,6,6,6,6,6,6,6,6,6,6,6,6,6,6,6,6,6,6,6,6,6,6,6,6,6,5,6,6,6,6,6,6,6,6,6,6,6,6,6,6,6,6,6,6,6,6,6,6,6,6,6,6,6,6,6,6,6,6,6,6,6,6,6,6,6,6,6,6,6,6,6,6,6,6,6,6,6,6,6,6,6,6,6,6,6,6,6,6,6,6,6,6,6,6,6,6,6,6,6,6,6,6,6,6,6,6,6,6,6,6,6,6,6,6,6,6,6,6,6,6,6,6,6,5,6,6,6,6,6,6],"number_of_frames":360,"aperture_center_x":960,"aperture_center_y":540,"fixation_cross":true,"fixation_cross_width":15,"fixation_cross_height":15,"fixation_cross_color":"#111","fixation_cross_thickness":1,"border":true,"border_thickness":2,"border_color":"transparent","canvas_width":1920,"canvas_height":1080,"trial_type":"rdk","trial_index":20,"plugin_version":"2.0.0","time_elapsed":67770},{"rt":2151,"stimulus":"\n        <div class=\"response-container\">\n          <div class=\"response-instruction\">\n            <p>rotate the bar by using the left and right arrow keys.</p>\n            <p>when you are determined, press the Enter key.</p>\n          </div>\n          <div class=\"response-circle\">\n            <div class=\"response-fixation\"></div>\n            <div id=\"bar\" class=\"rotating-bar\"></div>\n          </div>\n        </div>\n      ","response":"Enter","trial_type":"html-keyboard-response","trial_index":21,"plugin_version":"2.1.0","time_elapsed":69921,"response_angle_css":455,"response_angle_rdk":355,"angular_error_target":-111,"angular_error_distractor":-16,"target_direction":106,"target_group":"white","reward_points":0},{"rt":null,"stimulus":"\n          <p style=\"color: #FF3333;\">Your reward: 0 points</p>\n        ","response":null,"trial_type":"html-keyboard-response","trial_index":22,"plugin_version":"2.1.0","time_elapsed":71937},{"rt":null,"stimulus":"<div class=\"fixation\" style=\"font-size: 60px;\">+</div>","response":null,"trial_type":"html-keyboard-response","trial_index":23,"plugin_version":"2.1.0","time_elapsed":72946},{"target_group":"black","condition_label":"B_H_vs_W_L_rep17","target_direction":174,"distractor_direction":288,"session_rotation":79,"rt":-1,"response":"","correct":false,"choices":"ALL_KEYS","correct_choice":["a"],"trial_duration":2000,"flip_timestamps":[],"response_ends_trial":false,"number_of_apertures":200,"number_of_dots":[1,1,1,1,1,1,1,1,1,1,1,1,1,1,1,1,1,1,1,1,1,1,1,1,1,1,1,1,1,1,1,1,1,1,1,1,1,1,1,1,1,1,1,1,1,1,1,1,1,1,1,1,1,1,1,1,1,1,1,1,1,1,1,1,1,1,1,1,1,1,1,1,1,1,1,1,1,1,1,1,1,1,1,1,1,1,1,1,1,1,1,1,1,1,1,1,1,1,1,1,1,1,1,1,1,1,1,1,1,1,1,1,1,1,1,1,1,1,1,1,1,1,1,1,1,1,1,1,1,1,1,1,1,1,1,1,1,1,1,1,1,1,1,1,1,1,1,1,1,1,1,1,1,1,1,1,1,1,1,1,1,1,1,1,1,1,1,1,1,1,1,1,1,1,1,1,1,1,1,1,1,1,1,1,1,1,1,1,1,1,1,1,1,1,1,1,1,1,1,1],"number_of_sets":1,"coherent_direction":[288,288,174,288,288,288,288,174,174,288,288,174,288,174,174,174,288,288,288,288,174,174,288,174,174,174,174,174,288,174,174,288,288,174,174,174,288,174,288,288,174,288,174,174,174,288,288,174,288,288,288,288,288,174,288,174,288,174,174,288,288,174,288,288,174,288,174,288,174,288,288,174,174,174,288,174,288,288,174,174,288,288,288,174,174,174,174,288,288,288,174,288,174,174,288,288,174,174,174,174,174,174,288,174,174,174,174,288,174,174,174,174,174,288,174,174,174,174,174,288,288,174,288,174,174,174,288,174,174,288,174,174,174,288,174,288,288,174,288,174,174,288,288,174,174,288,174,174,288,288,174,174,288,288,288,174,288,288,288,288,174,288,288,174,288,288,174,288,174,174,174,174,288,174,288,288,174,288,174,288,174,288,288,174,174,288,288,288,288,288,174,288,288,288,288,288,288,288,288,288],"coherence":1,"opposite_coherence":0,"dot_radius":2,"dot_side_length":1,"dot_life":-1,"move_distance":1,"aperture_width":300,"aperture_height":300,"dot_color":["white","white","black","white","white","white","white","black","black","white","white","black","white","black","black","black","white","white","white","white","black","black","white","black","black","black","black","black","white","black","black","white","white","black","black","black","white","black","white","white","black","white","black","black","black","white","white","black","white","white","white","white","white","black","white","black","white","black","black","white","white","black","white","white","black","white","black","white","black","white","white","black","black","black","white","black","white","white","black","black","white","white","white","black","black","black","black","white","white","white","black","white","black","black","white","white","black","black","black","black","black","black","white","black","black","black","black","white","black","black","black","black","black","white","black","black","black","black","black","white","white","black","white","black","black","black","white","black","black","white","black","black","black","white","black","white","white","black","white","black","black","white","white","black","black","white","black","black","white","white","black","black","white","white","white","black","white","white","white","white","black","white","white","black","white","white","black","white","black","black","black","black","white","black","white","white","black","white","black","white","black","white","white","black","black","white","white","white","white","white","black","white","white","white","white","white","white","white","white","white"],"dot_shape":"circle","background_color":"#AAA","RDK_type":3,"aperture_type":2,"reinsert_type":2,"frame_rate":5.963888888888889,"frame_rate_array":[3,5,6,6,6,6,5,6,6,6,6,6,6,6,6,6,6,6,6,6,6,6,6,6,6,6,6,6,6,6,6,6,6,6,6,6,6,6,6,6,6,6,6,6,6,6,6,6,6,6,6,6,6,6,6,6,6,6,6,6,6,6,6,6,6,6,6,6,6,6,6,6,6,6,6,6,6,6,6,6,6,6,6,6,6,6,5,6,6,5,6,6,6,6,6,6,6,6,6,6,6,6,6,6,6,6,6,6,6,6,6,6,6,6,6,6,6,6,6,6,6,6,6,6,6,6,6,6,6,6,6,6,6,6,6,6,6,6,6,6,6,6,6,6,6,6,6,6,6,6,6,6,6,6,6,6,6,6,6,6,6,6,6,6,6,6,6,6,6,6,6,5,6,6,6,6,6,6,6,6,6,6,6,6,6,6,6,6,6,6,6,6,6,6,6,6,6,6,6,6,6,6,6,6,6,6,6,6,6,6,6,6,6,6,6,6,6,6,6,6,6,6,6,6,6,6,6,6,6,6,6,6,6,6,6,6,6,6,6,6,6,6,6,6,6,6,6,6,6,6,6,6,6,6,5,6,6,6,6,6,6,6,6,6,6,6,6,6,6,6,6,6,6,6,5,6,6,6,6,6,6,6,6,6,6,6,6,6,6,6,6,6,6,6,6,6,6,6,6,6,6,6,6,6,6,6,6,6,6,6,6,6,5,6,6,6,6,6,6,6,6,6,6,6,6,6,6,6,5,6,6,6,6,6,6,5,6,6,6,6,6,6,6,6,6,6,6,6,6,6,6,6,6,6,6,6,6,6,6,6],"number_of_frames":360,"aperture_center_x":960,"aperture_center_y":540,"fixation_cross":true,"fixation_cross_width":15,"fixation_cross_height":15,"fixation_cross_color":"#111","fixation_cross_thickness":1,"border":true,"border_thickness":2,"border_color":"transparent","canvas_width":1920,"canvas_height":1080,"trial_type":"rdk","trial_index":24,"plugin_version":"2.0.0","time_elapsed":74950},{"rt":1870,"stimulus":"\n        <div class=\"response-container\">\n          <div class=\"response-instruction\">\n            <p>rotate the bar by using the left and right arrow keys.</p>\n            <p>when you are determined, press the Enter key.</p>\n          </div>\n          <div class=\"response-circle\">\n            <div class=\"response-fixation\"></div>\n            <div id=\"bar\" class=\"rotating-bar\"></div>\n          </div>\n        </div>\n      ","response":"Enter","trial_type":"html-keyboard-response","trial_index":25,"plugin_version":"2.1.0","time_elapsed":76820,"response_angle_css":235,"response_angle_rdk":215,"angular_error_target":41,"angular_error_distractor":-73,"target_direction":174,"target_group":"black","reward_points":1},{"rt":null,"stimulus":"\n          <p style=\"color: #FF3333;\">Your reward: 1 points</p>\n        ","response":null,"trial_type":"html-keyboard-response","trial_index":26,"plugin_version":"2.1.0","time_elapsed":78828},{"rt":null,"stimulus":"<div class=\"fixation\" style=\"font-size: 60px;\">+</div>","response":null,"trial_type":"html-keyboard-response","trial_index":27,"plugin_version":"2.1.0","time_elapsed":79830},{"target_group":"black","condition_label":"B_H_vs_W_L_rep23","target_direction":193,"distractor_direction":287,"session_rotation":79,"rt":-1,"response":"","correct":false,"choices":"ALL_KEYS","correct_choice":["a"],"trial_duration":2000,"flip_timestamps":[],"response_ends_trial":false,"number_of_apertures":200,"number_of_dots":[1,1,1,1,1,1,1,1,1,1,1,1,1,1,1,1,1,1,1,1,1,1,1,1,1,1,1,1,1,1,1,1,1,1,1,1,1,1,1,1,1,1,1,1,1,1,1,1,1,1,1,1,1,1,1,1,1,1,1,1,1,1,1,1,1,1,1,1,1,1,1,1,1,1,1,1,1,1,1,1,1,1,1,1,1,1,1,1,1,1,1,1,1,1,1,1,1,1,1,1,1,1,1,1,1,1,1,1,1,1,1,1,1,1,1,1,1,1,1,1,1,1,1,1,1,1,1,1,1,1,1,1,1,1,1,1,1,1,1,1,1,1,1,1,1,1,1,1,1,1,1,1,1,1,1,1,1,1,1,1,1,1,1,1,1,1,1,1,1,1,1,1,1,1,1,1,1,1,1,1,1,1,1,1,1,1,1,1,1,1,1,1,1,1,1,1,1,1,1,1],"number_of_sets":1,"coherent_direction":[193,287,193,287,193,193,193,193,193,193,193,287,193,287,193,193,287,193,193,287,193,287,287,287,287,287,287,287,193,193,287,193,287,287,287,193,193,287,193,193,193,193,193,287,193,287,193,193,193,193,193,287,287,287,193,193,287,193,287,193,193,193,287,287,287,287,193,287,193,193,193,287,287,287,193,193,193,287,193,193,193,287,287,193,193,287,287,287,287,193,193,193,193,287,287,287,287,193,287,193,193,193,193,287,193,193,287,287,287,287,287,193,193,287,287,193,287,287,193,287,287,287,193,193,193,193,287,287,193,287,287,193,287,193,193,287,193,287,193,193,287,287,287,287,287,287,193,193,287,287,287,287,193,287,287,287,287,193,287,287,193,193,193,287,193,287,193,193,287,287,287,193,287,287,193,287,287,287,193,287,193,193,287,193,287,193,193,287,193,193,193,193,193,287,193,287,287,287,193,287],"coherence":1,"opposite_coherence":0,"dot_radius":2,"dot_side_length":1,"dot_life":-1,"move_distance":1,"aperture_width":300,"aperture_height":300,"dot_color":["black","white","black","white","black","black","black","black","black","black","black","white","black","white","black","black","white","black","black","white","black","white","white","white","white","white","white","white","black","black","white","black","white","white","white","black","black","white","black","black","black","black","black","white","black","white","black","black","black","black","black","white","white","white","black","black","white","black","white","black","black","black","white","white","white","white","black","white","black","black","black","white","white","white","black","black","black","white","black","black","black","white","white","black","black","white","white","white","white","black","black","black","black","white","white","white","white","black","white","black","black","black","black","white","black","black","white","white","white","white","white","black","black","white","white","black","white","white","black","white","white","white","black","black","black","black","white","white","black","white","white","black","white","black","black","white","black","white","black","black","white","white","white","white","white","white","black","black","white","white","white","white","black","white","white","white","white","black","white","white","black","black","black","white","black","white","black","black","white","white","white","black","white","white","black","white","white","white","black","white","black","black","white","black","white","black","black","white","black","black","black","black","black","white","black","white","white","white","black","white"],"dot_shape":"circle","background_color":"#AAA","RDK_type":3,"aperture_type":2,"reinsert_type":2,"frame_rate":5.977777777777778,"frame_rate_array":[3,6,6,6,6,6,6,6,6,6,6,6,6,6,6,6,6,6,6,6,6,6,6,6,6,6,6,6,6,5,6,6,6,6,6,6,6,6,6,6,6,6,6,6,6,6,6,6,6,6,6,6,6,6,6,6,6,6,6,6,6,6,6,6,6,6,6,6,6,6,6,6,6,6,6,5,6,6,6,6,6,6,6,6,6,6,6,6,6,6,6,6,6,6,6,6,6,6,6,6,6,6,6,6,6,6,6,6,6,6,6,6,6,6,6,6,6,6,6,6,6,6,6,6,6,6,6,6,6,6,6,6,6,6,6,6,6,6,6,6,6,6,6,6,6,6,6,6,6,6,6,6,6,6,6,6,6,6,6,6,6,6,6,6,6,6,6,6,6,6,6,6,6,6,6,6,6,6,6,6,6,6,6,6,6,6,6,6,6,6,6,6,6,6,6,6,6,6,6,6,6,6,6,6,6,6,6,6,6,6,6,6,6,6,6,6,6,6,6,6,6,6,6,6,6,6,6,6,6,6,6,6,6,6,6,6,6,6,6,6,6,6,6,6,6,6,6,6,5,6,6,6,6,6,6,6,6,6,6,6,6,6,6,6,6,6,6,6,6,6,6,6,6,6,6,6,6,6,6,6,6,6,6,6,6,6,6,6,6,6,6,6,5,6,6,6,6,6,6,6,6,6,6,6,6,6,6,6,6,6,6,6,6,6,6,6,6,6,6,6,6,6,6,5,6,6,6,6,6,6,6,6,6,6,6,6,6,6,6,6,6,6,6,6,6,6,6,6,6,6,6,6,6,6,6,6,6,6,6,6],"number_of_frames":360,"aperture_center_x":960,"aperture_center_y":540,"fixation_cross":true,"fixation_cross_width":15,"fixation_cross_height":15,"fixation_cross_color":"#111","fixation_cross_thickness":1,"border":true,"border_thickness":2,"border_color":"transparent","canvas_width":1920,"canvas_height":1080,"trial_type":"rdk","trial_index":28,"plugin_version":"2.0.0","time_elapsed":81834},{"rt":1614,"stimulus":"\n        <div class=\"response-container\">\n          <div class=\"response-instruction\">\n            <p>rotate the bar by using the left and right arrow keys.</p>\n            <p>when you are determined, press the Enter key.</p>\n          </div>\n          <div class=\"response-circle\">\n            <div class=\"response-fixation\"></div>\n            <div id=\"bar\" class=\"rotating-bar\"></div>\n          </div>\n        </div>\n      ","response":"Enter","trial_type":"html-keyboard-response","trial_index":29,"plugin_version":"2.1.0","time_elapsed":83449,"response_angle_css":217,"response_angle_rdk":233,"angular_error_target":40,"angular_error_distractor":-54,"target_direction":193,"target_group":"black","reward_points":1},{"rt":null,"stimulus":"\n          <p style=\"color: #FF3333;\">Your reward: 1 points</p>\n        ","response":null,"trial_type":"html-keyboard-response","trial_index":30,"plugin_version":"2.1.0","time_elapsed":85457},{"rt":null,"stimulus":"<div class=\"fixation\" style=\"font-size: 60px;\">+</div>","response":null,"trial_type":"html-keyboard-response","trial_index":31,"plugin_version":"2.1.0","time_elapsed":86459},{"target_group":"black","condition_label":"B_H_vs_W_L_rep18","target_direction":189,"distractor_direction":281,"session_rotation":79,"rt":-1,"response":"","correct":false,"choices":"ALL_KEYS","correct_choice":["a"],"trial_duration":2000,"flip_timestamps":[],"response_ends_trial":false,"number_of_apertures":200,"number_of_dots":[1,1,1,1,1,1,1,1,1,1,1,1,1,1,1,1,1,1,1,1,1,1,1,1,1,1,1,1,1,1,1,1,1,1,1,1,1,1,1,1,1,1,1,1,1,1,1,1,1,1,1,1,1,1,1,1,1,1,1,1,1,1,1,1,1,1,1,1,1,1,1,1,1,1,1,1,1,1,1,1,1,1,1,1,1,1,1,1,1,1,1,1,1,1,1,1,1,1,1,1,1,1,1,1,1,1,1,1,1,1,1,1,1,1,1,1,1,1,1,1,1,1,1,1,1,1,1,1,1,1,1,1,1,1,1,1,1,1,1,1,1,1,1,1,1,1,1,1,1,1,1,1,1,1,1,1,1,1,1,1,1,1,1,1,1,1,1,1,1,1,1,1,1,1,1,1,1,1,1,1,1,1,1,1,1,1,1,1,1,1,1,1,1,1,1,1,1,1,1,1],"number_of_sets":1,"coherent_direction":[281,189,281,189,281,189,281,189,189,189,281,281,189,189,281,189,189,281,189,281,189,189,189,189,189,189,189,189,189,281,281,281,281,281,281,189,281,281,281,281,189,281,189,281,189,281,281,281,281,189,281,189,281,189,189,189,189,281,189,281,281,189,189,189,281,281,281,189,189,281,189,281,189,281,281,281,189,281,189,281,189,281,189,189,189,281,281,189,281,281,281,189,281,189,281,281,189,189,281,189,189,281,281,281,281,189,189,189,281,189,189,189,189,189,189,281,281,189,189,189,189,281,281,281,281,189,281,189,281,189,281,281,189,281,189,281,189,189,281,189,281,281,281,189,189,281,189,281,189,281,189,189,189,189,281,281,281,189,281,281,281,281,189,189,281,281,189,189,189,189,281,281,189,189,189,281,281,281,281,189,281,281,189,189,189,189,281,189,189,189,281,189,281,281,281,281,281,281,281,189],"coherence":1,"opposite_coherence":0,"dot_radius":2,"dot_side_length":1,"dot_life":-1,"move_distance":1,"aperture_width":300,"aperture_height":300,"dot_color":["white","black","white","black","white","black","white","black","black","black","white","white","black","black","white","black","black","white","black","white","black","black","black","black","black","black","black","black","black","white","white","white","white","white","white","black","white","white","white","white","black","white","black","white","black","white","white","white","white","black","white","black","white","black","black","black","black","white","black","white","white","black","black","black","white","white","white","black","black","white","black","white","black","white","white","white","black","white","black","white","black","white","black","black","black","white","white","black","white","white","white","black","white","black","white","white","black","black","white","black","black","white","white","white","white","black","black","black","white","black","black","black","black","black","black","white","white","black","black","black","black","white","white","white","white","black","white","black","white","black","white","white","black","white","black","white","black","black","white","black","white","white","white","black","black","white","black","white","black","white","black","black","black","black","white","white","white","black","white","white","white","white","black","black","white","white","black","black","black","black","white","white","black","black","black","white","white","white","white","black","white","white","black","black","black","black","white","black","black","black","white","black","white","white","white","white","white","white","white","black"],"dot_shape":"circle","background_color":"#AAA","RDK_type":3,"aperture_type":2,"reinsert_type":2,"frame_rate":5.908333333333333,"frame_rate_array":[4,6,6,6,6,6,6,6,6,6,6,6,6,6,6,6,5,6,6,5,6,6,6,5,6,5,6,6,6,6,6,6,5,6,6,6,6,6,6,6,6,6,6,5,6,6,5,6,6,6,6,6,6,6,6,6,5,6,6,5,6,6,6,6,6,6,6,6,6,6,6,6,6,6,6,6,6,6,6,6,6,6,6,6,6,6,6,6,6,6,6,6,6,6,6,6,6,5,6,6,6,6,6,6,6,6,6,5,6,6,6,6,6,6,6,6,6,6,6,5,6,6,6,6,6,6,6,6,6,6,6,6,6,6,6,6,6,6,6,5,6,6,5,6,6,6,6,6,6,6,6,6,6,6,6,6,6,6,6,6,6,6,6,6,6,6,6,6,6,6,6,6,6,6,6,6,6,6,5,6,6,6,6,6,6,6,6,6,6,6,6,6,5,6,6,6,6,6,6,6,6,6,6,6,6,6,6,6,6,6,6,6,6,6,6,6,6,6,5,6,6,6,6,6,6,6,6,6,6,5,6,6,6,6,6,6,6,6,6,5,6,5,6,6,6,6,6,6,6,6,6,6,5,6,6,6,6,6,6,6,6,6,6,6,6,6,6,6,6,6,6,6,6,6,6,6,6,5,6,6,6,6,6,6,6,5,6,6,6,6,6,6,6,6,6,6,6,6,6,6,6,6,6,6,6,6,6,6,6,6,6,6,6,6,6,6,5,6,6,6,6,6,6,6,6,6,6,6,6,5,6,6,6,6,5,6,6,8,3,6,6,5,6,5,6,6,6,5,6,6,6,6,6,6,6,6,6,6,5,6],"number_of_frames":360,"aperture_center_x":960,"aperture_center_y":540,"fixation_cross":true,"fixation_cross_width":15,"fixation_cross_height":15,"fixation_cross_color":"#111","fixation_cross_thickness":1,"border":true,"border_thickness":2,"border_color":"transparent","canvas_width":1920,"canvas_height":1080,"trial_type":"rdk","trial_index":32,"plugin_version":"2.0.0","time_elapsed":88463},{"rt":2621,"stimulus":"\n        <div class=\"response-container\">\n          <div class=\"response-instruction\">\n            <p>rotate the bar by using the left and right arrow keys.</p>\n            <p>when you are determined, press the Enter key.</p>\n          </div>\n          <div class=\"response-circle\">\n            <div class=\"response-fixation\"></div>\n            <div id=\"bar\" class=\"rotating-bar\"></div>\n          </div>\n        </div>\n      ","response":"Enter","trial_type":"html-keyboard-response","trial_index":33,"plugin_version":"2.1.0","time_elapsed":91084,"response_angle_css":-131,"response_angle_rdk":221,"angular_error_target":32,"angular_error_distractor":-60,"target_direction":189,"target_group":"black","reward_points":3},{"rt":null,"stimulus":"\n          <p style=\"color: #00FF00;\">Your reward: 3 points</p>\n        ","response":null,"trial_type":"html-keyboard-response","trial_index":34,"plugin_version":"2.1.0","time_elapsed":93092},{"rt":null,"stimulus":"<div class=\"fixation\" style=\"font-size: 60px;\">+</div>","response":null,"trial_type":"html-keyboard-response","trial_index":35,"plugin_version":"2.1.0","time_elapsed":94094},{"target_group":"white","condition_label":"W_H_vs_B_L_rep13","target_direction":120,"distractor_direction":358,"session_rotation":79,"rt":-1,"response":"","correct":false,"choices":"ALL_KEYS","correct_choice":["a"],"trial_duration":2000,"flip_timestamps":[],"response_ends_trial":false,"number_of_apertures":200,"number_of_dots":[1,1,1,1,1,1,1,1,1,1,1,1,1,1,1,1,1,1,1,1,1,1,1,1,1,1,1,1,1,1,1,1,1,1,1,1,1,1,1,1,1,1,1,1,1,1,1,1,1,1,1,1,1,1,1,1,1,1,1,1,1,1,1,1,1,1,1,1,1,1,1,1,1,1,1,1,1,1,1,1,1,1,1,1,1,1,1,1,1,1,1,1,1,1,1,1,1,1,1,1,1,1,1,1,1,1,1,1,1,1,1,1,1,1,1,1,1,1,1,1,1,1,1,1,1,1,1,1,1,1,1,1,1,1,1,1,1,1,1,1,1,1,1,1,1,1,1,1,1,1,1,1,1,1,1,1,1,1,1,1,1,1,1,1,1,1,1,1,1,1,1,1,1,1,1,1,1,1,1,1,1,1,1,1,1,1,1,1,1,1,1,1,1,1,1,1,1,1,1,1],"number_of_sets":1,"coherent_direction":[120,120,358,358,358,120,120,120,120,120,358,120,358,358,120,120,120,358,120,358,358,120,358,358,120,120,120,358,120,120,120,358,120,120,120,358,358,120,358,120,120,120,358,358,358,358,358,358,358,358,358,120,358,358,358,120,358,120,358,358,120,358,358,358,120,120,358,120,358,120,358,358,358,358,358,120,120,120,120,358,120,120,120,358,120,120,358,120,120,120,358,358,358,120,120,120,358,358,120,358,120,120,358,358,120,120,120,120,358,358,358,358,120,120,120,120,120,120,358,120,358,120,120,120,358,120,358,358,120,358,358,120,120,358,358,358,120,358,120,358,120,358,358,358,358,120,120,358,358,120,358,358,358,120,120,120,358,358,120,358,358,358,358,358,120,120,358,120,120,120,358,120,120,120,358,120,358,358,358,120,120,120,120,358,120,358,358,120,358,358,358,120,120,120,120,358,358,120,358,358],"coherence":1,"opposite_coherence":0,"dot_radius":2,"dot_side_length":1,"dot_life":-1,"move_distance":1,"aperture_width":300,"aperture_height":300,"dot_color":["white","white","black","black","black","white","white","white","white","white","black","white","black","black","white","white","white","black","white","black","black","white","black","black","white","white","white","black","white","white","white","black","white","white","white","black","black","white","black","white","white","white","black","black","black","black","black","black","black","black","black","white","black","black","black","white","black","white","black","black","white","black","black","black","white","white","black","white","black","white","black","black","black","black","black","white","white","white","white","black","white","white","white","black","white","white","black","white","white","white","black","black","black","white","white","white","black","black","white","black","white","white","black","black","white","white","white","white","black","black","black","black","white","white","white","white","white","white","black","white","black","white","white","white","black","white","black","black","white","black","black","white","white","black","black","black","white","black","white","black","white","black","black","black","black","white","white","black","black","white","black","black","black","white","white","white","black","black","white","black","black","black","black","black","white","white","black","white","white","white","black","white","white","white","black","white","black","black","black","white","white","white","white","black","white","black","black","white","black","black","black","white","white","white","white","black","black","white","black","black"],"dot_shape":"circle","background_color":"#AAA","RDK_type":3,"aperture_type":2,"reinsert_type":2,"frame_rate":5.891666666666667,"frame_rate_array":[3,6,6,6,6,5,6,6,6,6,6,6,6,5,6,6,6,6,6,6,6,6,6,5,6,6,6,5,6,6,6,6,6,6,6,6,6,6,6,6,5,6,6,6,6,6,6,6,6,6,6,6,5,6,6,6,6,6,6,6,6,6,6,6,6,6,6,6,5,6,6,6,6,6,6,5,6,6,5,6,6,6,6,5,6,6,6,6,6,6,6,5,6,6,6,6,6,5,6,6,6,6,6,6,6,6,5,6,6,6,6,6,5,6,6,6,6,6,6,6,6,5,6,6,6,6,6,6,6,6,6,5,6,6,6,6,6,6,6,6,6,6,6,6,6,6,6,6,6,6,5,6,6,6,6,6,6,6,6,6,6,6,6,6,5,6,6,6,6,6,5,6,6,6,5,6,6,6,6,5,6,6,6,6,6,5,6,6,6,6,6,6,5,6,6,5,6,6,6,6,6,6,6,6,6,5,6,6,6,6,5,6,6,6,6,6,6,6,6,6,6,6,6,6,6,6,6,6,6,6,6,6,6,6,6,6,6,6,6,6,6,6,6,6,6,6,6,6,5,6,5,6,6,6,5,6,6,6,6,6,6,6,6,6,6,6,6,6,6,6,6,6,6,6,6,6,6,6,6,6,6,6,6,6,6,6,5,6,6,6,6,6,6,5,6,6,6,5,6,5,6,6,6,6,6,6,6,6,6,6,5,6,6,6,6,6,6,6,6,6,5,6,6,6,6,6,6,6,6,6,6,6,6,6,6,6,6,6,6,6,6,6,6,5,6,6,6,6,6,6,6,6,6,6,6,6,6,6,6,6],"number_of_frames":360,"aperture_center_x":960,"aperture_center_y":540,"fixation_cross":true,"fixation_cross_width":15,"fixation_cross_height":15,"fixation_cross_color":"#111","fixation_cross_thickness":1,"border":true,"border_thickness":2,"border_color":"transparent","canvas_width":1920,"canvas_height":1080,"trial_type":"rdk","trial_index":36,"plugin_version":"2.0.0","time_elapsed":96099},{"rt":2394,"stimulus":"\n        <div class=\"response-container\">\n          <div class=\"response-instruction\">\n            <p>rotate the bar by using the left and right arrow keys.</p>\n            <p>when you are determined, press the Enter key.</p>\n          </div>\n          <div class=\"response-circle\">\n            <div class=\"response-fixation\"></div>\n            <div id=\"bar\" class=\"rotating-bar\"></div>\n          </div>\n        </div>\n      ","response":"Enter","trial_type":"html-keyboard-response","trial_index":37,"plugin_version":"2.1.0","time_elapsed":98493,"response_angle_css":393,"response_angle_rdk":57,"angular_error_target":-63,"angular_error_distractor":59,"target_direction":120,"target_group":"white","reward_points":0},{"rt":null,"stimulus":"\n          <p style=\"color: #FF3333;\">Your reward: 0 points</p>\n        ","response":null,"trial_type":"html-keyboard-response","trial_index":38,"plugin_version":"2.1.0","time_elapsed":100494},{"rt":null,"stimulus":"<div class=\"fixation\" style=\"font-size: 60px;\">+</div>","response":null,"trial_type":"html-keyboard-response","trial_index":39,"plugin_version":"2.1.0","time_elapsed":101496},{"target_group":"white","condition_label":"W_H_vs_B_L_rep14","target_direction":123,"distractor_direction":12,"session_rotation":79,"rt":-1,"response":"","correct":false,"choices":"ALL_KEYS","correct_choice":["a"],"trial_duration":2000,"flip_timestamps":[],"response_ends_trial":false,"number_of_apertures":200,"number_of_dots":[1,1,1,1,1,1,1,1,1,1,1,1,1,1,1,1,1,1,1,1,1,1,1,1,1,1,1,1,1,1,1,1,1,1,1,1,1,1,1,1,1,1,1,1,1,1,1,1,1,1,1,1,1,1,1,1,1,1,1,1,1,1,1,1,1,1,1,1,1,1,1,1,1,1,1,1,1,1,1,1,1,1,1,1,1,1,1,1,1,1,1,1,1,1,1,1,1,1,1,1,1,1,1,1,1,1,1,1,1,1,1,1,1,1,1,1,1,1,1,1,1,1,1,1,1,1,1,1,1,1,1,1,1,1,1,1,1,1,1,1,1,1,1,1,1,1,1,1,1,1,1,1,1,1,1,1,1,1,1,1,1,1,1,1,1,1,1,1,1,1,1,1,1,1,1,1,1,1,1,1,1,1,1,1,1,1,1,1,1,1,1,1,1,1,1,1,1,1,1,1],"number_of_sets":1,"coherent_direction":[12,123,12,123,123,12,12,123,123,12,12,12,12,123,12,123,123,123,123,12,123,123,12,12,12,12,123,123,12,123,12,12,12,12,12,12,12,12,12,123,123,123,12,123,12,123,123,12,123,12,12,12,123,12,123,123,123,12,123,12,12,12,123,123,12,12,123,12,123,123,123,123,123,123,12,123,12,12,12,12,123,12,123,123,12,12,12,12,123,123,12,123,12,123,123,12,12,123,123,123,123,12,12,12,12,12,123,123,123,123,123,123,123,12,123,12,123,12,123,12,123,123,12,123,123,12,12,123,12,123,123,12,123,12,123,12,123,123,12,12,12,123,123,123,12,123,12,12,12,123,123,123,123,12,12,12,12,123,12,12,12,12,123,12,123,12,123,123,123,12,12,12,123,12,123,12,123,12,123,12,123,12,123,123,12,123,123,12,12,12,123,123,123,123,123,123,12,12,123,12],"coherence":1,"opposite_coherence":0,"dot_radius":2,"dot_side_length":1,"dot_life":-1,"move_distance":1,"aperture_width":300,"aperture_height":300,"dot_color":["black","white","black","white","white","black","black","white","white","black","black","black","black","white","black","white","white","white","white","black","white","white","black","black","black","black","white","white","black","white","black","black","black","black","black","black","black","black","black","white","white","white","black","white","black","white","white","black","white","black","black","black","white","black","white","white","white","black","white","black","black","black","white","white","black","black","white","black","white","white","white","white","white","white","black","white","black","black","black","black","white","black","white","white","black","black","black","black","white","white","black","white","black","white","white","black","black","white","white","white","white","black","black","black","black","black","white","white","white","white","white","white","white","black","white","black","white","black","white","black","white","white","black","white","white","black","black","white","black","white","white","black","white","black","white","black","white","white","black","black","black","white","white","white","black","white","black","black","black","white","white","white","white","black","black","black","black","white","black","black","black","black","white","black","white","black","white","white","white","black","black","black","white","black","white","black","white","black","white","black","white","black","white","white","black","white","white","black","black","black","white","white","white","white","white","white","black","black","white","black"],"dot_shape":"circle","background_color":"#AAA","RDK_type":3,"aperture_type":2,"reinsert_type":2,"frame_rate":5.897222222222222,"frame_rate_array":[4,6,6,6,6,6,6,5,6,6,6,6,6,6,6,6,6,6,6,5,6,6,6,6,6,5,6,6,6,6,6,6,5,6,6,6,6,6,6,5,6,6,6,5,6,6,6,6,6,5,6,6,5,6,6,6,6,6,6,6,6,6,6,6,6,6,6,6,5,6,6,6,6,6,6,6,6,6,6,5,6,5,6,6,6,6,6,6,6,6,6,6,6,6,6,6,6,6,6,6,5,6,6,6,6,6,6,6,6,6,6,6,5,6,6,6,6,6,6,6,5,6,6,5,6,6,6,6,6,6,6,5,6,6,5,6,6,6,6,6,6,6,6,6,6,5,6,6,5,6,6,6,6,6,6,5,6,6,6,6,6,6,5,6,5,6,6,6,6,6,6,5,6,6,6,6,6,6,6,6,6,6,6,6,6,6,6,6,6,6,6,6,6,5,6,6,6,6,6,6,6,6,5,6,6,6,6,5,6,6,6,6,6,6,6,6,6,6,6,5,6,6,6,6,6,6,6,6,6,6,6,6,6,6,6,6,6,6,6,6,6,6,6,6,6,6,6,6,6,6,6,6,6,6,6,6,6,6,6,6,6,6,6,6,6,6,6,6,6,6,6,5,6,6,6,6,6,6,6,6,6,6,6,6,6,6,6,6,5,6,6,6,6,6,6,6,6,6,6,6,6,5,6,5,6,6,6,6,6,6,6,6,6,6,6,6,6,6,6,6,5,6,6,6,6,5,6,5,6,6,6,6,6,6,6,6,6,6,6,6,6,6,6,6,6,6,6,6,6,6,6,6,6,6,6,5,6,6,6,6],"number_of_frames":360,"aperture_center_x":960,"aperture_center_y":540,"fixation_cross":true,"fixation_cross_width":15,"fixation_cross_height":15,"fixation_cross_color":"#111","fixation_cross_thickness":1,"border":true,"border_thickness":2,"border_color":"transparent","canvas_width":1920,"canvas_height":1080,"trial_type":"rdk","trial_index":40,"plugin_version":"2.0.0","time_elapsed":103500},{"rt":1975,"stimulus":"\n        <div class=\"response-container\">\n          <div class=\"response-instruction\">\n            <p>rotate the bar by using the left and right arrow keys.</p>\n            <p>when you are determined, press the Enter key.</p>\n          </div>\n          <div class=\"response-circle\">\n            <div class=\"response-fixation\"></div>\n            <div id=\"bar\" class=\"rotating-bar\"></div>\n          </div>\n        </div>\n      ","response":"Enter","trial_type":"html-keyboard-response","trial_index":41,"plugin_version":"2.1.0","time_elapsed":105475,"response_angle_css":340,"response_angle_rdk":110,"angular_error_target":-13,"angular_error_distractor":98,"target_direction":123,"target_group":"white","reward_points":7},{"rt":null,"stimulus":"\n          <p style=\"color: #00FF00;\">Your reward: 7 points</p>\n        ","response":null,"trial_type":"html-keyboard-response","trial_index":42,"plugin_version":"2.1.0","time_elapsed":107489},{"rt":null,"stimulus":"<div class=\"fixation\" style=\"font-size: 60px;\">+</div>","response":null,"trial_type":"html-keyboard-response","trial_index":43,"plugin_version":"2.1.0","time_elapsed":108497},{"target_group":"white","condition_label":"W_H_vs_B_L_rep3","target_direction":96,"distractor_direction":355,"session_rotation":79,"rt":-1,"response":"","correct":false,"choices":"ALL_KEYS","correct_choice":["a"],"trial_duration":2000,"flip_timestamps":[],"response_ends_trial":false,"number_of_apertures":200,"number_of_dots":[1,1,1,1,1,1,1,1,1,1,1,1,1,1,1,1,1,1,1,1,1,1,1,1,1,1,1,1,1,1,1,1,1,1,1,1,1,1,1,1,1,1,1,1,1,1,1,1,1,1,1,1,1,1,1,1,1,1,1,1,1,1,1,1,1,1,1,1,1,1,1,1,1,1,1,1,1,1,1,1,1,1,1,1,1,1,1,1,1,1,1,1,1,1,1,1,1,1,1,1,1,1,1,1,1,1,1,1,1,1,1,1,1,1,1,1,1,1,1,1,1,1,1,1,1,1,1,1,1,1,1,1,1,1,1,1,1,1,1,1,1,1,1,1,1,1,1,1,1,1,1,1,1,1,1,1,1,1,1,1,1,1,1,1,1,1,1,1,1,1,1,1,1,1,1,1,1,1,1,1,1,1,1,1,1,1,1,1,1,1,1,1,1,1,1,1,1,1,1,1],"number_of_sets":1,"coherent_direction":[355,355,355,355,355,96,96,355,355,355,355,96,96,96,355,96,96,355,355,355,355,96,355,355,355,96,96,355,96,355,355,96,355,96,96,96,355,355,96,355,96,355,96,96,355,96,355,355,96,96,96,355,96,355,355,355,355,355,355,355,355,96,96,355,355,96,355,96,355,96,96,355,355,96,355,355,355,96,96,355,96,96,96,96,355,96,355,355,96,96,96,355,355,96,96,96,96,355,355,96,96,355,355,96,96,355,355,96,355,96,96,355,96,355,355,96,355,96,355,355,96,96,355,355,355,96,96,96,96,96,355,355,96,355,355,96,355,96,96,96,96,355,355,96,355,355,96,355,355,96,355,96,355,355,96,96,96,96,96,96,355,355,355,355,96,96,96,355,355,355,96,355,355,96,96,96,355,96,355,355,96,96,96,355,355,355,96,96,96,96,96,355,96,96,96,96,96,355,96,355],"coherence":1,"opposite_coherence":0,"dot_radius":2,"dot_side_length":1,"dot_life":-1,"move_distance":1,"aperture_width":300,"aperture_height":300,"dot_color":["black","black","black","black","black","white","white","black","black","black","black","white","white","white","black","white","white","black","black","black","black","white","black","black","black","white","white","black","white","black","black","white","black","white","white","white","black","black","white","black","white","black","white","white","black","white","black","black","white","white","white","black","white","black","black","black","black","black","black","black","black","white","white","black","black","white","black","white","black","white","white","black","black","white","black","black","black","white","white","black","white","white","white","white","black","white","black","black","white","white","white","black","black","white","white","white","white","black","black","white","white","black","black","white","white","black","black","white","black","white","white","black","white","black","black","white","black","white","black","black","white","white","black","black","black","white","white","white","white","white","black","black","white","black","black","white","black","white","white","white","white","black","black","white","black","black","white","black","black","white","black","white","black","black","white","white","white","white","white","white","black","black","black","black","white","white","white","black","black","black","white","black","black","white","white","white","black","white","black","black","white","white","white","black","black","black","white","white","white","white","white","black","white","white","white","white","white","black","white","black"],"dot_shape":"circle","background_color":"#AAA","RDK_type":3,"aperture_type":2,"reinsert_type":2,"frame_rate":5.916666666666667,"frame_rate_array":[4,6,6,6,6,6,6,5,6,6,6,6,6,6,6,5,6,6,6,6,6,6,6,6,6,6,6,6,6,5,6,6,5,6,6,6,6,6,6,5,6,6,6,6,6,6,6,6,6,6,6,6,6,6,6,6,6,5,6,6,6,6,6,6,6,6,6,6,6,6,6,6,6,6,6,6,6,6,6,6,6,6,6,6,6,6,6,6,6,6,6,6,6,6,6,6,6,6,6,6,6,6,6,6,6,6,6,6,6,6,6,6,6,5,6,6,6,6,6,6,6,6,6,6,6,6,6,5,6,6,6,6,6,6,6,5,6,6,6,6,6,6,5,6,6,6,6,6,6,5,6,6,6,6,6,6,6,6,6,6,6,6,6,6,6,6,6,6,6,6,6,6,6,6,6,6,6,6,5,6,6,6,6,6,6,6,6,6,6,6,6,6,5,6,6,6,6,6,6,5,6,6,6,6,6,6,6,6,6,6,5,6,6,6,6,6,6,6,5,6,6,6,6,6,5,6,6,6,6,6,6,6,6,6,6,6,5,6,6,6,6,6,5,6,6,6,6,6,6,6,6,6,5,6,6,6,6,6,6,6,6,6,6,6,5,6,6,6,6,6,6,6,6,6,6,6,6,6,6,6,6,6,5,6,6,6,6,5,6,6,6,6,6,6,6,5,6,6,6,6,6,6,5,6,6,6,6,5,6,6,6,6,6,6,6,6,6,6,6,6,6,6,6,6,6,6,6,6,6,6,6,6,6,6,6,6,6,6,6,6,6,6,6,6,6,6,6,6,6,6,6,6,6,6,6,6,5,6,5,6],"number_of_frames":360,"aperture_center_x":960,"aperture_center_y":540,"fixation_cross":true,"fixation_cross_width":15,"fixation_cross_height":15,"fixation_cross_color":"#111","fixation_cross_thickness":1,"border":true,"border_thickness":2,"border_color":"transparent","canvas_width":1920,"canvas_height":1080,"trial_type":"rdk","trial_index":44,"plugin_version":"2.0.0","time_elapsed":110505},{"rt":1226,"stimulus":"\n        <div class=\"response-container\">\n          <div class=\"response-instruction\">\n            <p>rotate the bar by using the left and right arrow keys.</p>\n            <p>when you are determined, press the Enter key.</p>\n          </div>\n          <div class=\"response-circle\">\n            <div class=\"response-fixation\"></div>\n            <div id=\"bar\" class=\"rotating-bar\"></div>\n          </div>\n        </div>\n      ","response":"Enter","trial_type":"html-keyboard-response","trial_index":45,"plugin_version":"2.1.0","time_elapsed":111732,"response_angle_css":57,"response_angle_rdk":33,"angular_error_target":-63,"angular_error_distractor":38,"target_direction":96,"target_group":"white","reward_points":0},{"rt":null,"stimulus":"\n          <p style=\"color: #FF3333;\">Your reward: 0 points</p>\n        ","response":null,"trial_type":"html-keyboard-response","trial_index":46,"plugin_version":"2.1.0","time_elapsed":113744},{"rt":null,"stimulus":"<div class=\"fixation\" style=\"font-size: 60px;\">+</div>","response":null,"trial_type":"html-keyboard-response","trial_index":47,"plugin_version":"2.1.0","time_elapsed":114757},{"target_group":"black","condition_label":"B_H_vs_W_L_rep9","target_direction":203,"distractor_direction":298,"session_rotation":79,"rt":-1,"response":"","correct":false,"choices":"ALL_KEYS","correct_choice":["a"],"trial_duration":2000,"flip_timestamps":[],"response_ends_trial":false,"number_of_apertures":200,"number_of_dots":[1,1,1,1,1,1,1,1,1,1,1,1,1,1,1,1,1,1,1,1,1,1,1,1,1,1,1,1,1,1,1,1,1,1,1,1,1,1,1,1,1,1,1,1,1,1,1,1,1,1,1,1,1,1,1,1,1,1,1,1,1,1,1,1,1,1,1,1,1,1,1,1,1,1,1,1,1,1,1,1,1,1,1,1,1,1,1,1,1,1,1,1,1,1,1,1,1,1,1,1,1,1,1,1,1,1,1,1,1,1,1,1,1,1,1,1,1,1,1,1,1,1,1,1,1,1,1,1,1,1,1,1,1,1,1,1,1,1,1,1,1,1,1,1,1,1,1,1,1,1,1,1,1,1,1,1,1,1,1,1,1,1,1,1,1,1,1,1,1,1,1,1,1,1,1,1,1,1,1,1,1,1,1,1,1,1,1,1,1,1,1,1,1,1,1,1,1,1,1,1],"number_of_sets":1,"coherent_direction":[298,203,203,298,298,298,203,203,298,298,298,203,298,203,298,203,203,203,203,203,203,203,203,203,298,298,203,203,203,298,298,298,203,203,298,298,203,203,203,298,298,203,298,298,203,298,203,203,298,203,203,203,203,298,298,298,298,298,203,203,203,298,203,203,298,298,298,298,298,298,298,203,203,298,203,298,298,203,203,298,298,203,298,298,203,203,298,203,203,298,203,203,203,203,203,298,203,203,298,298,298,298,203,298,203,298,298,298,203,298,298,203,298,298,298,203,203,298,298,203,298,298,203,298,298,203,298,203,203,298,298,203,203,203,203,298,203,298,298,203,203,298,298,203,298,203,203,298,203,203,203,298,298,298,203,298,298,203,298,203,298,298,203,298,203,298,203,203,298,298,203,203,298,203,298,203,203,298,298,298,203,298,298,203,203,203,203,298,203,203,203,203,298,203,203,298,298,298,298,298],"coherence":1,"opposite_coherence":0,"dot_radius":2,"dot_side_length":1,"dot_life":-1,"move_distance":1,"aperture_width":300,"aperture_height":300,"dot_color":["white","black","black","white","white","white","black","black","white","white","white","black","white","black","white","black","black","black","black","black","black","black","black","black","white","white","black","black","black","white","white","white","black","black","white","white","black","black","black","white","white","black","white","white","black","white","black","black","white","black","black","black","black","white","white","white","white","white","black","black","black","white","black","black","white","white","white","white","white","white","white","black","black","white","black","white","white","black","black","white","white","black","white","white","black","black","white","black","black","white","black","black","black","black","black","white","black","black","white","white","white","white","black","white","black","white","white","white","black","white","white","black","white","white","white","black","black","white","white","black","white","white","black","white","white","black","white","black","black","white","white","black","black","black","black","white","black","white","white","black","black","white","white","black","white","black","black","white","black","black","black","white","white","white","black","white","white","black","white","black","white","white","black","white","black","white","black","black","white","white","black","black","white","black","white","black","black","white","white","white","black","white","white","black","black","black","black","white","black","black","black","black","white","black","black","white","white","white","white","white"],"dot_shape":"circle","background_color":"#AAA","RDK_type":3,"aperture_type":2,"reinsert_type":2,"frame_rate":5.977777777777778,"frame_rate_array":[6,5,6,6,6,6,6,6,6,6,6,6,6,6,6,6,6,6,6,6,6,6,6,6,6,6,6,6,6,6,6,6,6,6,6,6,6,6,6,6,6,6,6,6,6,6,6,6,6,6,6,6,6,6,6,6,6,6,6,6,6,6,6,6,6,6,6,6,6,6,6,6,6,6,6,6,6,6,6,6,6,6,6,6,6,5,6,6,6,6,6,6,6,6,6,6,6,6,6,6,6,6,6,6,6,6,6,6,6,6,6,6,6,6,6,6,6,6,6,6,6,6,6,6,6,6,6,6,6,6,6,6,6,6,6,6,6,6,6,6,6,6,6,6,6,6,6,6,6,6,6,6,6,6,6,6,6,6,6,6,6,5,6,6,6,6,6,6,6,6,6,6,6,6,6,6,6,6,6,6,6,6,5,6,6,6,6,6,6,6,6,6,6,6,6,5,6,6,6,6,6,6,6,6,6,6,6,6,6,6,5,6,6,6,6,6,6,6,6,6,6,6,6,6,6,6,6,6,6,6,6,6,6,6,6,6,6,6,6,6,6,6,6,6,6,6,6,6,6,6,6,6,6,6,5,6,6,6,6,6,6,6,6,6,6,6,6,6,6,6,6,6,6,6,6,6,6,6,6,6,6,6,6,6,6,6,6,6,6,6,6,6,6,6,6,6,6,6,6,6,6,6,6,6,6,6,6,6,6,6,6,5,6,6,6,6,6,6,6,6,6,6,6,6,6,6,6,6,6,6,6,6,6,6,6,6,6,6,6,6,6,6,6,6,6,6,6,6,6,6,6,6,6,6,6,6,6,6,6,6],"number_of_frames":360,"aperture_center_x":960,"aperture_center_y":540,"fixation_cross":true,"fixation_cross_width":15,"fixation_cross_height":15,"fixation_cross_color":"#111","fixation_cross_thickness":1,"border":true,"border_thickness":2,"border_color":"transparent","canvas_width":1920,"canvas_height":1080,"trial_type":"rdk","trial_index":48,"plugin_version":"2.0.0","time_elapsed":116765},{"rt":3320,"stimulus":"\n        <div class=\"response-container\">\n          <div class=\"response-instruction\">\n            <p>rotate the bar by using the left and right arrow keys.</p>\n            <p>when you are determined, press the Enter key.</p>\n          </div>\n          <div class=\"response-circle\">\n            <div class=\"response-fixation\"></div>\n            <div id=\"bar\" class=\"rotating-bar\"></div>\n          </div>\n        </div>\n      ","response":"Enter","trial_type":"html-keyboard-response","trial_index":49,"plugin_version":"2.1.0","time_elapsed":120085,"response_angle_css":207,"response_angle_rdk":243,"angular_error_target":40,"angular_error_distractor":-55,"target_direction":203,"target_group":"black","reward_points":1},{"rt":null,"stimulus":"\n          <p style=\"color: #FF3333;\">Your reward: 1 points</p>\n        ","response":null,"trial_type":"html-keyboard-response","trial_index":50,"plugin_version":"2.1.0","time_elapsed":122088},{"rt":null,"stimulus":"<div class=\"fixation\" style=\"font-size: 60px;\">+</div>","response":null,"trial_type":"html-keyboard-response","trial_index":51,"plugin_version":"2.1.0","time_elapsed":123090},{"target_group":"white","condition_label":"W_H_vs_B_L_rep9","target_direction":117,"distractor_direction":356,"session_rotation":79,"rt":-1,"response":"","correct":false,"choices":"ALL_KEYS","correct_choice":["a"],"trial_duration":2000,"flip_timestamps":[],"response_ends_trial":false,"number_of_apertures":200,"number_of_dots":[1,1,1,1,1,1,1,1,1,1,1,1,1,1,1,1,1,1,1,1,1,1,1,1,1,1,1,1,1,1,1,1,1,1,1,1,1,1,1,1,1,1,1,1,1,1,1,1,1,1,1,1,1,1,1,1,1,1,1,1,1,1,1,1,1,1,1,1,1,1,1,1,1,1,1,1,1,1,1,1,1,1,1,1,1,1,1,1,1,1,1,1,1,1,1,1,1,1,1,1,1,1,1,1,1,1,1,1,1,1,1,1,1,1,1,1,1,1,1,1,1,1,1,1,1,1,1,1,1,1,1,1,1,1,1,1,1,1,1,1,1,1,1,1,1,1,1,1,1,1,1,1,1,1,1,1,1,1,1,1,1,1,1,1,1,1,1,1,1,1,1,1,1,1,1,1,1,1,1,1,1,1,1,1,1,1,1,1,1,1,1,1,1,1,1,1,1,1,1,1],"number_of_sets":1,"coherent_direction":[117,356,356,117,117,356,356,356,356,356,356,117,356,117,356,356,117,117,117,356,356,117,356,117,117,117,117,117,356,117,117,117,117,117,356,356,117,117,356,356,117,356,356,356,117,356,356,117,117,117,117,117,356,356,356,117,117,356,356,117,117,117,117,356,356,356,356,117,117,117,356,117,117,356,356,117,356,117,356,356,356,356,356,356,356,356,356,356,356,117,117,356,117,117,356,117,117,356,356,356,117,117,356,356,117,117,117,356,117,117,356,117,356,117,356,117,117,117,117,117,356,117,356,117,356,117,356,117,356,356,117,117,117,356,356,117,356,356,117,356,117,117,356,117,356,117,356,356,117,117,356,117,117,356,117,117,117,356,117,117,117,356,356,117,356,117,356,117,356,356,356,356,117,117,117,356,356,117,117,356,356,117,356,356,117,356,356,356,356,117,117,356,356,356,356,117,117,117,356,117],"coherence":1,"opposite_coherence":0,"dot_radius":2,"dot_side_length":1,"dot_life":-1,"move_distance":1,"aperture_width":300,"aperture_height":300,"dot_color":["white","black","black","white","white","black","black","black","black","black","black","white","black","white","black","black","white","white","white","black","black","white","black","white","white","white","white","white","black","white","white","white","white","white","black","black","white","white","black","black","white","black","black","black","white","black","black","white","white","white","white","white","black","black","black","white","white","black","black","white","white","white","white","black","black","black","black","white","white","white","black","white","white","black","black","white","black","white","black","black","black","black","black","black","black","black","black","black","black","white","white","black","white","white","black","white","white","black","black","black","white","white","black","black","white","white","white","black","white","white","black","white","black","white","black","white","white","white","white","white","black","white","black","white","black","white","black","white","black","black","white","white","white","black","black","white","black","black","white","black","white","white","black","white","black","white","black","black","white","white","black","white","white","black","white","white","white","black","white","white","white","black","black","white","black","white","black","white","black","black","black","black","white","white","white","black","black","white","white","black","black","white","black","black","white","black","black","black","black","white","white","black","black","black","black","white","white","white","black","white"],"dot_shape":"circle","background_color":"#AAA","RDK_type":3,"aperture_type":2,"reinsert_type":2,"frame_rate":5.872222222222222,"frame_rate_array":[3,6,6,6,6,6,6,6,6,6,5,6,5,6,6,6,6,6,6,6,6,6,6,5,6,6,6,6,6,6,6,5,6,6,6,6,6,6,5,6,5,6,6,6,6,6,6,6,6,6,5,6,6,6,6,6,6,6,5,6,6,6,5,6,6,6,6,6,5,6,6,6,6,6,6,6,6,6,6,6,5,6,6,6,6,6,6,5,6,5,6,6,6,6,6,6,6,6,5,6,6,6,6,6,6,6,6,6,6,6,6,6,5,6,5,6,6,6,5,6,6,6,6,6,6,5,6,5,6,5,6,6,6,5,6,6,6,6,6,6,6,6,6,6,6,5,6,6,5,6,6,6,5,6,6,6,6,5,6,6,6,6,6,6,6,6,6,6,6,5,6,6,6,6,6,6,6,6,6,6,6,6,6,6,5,6,6,6,6,6,6,6,6,5,6,6,6,6,6,6,6,6,6,5,6,6,6,6,6,6,6,6,6,6,6,6,6,6,6,6,6,6,6,5,6,6,5,6,6,6,6,6,6,6,6,6,5,6,6,6,6,6,6,5,6,6,6,6,6,6,6,6,6,6,5,6,6,6,6,6,6,6,6,6,6,6,6,6,5,6,6,5,6,6,6,6,6,6,6,6,6,6,5,6,6,6,6,6,6,6,6,6,6,6,5,6,6,6,6,5,6,6,6,6,6,6,6,6,6,6,6,6,6,6,6,6,6,6,6,6,6,6,6,6,6,6,6,6,5,6,6,6,6,6,6,6,5,6,5,6,6,6,6,6,5,6,6,6,6,6,6,6,6,6,6,6,6,6,6,6],"number_of_frames":360,"aperture_center_x":960,"aperture_center_y":540,"fixation_cross":true,"fixation_cross_width":15,"fixation_cross_height":15,"fixation_cross_color":"#111","fixation_cross_thickness":1,"border":true,"border_thickness":2,"border_color":"transparent","canvas_width":1920,"canvas_height":1080,"trial_type":"rdk","trial_index":52,"plugin_version":"2.0.0","time_elapsed":125094},{"rt":947,"stimulus":"\n        <div class=\"response-container\">\n          <div class=\"response-instruction\">\n            <p>rotate the bar by using the left and right arrow keys.</p>\n            <p>when you are determined, press the Enter key.</p>\n          </div>\n          <div class=\"response-circle\">\n            <div class=\"response-fixation\"></div>\n            <div id=\"bar\" class=\"rotating-bar\"></div>\n          </div>\n        </div>\n      ","response":"Enter","trial_type":"html-keyboard-response","trial_index":53,"plugin_version":"2.1.0","time_elapsed":126041,"response_angle_css":4,"response_angle_rdk":86,"angular_error_target":-31,"angular_error_distractor":90,"target_direction":117,"target_group":"white","reward_points":3},{"rt":null,"stimulus":"\n          <p style=\"color: #00FF00;\">Your reward: 3 points</p>\n        ","response":null,"trial_type":"html-keyboard-response","trial_index":54,"plugin_version":"2.1.0","time_elapsed":128049},{"rt":null,"stimulus":"<div class=\"fixation\" style=\"font-size: 60px;\">+</div>","response":null,"trial_type":"html-keyboard-response","trial_index":55,"plugin_version":"2.1.0","time_elapsed":129051},{"target_group":"black","condition_label":"B_H_vs_W_L_rep7","target_direction":177,"distractor_direction":294,"session_rotation":79,"rt":-1,"response":"","correct":false,"choices":"ALL_KEYS","correct_choice":["a"],"trial_duration":2000,"flip_timestamps":[],"response_ends_trial":false,"number_of_apertures":200,"number_of_dots":[1,1,1,1,1,1,1,1,1,1,1,1,1,1,1,1,1,1,1,1,1,1,1,1,1,1,1,1,1,1,1,1,1,1,1,1,1,1,1,1,1,1,1,1,1,1,1,1,1,1,1,1,1,1,1,1,1,1,1,1,1,1,1,1,1,1,1,1,1,1,1,1,1,1,1,1,1,1,1,1,1,1,1,1,1,1,1,1,1,1,1,1,1,1,1,1,1,1,1,1,1,1,1,1,1,1,1,1,1,1,1,1,1,1,1,1,1,1,1,1,1,1,1,1,1,1,1,1,1,1,1,1,1,1,1,1,1,1,1,1,1,1,1,1,1,1,1,1,1,1,1,1,1,1,1,1,1,1,1,1,1,1,1,1,1,1,1,1,1,1,1,1,1,1,1,1,1,1,1,1,1,1,1,1,1,1,1,1,1,1,1,1,1,1,1,1,1,1,1,1],"number_of_sets":1,"coherent_direction":[294,294,294,177,177,177,177,177,177,177,177,177,294,294,177,294,294,294,294,177,294,177,177,294,294,177,177,294,294,177,177,177,294,177,177,294,294,177,177,294,294,294,177,294,177,177,177,294,294,177,177,177,177,177,177,294,294,177,294,294,177,294,294,294,294,294,294,294,177,177,177,177,294,294,294,177,294,294,294,294,294,294,177,177,294,294,294,177,177,177,294,294,294,177,177,294,177,177,294,177,294,177,294,294,177,177,177,294,294,294,294,294,177,294,294,294,177,294,177,177,177,294,294,177,177,177,177,294,177,294,177,177,177,177,294,177,294,177,294,177,294,294,177,177,294,177,294,294,177,177,177,294,177,177,177,294,294,177,294,294,294,294,294,294,177,294,177,177,294,177,177,177,294,294,177,294,177,177,294,177,294,294,294,177,177,177,177,177,294,177,294,177,294,294,294,294,177,294,177,177],"coherence":1,"opposite_coherence":0,"dot_radius":2,"dot_side_length":1,"dot_life":-1,"move_distance":1,"aperture_width":300,"aperture_height":300,"dot_color":["white","white","white","black","black","black","black","black","black","black","black","black","white","white","black","white","white","white","white","black","white","black","black","white","white","black","black","white","white","black","black","black","white","black","black","white","white","black","black","white","white","white","black","white","black","black","black","white","white","black","black","black","black","black","black","white","white","black","white","white","black","white","white","white","white","white","white","white","black","black","black","black","white","white","white","black","white","white","white","white","white","white","black","black","white","white","white","black","black","black","white","white","white","black","black","white","black","black","white","black","white","black","white","white","black","black","black","white","white","white","white","white","black","white","white","white","black","white","black","black","black","white","white","black","black","black","black","white","black","white","black","black","black","black","white","black","white","black","white","black","white","white","black","black","white","black","white","white","black","black","black","white","black","black","black","white","white","black","white","white","white","white","white","white","black","white","black","black","white","black","black","black","white","white","black","white","black","black","white","black","white","white","white","black","black","black","black","black","white","black","white","black","white","white","white","white","black","white","black","black"],"dot_shape":"circle","background_color":"#AAA","RDK_type":3,"aperture_type":2,"reinsert_type":2,"frame_rate":5.891666666666667,"frame_rate_array":[3,6,6,6,6,5,6,6,6,6,6,6,6,6,6,5,6,6,6,6,6,6,6,6,5,6,6,6,5,6,6,6,6,6,6,6,6,6,6,6,6,6,6,5,6,6,6,5,6,6,6,6,6,6,6,6,6,6,6,6,6,6,6,6,6,6,6,6,6,6,6,6,6,6,6,5,6,6,6,6,6,6,6,6,6,6,6,6,6,6,6,6,6,6,6,5,6,6,6,6,6,6,5,6,6,5,6,6,8,3,6,5,6,6,6,5,6,6,5,6,6,6,6,6,6,6,6,6,6,6,6,6,6,6,6,6,6,6,6,6,6,6,6,6,6,6,6,6,5,6,5,6,6,6,6,6,5,6,6,6,6,6,6,6,6,6,5,6,6,6,6,5,6,6,6,6,6,6,6,6,6,6,6,6,6,6,5,6,6,6,5,6,6,6,6,5,6,6,6,6,6,6,6,6,6,6,6,6,6,6,6,6,6,5,6,5,6,6,6,6,5,6,6,6,6,6,6,6,5,6,6,6,6,6,6,6,6,5,6,6,5,6,6,6,6,5,6,6,6,6,6,6,6,6,5,6,6,6,6,6,6,6,6,6,6,6,6,6,6,6,6,6,6,6,5,6,6,6,6,6,6,6,6,6,6,6,6,6,6,6,6,6,6,5,6,6,6,6,6,6,6,6,6,6,6,6,6,6,6,6,6,6,6,6,6,6,6,6,6,6,6,6,5,6,6,5,6,6,6,6,6,6,5,6,6,6,5,6,6,6,6,6,6,6,6,6,6,6,6,6,6,6,6,6,6,6,6,6,6,6],"number_of_frames":360,"aperture_center_x":960,"aperture_center_y":540,"fixation_cross":true,"fixation_cross_width":15,"fixation_cross_height":15,"fixation_cross_color":"#111","fixation_cross_thickness":1,"border":true,"border_thickness":2,"border_color":"transparent","canvas_width":1920,"canvas_height":1080,"trial_type":"rdk","trial_index":56,"plugin_version":"2.0.0","time_elapsed":131055},{"rt":1048,"stimulus":"\n        <div class=\"response-container\">\n          <div class=\"response-instruction\">\n            <p>rotate the bar by using the left and right arrow keys.</p>\n            <p>when you are determined, press the Enter key.</p>\n          </div>\n          <div class=\"response-circle\">\n            <div class=\"response-fixation\"></div>\n            <div id=\"bar\" class=\"rotating-bar\"></div>\n          </div>\n        </div>\n      ","response":"Enter","trial_type":"html-keyboard-response","trial_index":57,"plugin_version":"2.1.0","time_elapsed":132104,"response_angle_css":225,"response_angle_rdk":225,"angular_error_target":48,"angular_error_distractor":-69,"target_direction":177,"target_group":"black","reward_points":0},{"rt":null,"stimulus":"\n          <p style=\"color: #FF3333;\">Your reward: 0 points</p>\n        ","response":null,"trial_type":"html-keyboard-response","trial_index":58,"plugin_version":"2.1.0","time_elapsed":134105},{"rt":null,"stimulus":"<div class=\"fixation\" style=\"font-size: 60px;\">+</div>","response":null,"trial_type":"html-keyboard-response","trial_index":59,"plugin_version":"2.1.0","time_elapsed":135113},{"target_group":"black","condition_label":"B_H_vs_W_L_rep15","target_direction":197,"distractor_direction":301,"session_rotation":79,"rt":-1,"response":"","correct":false,"choices":"ALL_KEYS","correct_choice":["a"],"trial_duration":2000,"flip_timestamps":[],"response_ends_trial":false,"number_of_apertures":200,"number_of_dots":[1,1,1,1,1,1,1,1,1,1,1,1,1,1,1,1,1,1,1,1,1,1,1,1,1,1,1,1,1,1,1,1,1,1,1,1,1,1,1,1,1,1,1,1,1,1,1,1,1,1,1,1,1,1,1,1,1,1,1,1,1,1,1,1,1,1,1,1,1,1,1,1,1,1,1,1,1,1,1,1,1,1,1,1,1,1,1,1,1,1,1,1,1,1,1,1,1,1,1,1,1,1,1,1,1,1,1,1,1,1,1,1,1,1,1,1,1,1,1,1,1,1,1,1,1,1,1,1,1,1,1,1,1,1,1,1,1,1,1,1,1,1,1,1,1,1,1,1,1,1,1,1,1,1,1,1,1,1,1,1,1,1,1,1,1,1,1,1,1,1,1,1,1,1,1,1,1,1,1,1,1,1,1,1,1,1,1,1,1,1,1,1,1,1,1,1,1,1,1,1],"number_of_sets":1,"coherent_direction":[197,197,197,301,197,197,301,301,301,197,301,197,301,301,301,301,301,301,301,197,301,301,197,197,197,301,301,301,197,301,301,197,197,197,301,301,197,197,301,301,197,301,197,301,197,197,301,301,197,301,197,301,197,197,301,301,301,197,301,197,197,197,301,301,301,301,197,301,301,197,197,197,301,197,301,197,301,301,197,301,197,301,301,197,301,301,197,301,301,197,197,197,301,301,197,197,301,301,301,197,301,197,197,301,197,197,301,197,197,197,301,197,301,301,197,197,197,301,301,301,301,197,301,197,197,197,301,301,197,301,197,301,197,197,197,301,197,197,301,197,301,197,197,301,197,197,301,197,197,301,197,301,197,301,197,197,301,301,197,197,301,301,301,197,301,197,197,197,197,301,197,197,197,301,197,301,301,301,197,301,301,301,197,197,197,197,301,197,197,301,197,301,301,301,301,301,197,197,197,301],"coherence":1,"opposite_coherence":0,"dot_radius":2,"dot_side_length":1,"dot_life":-1,"move_distance":1,"aperture_width":300,"aperture_height":300,"dot_color":["black","black","black","white","black","black","white","white","white","black","white","black","white","white","white","white","white","white","white","black","white","white","black","black","black","white","white","white","black","white","white","black","black","black","white","white","black","black","white","white","black","white","black","white","black","black","white","white","black","white","black","white","black","black","white","white","white","black","white","black","black","black","white","white","white","white","black","white","white","black","black","black","white","black","white","black","white","white","black","white","black","white","white","black","white","white","black","white","white","black","black","black","white","white","black","black","white","white","white","black","white","black","black","white","black","black","white","black","black","black","white","black","white","white","black","black","black","white","white","white","white","black","white","black","black","black","white","white","black","white","black","white","black","black","black","white","black","black","white","black","white","black","black","white","black","black","white","black","black","white","black","white","black","white","black","black","white","white","black","black","white","white","white","black","white","black","black","black","black","white","black","black","black","white","black","white","white","white","black","white","white","white","black","black","black","black","white","black","black","white","black","white","white","white","white","white","black","black","black","white"],"dot_shape":"circle","background_color":"#AAA","RDK_type":3,"aperture_type":2,"reinsert_type":2,"frame_rate":5.980555555555555,"frame_rate_array":[4,6,6,6,6,6,6,6,6,6,6,6,6,6,6,6,6,6,6,6,6,6,6,6,6,6,6,6,6,6,6,6,6,6,6,6,6,6,6,6,6,6,6,6,6,6,6,6,6,6,6,6,6,6,6,6,6,6,6,6,6,6,6,6,6,6,6,6,6,6,6,6,6,6,6,6,6,6,6,6,6,6,6,6,6,6,6,6,6,6,6,6,6,5,6,6,6,6,6,6,6,6,6,6,6,6,6,6,6,6,6,6,6,6,6,6,6,6,6,6,6,6,6,6,6,6,6,6,6,6,5,6,6,6,6,6,6,6,6,6,6,6,6,6,6,6,6,6,6,6,6,6,6,6,6,6,6,6,6,6,6,6,6,6,6,6,6,5,6,6,6,6,6,6,6,6,6,6,6,6,6,6,6,6,6,6,6,6,6,6,6,6,6,6,6,6,6,6,6,6,6,5,6,6,6,6,6,6,6,6,6,6,6,6,6,6,6,6,6,6,6,6,6,6,6,6,6,6,6,6,6,6,6,6,6,6,6,6,6,6,6,6,6,6,6,6,6,6,6,6,6,6,6,6,6,6,6,6,6,6,6,6,6,6,6,6,6,6,6,6,6,6,6,6,6,6,6,6,6,6,6,6,6,6,6,6,6,6,6,6,6,6,6,5,6,6,6,6,6,6,6,6,6,6,6,6,6,6,6,6,6,6,6,6,6,6,6,6,6,6,6,6,6,6,6,6,6,6,6,6,6,6,6,6,6,6,6,6,6,6,6,6,6,6,6,6,6,6,6,6,6,6,6,6,6,6,6,6,6,6],"number_of_frames":360,"aperture_center_x":960,"aperture_center_y":540,"fixation_cross":true,"fixation_cross_width":15,"fixation_cross_height":15,"fixation_cross_color":"#111","fixation_cross_thickness":1,"border":true,"border_thickness":2,"border_color":"transparent","canvas_width":1920,"canvas_height":1080,"trial_type":"rdk","trial_index":60,"plugin_version":"2.0.0","time_elapsed":137117},{"rt":1226,"stimulus":"\n        <div class=\"response-container\">\n          <div class=\"response-instruction\">\n            <p>rotate the bar by using the left and right arrow keys.</p>\n            <p>when you are determined, press the Enter key.</p>\n          </div>\n          <div class=\"response-circle\">\n            <div class=\"response-fixation\"></div>\n            <div id=\"bar\" class=\"rotating-bar\"></div>\n          </div>\n        </div>\n      ","response":"Enter","trial_type":"html-keyboard-response","trial_index":61,"plugin_version":"2.1.0","time_elapsed":138342,"response_angle_css":209,"response_angle_rdk":241,"angular_error_target":44,"angular_error_distractor":-60,"target_direction":197,"target_group":"black","reward_points":1},{"rt":null,"stimulus":"\n          <p style=\"color: #FF3333;\">Your reward: 1 points</p>\n        ","response":null,"trial_type":"html-keyboard-response","trial_index":62,"plugin_version":"2.1.0","time_elapsed":140350},{"rt":null,"stimulus":"<div class=\"fixation\" style=\"font-size: 60px;\">+</div>","response":null,"trial_type":"html-keyboard-response","trial_index":63,"plugin_version":"2.1.0","time_elapsed":141352},{"target_group":"white","condition_label":"W_H_vs_B_L_rep20","target_direction":89,"distractor_direction":350,"session_rotation":79,"rt":-1,"response":"","correct":false,"choices":"ALL_KEYS","correct_choice":["a"],"trial_duration":2000,"flip_timestamps":[],"response_ends_trial":false,"number_of_apertures":200,"number_of_dots":[1,1,1,1,1,1,1,1,1,1,1,1,1,1,1,1,1,1,1,1,1,1,1,1,1,1,1,1,1,1,1,1,1,1,1,1,1,1,1,1,1,1,1,1,1,1,1,1,1,1,1,1,1,1,1,1,1,1,1,1,1,1,1,1,1,1,1,1,1,1,1,1,1,1,1,1,1,1,1,1,1,1,1,1,1,1,1,1,1,1,1,1,1,1,1,1,1,1,1,1,1,1,1,1,1,1,1,1,1,1,1,1,1,1,1,1,1,1,1,1,1,1,1,1,1,1,1,1,1,1,1,1,1,1,1,1,1,1,1,1,1,1,1,1,1,1,1,1,1,1,1,1,1,1,1,1,1,1,1,1,1,1,1,1,1,1,1,1,1,1,1,1,1,1,1,1,1,1,1,1,1,1,1,1,1,1,1,1,1,1,1,1,1,1,1,1,1,1,1,1],"number_of_sets":1,"coherent_direction":[89,350,89,350,89,89,89,89,350,350,89,89,89,350,89,350,350,89,350,350,89,89,350,89,350,89,89,89,350,89,350,350,89,89,89,350,350,89,350,350,350,89,89,350,89,89,89,350,89,89,350,89,89,89,350,350,350,89,89,350,89,89,89,89,89,350,350,89,89,89,89,350,350,350,350,89,350,89,89,350,350,89,89,350,350,350,350,350,89,350,350,350,89,350,89,89,89,350,350,350,89,89,350,89,89,89,350,89,89,350,350,350,350,350,89,350,89,350,350,350,89,89,89,350,350,89,89,350,350,350,89,89,350,350,89,89,89,350,350,350,350,89,350,89,350,350,350,350,89,89,89,350,350,350,350,89,89,350,350,350,89,89,89,350,350,350,89,89,350,89,89,89,350,350,89,350,350,89,350,350,89,89,350,350,89,89,350,350,350,89,89,350,89,89,350,89,350,89,350,89],"coherence":1,"opposite_coherence":0,"dot_radius":2,"dot_side_length":1,"dot_life":-1,"move_distance":1,"aperture_width":300,"aperture_height":300,"dot_color":["white","black","white","black","white","white","white","white","black","black","white","white","white","black","white","black","black","white","black","black","white","white","black","white","black","white","white","white","black","white","black","black","white","white","white","black","black","white","black","black","black","white","white","black","white","white","white","black","white","white","black","white","white","white","black","black","black","white","white","black","white","white","white","white","white","black","black","white","white","white","white","black","black","black","black","white","black","white","white","black","black","white","white","black","black","black","black","black","white","black","black","black","white","black","white","white","white","black","black","black","white","white","black","white","white","white","black","white","white","black","black","black","black","black","white","black","white","black","black","black","white","white","white","black","black","white","white","black","black","black","white","white","black","black","white","white","white","black","black","black","black","white","black","white","black","black","black","black","white","white","white","black","black","black","black","white","white","black","black","black","white","white","white","black","black","black","white","white","black","white","white","white","black","black","white","black","black","white","black","black","white","white","black","black","white","white","black","black","black","white","white","black","white","white","black","white","black","white","black","white"],"dot_shape":"circle","background_color":"#AAA","RDK_type":3,"aperture_type":2,"reinsert_type":2,"frame_rate":5.969444444444444,"frame_rate_array":[3,6,6,6,6,6,6,6,6,6,6,6,6,6,6,6,6,6,6,6,6,6,6,6,5,6,6,6,6,6,6,6,6,6,6,6,6,6,6,6,6,6,6,6,6,6,6,6,6,6,6,6,5,6,6,6,6,6,6,6,6,6,6,6,6,6,6,6,6,6,6,6,6,6,6,6,6,6,6,6,6,6,6,6,6,6,5,6,6,6,6,6,6,6,6,6,6,6,6,6,6,6,6,6,6,6,6,6,6,6,6,6,6,6,6,6,6,6,6,6,6,6,6,6,6,6,6,6,6,5,6,6,6,6,6,6,6,6,6,6,6,6,6,6,6,5,6,6,6,6,6,6,6,6,6,6,6,6,6,6,6,6,6,6,6,6,6,6,6,6,6,6,6,6,6,6,6,6,6,6,6,6,6,6,6,6,6,6,6,6,6,6,6,6,6,6,6,6,6,6,6,6,6,6,6,6,6,6,6,6,6,6,6,6,6,6,6,6,6,6,6,6,5,6,6,6,6,6,6,6,6,6,6,6,6,6,6,6,6,6,6,6,6,6,6,6,6,6,6,6,5,6,6,6,6,6,6,6,5,6,6,6,6,6,6,6,6,6,6,6,6,6,6,6,6,6,6,6,6,6,6,6,6,6,6,6,6,6,6,6,6,6,6,6,6,6,6,6,6,6,6,6,6,6,6,6,6,6,6,6,6,6,6,6,6,6,6,6,6,6,6,6,6,6,6,6,6,6,6,6,6,6,6,6,6,6,6,6,6,6,6,6,6,6,6,6,6,6,6,6,6,6,6,6,6,6,6,6,6,6],"number_of_frames":360,"aperture_center_x":960,"aperture_center_y":540,"fixation_cross":true,"fixation_cross_width":15,"fixation_cross_height":15,"fixation_cross_color":"#111","fixation_cross_thickness":1,"border":true,"border_thickness":2,"border_color":"transparent","canvas_width":1920,"canvas_height":1080,"trial_type":"rdk","trial_index":64,"plugin_version":"2.0.0","time_elapsed":143356},{"rt":1092,"stimulus":"\n        <div class=\"response-container\">\n          <div class=\"response-instruction\">\n            <p>rotate the bar by using the left and right arrow keys.</p>\n            <p>when you are determined, press the Enter key.</p>\n          </div>\n          <div class=\"response-circle\">\n            <div class=\"response-fixation\"></div>\n            <div id=\"bar\" class=\"rotating-bar\"></div>\n          </div>\n        </div>\n      ","response":"Enter","trial_type":"html-keyboard-response","trial_index":65,"plugin_version":"2.1.0","time_elapsed":144448,"response_angle_css":368,"response_angle_rdk":82,"angular_error_target":-7,"angular_error_distractor":92,"target_direction":89,"target_group":"white","reward_points":8},{"rt":null,"stimulus":"\n          <p style=\"color: #00FF00;\">Your reward: 8 points</p>\n        ","response":null,"trial_type":"html-keyboard-response","trial_index":66,"plugin_version":"2.1.0","time_elapsed":146456},{"rt":null,"stimulus":"<div class=\"fixation\" style=\"font-size: 60px;\">+</div>","response":null,"trial_type":"html-keyboard-response","trial_index":67,"plugin_version":"2.1.0","time_elapsed":147458},{"target_group":"white","condition_label":"W_H_vs_B_L_rep4","target_direction":99,"distractor_direction":4,"session_rotation":79,"rt":-1,"response":"","correct":false,"choices":"ALL_KEYS","correct_choice":["a"],"trial_duration":2000,"flip_timestamps":[],"response_ends_trial":false,"number_of_apertures":200,"number_of_dots":[1,1,1,1,1,1,1,1,1,1,1,1,1,1,1,1,1,1,1,1,1,1,1,1,1,1,1,1,1,1,1,1,1,1,1,1,1,1,1,1,1,1,1,1,1,1,1,1,1,1,1,1,1,1,1,1,1,1,1,1,1,1,1,1,1,1,1,1,1,1,1,1,1,1,1,1,1,1,1,1,1,1,1,1,1,1,1,1,1,1,1,1,1,1,1,1,1,1,1,1,1,1,1,1,1,1,1,1,1,1,1,1,1,1,1,1,1,1,1,1,1,1,1,1,1,1,1,1,1,1,1,1,1,1,1,1,1,1,1,1,1,1,1,1,1,1,1,1,1,1,1,1,1,1,1,1,1,1,1,1,1,1,1,1,1,1,1,1,1,1,1,1,1,1,1,1,1,1,1,1,1,1,1,1,1,1,1,1,1,1,1,1,1,1,1,1,1,1,1,1],"number_of_sets":1,"coherent_direction":[4,4,4,99,4,99,4,4,99,4,99,99,4,4,99,99,4,99,99,99,99,4,99,4,4,4,99,99,4,4,99,4,4,4,4,4,99,99,4,4,4,4,99,99,99,4,4,99,4,4,99,4,99,99,4,99,99,4,4,4,99,99,4,99,4,4,99,99,99,99,99,4,99,99,4,4,4,99,99,4,99,4,4,4,4,4,99,99,99,4,99,99,99,99,99,4,99,99,4,4,4,99,4,4,99,99,99,99,99,99,99,99,99,99,99,4,99,99,4,4,99,4,99,4,99,4,4,99,99,99,99,4,4,99,4,99,4,4,99,4,4,99,99,4,4,4,4,4,4,99,4,99,4,4,4,99,99,4,4,99,99,4,99,99,99,99,4,4,4,4,4,99,99,4,4,4,99,99,99,99,99,4,4,99,4,99,4,4,4,99,4,4,4,4,99,99,4,99,99,99],"coherence":1,"opposite_coherence":0,"dot_radius":2,"dot_side_length":1,"dot_life":-1,"move_distance":1,"aperture_width":300,"aperture_height":300,"dot_color":["black","black","black","white","black","white","black","black","white","black","white","white","black","black","white","white","black","white","white","white","white","black","white","black","black","black","white","white","black","black","white","black","black","black","black","black","white","white","black","black","black","black","white","white","white","black","black","white","black","black","white","black","white","white","black","white","white","black","black","black","white","white","black","white","black","black","white","white","white","white","white","black","white","white","black","black","black","white","white","black","white","black","black","black","black","black","white","white","white","black","white","white","white","white","white","black","white","white","black","black","black","white","black","black","white","white","white","white","white","white","white","white","white","white","white","black","white","white","black","black","white","black","white","black","white","black","black","white","white","white","white","black","black","white","black","white","black","black","white","black","black","white","white","black","black","black","black","black","black","white","black","white","black","black","black","white","white","black","black","white","white","black","white","white","white","white","black","black","black","black","black","white","white","black","black","black","white","white","white","white","white","black","black","white","black","white","black","black","black","white","black","black","black","black","white","white","black","white","white","white"],"dot_shape":"circle","background_color":"#AAA","RDK_type":3,"aperture_type":2,"reinsert_type":2,"frame_rate":5.975,"frame_rate_array":[4,6,6,6,6,6,6,6,6,6,6,6,6,6,6,6,6,6,6,6,6,6,6,6,6,6,6,6,6,6,6,6,6,6,6,6,6,6,6,6,6,6,6,6,6,6,6,6,6,6,6,6,6,6,6,6,6,6,6,6,6,6,6,6,6,6,6,6,6,6,6,6,6,5,6,6,6,6,6,6,6,6,6,6,6,6,6,6,6,6,6,6,6,5,6,6,6,6,6,6,6,6,6,6,6,6,6,6,6,6,6,6,6,6,6,6,6,6,6,6,5,6,6,6,6,6,6,6,6,6,6,6,6,6,6,6,6,6,6,6,6,6,6,6,6,6,6,6,6,6,6,6,6,6,6,6,6,6,6,6,6,6,6,6,6,6,6,6,6,6,6,6,6,6,6,6,6,6,6,6,6,6,6,6,6,6,6,6,6,6,6,6,6,6,6,6,6,6,6,6,6,6,6,6,6,6,6,6,6,6,6,6,6,6,6,6,5,6,6,6,6,6,6,6,6,6,6,6,6,6,6,6,6,6,6,6,6,6,6,6,6,6,6,6,6,6,6,5,6,6,6,6,6,6,6,6,6,6,6,6,6,6,6,6,6,6,6,6,6,6,6,6,6,6,6,6,6,6,6,6,6,6,6,6,6,6,6,6,6,5,6,6,6,6,6,6,6,6,6,6,6,6,6,6,6,6,6,5,6,6,6,6,6,6,6,6,6,6,6,6,6,6,6,6,6,6,6,6,6,6,6,6,6,6,6,6,6,6,6,6,6,6,6,6,6,6,6,6,6,6,6,6,6,6,6,6,6,6,6,6],"number_of_frames":360,"aperture_center_x":960,"aperture_center_y":540,"fixation_cross":true,"fixation_cross_width":15,"fixation_cross_height":15,"fixation_cross_color":"#111","fixation_cross_thickness":1,"border":true,"border_thickness":2,"border_color":"transparent","canvas_width":1920,"canvas_height":1080,"trial_type":"rdk","trial_index":68,"plugin_version":"2.0.0","time_elapsed":149462},{"rt":1542,"stimulus":"\n        <div class=\"response-container\">\n          <div class=\"response-instruction\">\n            <p>rotate the bar by using the left and right arrow keys.</p>\n            <p>when you are determined, press the Enter key.</p>\n          </div>\n          <div class=\"response-circle\">\n            <div class=\"response-fixation\"></div>\n            <div id=\"bar\" class=\"rotating-bar\"></div>\n          </div>\n        </div>\n      ","response":"Enter","trial_type":"html-keyboard-response","trial_index":69,"plugin_version":"2.1.0","time_elapsed":151004,"response_angle_css":24,"response_angle_rdk":66,"angular_error_target":-33,"angular_error_distractor":62,"target_direction":99,"target_group":"white","reward_points":3},{"rt":null,"stimulus":"\n          <p style=\"color: #00FF00;\">Your reward: 3 points</p>\n        ","response":null,"trial_type":"html-keyboard-response","trial_index":70,"plugin_version":"2.1.0","time_elapsed":153013},{"rt":null,"stimulus":"<div class=\"fixation\" style=\"font-size: 60px;\">+</div>","response":null,"trial_type":"html-keyboard-response","trial_index":71,"plugin_version":"2.1.0","time_elapsed":154015},{"target_group":"black","condition_label":"B_H_vs_W_L_rep8","target_direction":169,"distractor_direction":273,"session_rotation":79,"rt":-1,"response":"","correct":false,"choices":"ALL_KEYS","correct_choice":["a"],"trial_duration":2000,"flip_timestamps":[],"response_ends_trial":false,"number_of_apertures":200,"number_of_dots":[1,1,1,1,1,1,1,1,1,1,1,1,1,1,1,1,1,1,1,1,1,1,1,1,1,1,1,1,1,1,1,1,1,1,1,1,1,1,1,1,1,1,1,1,1,1,1,1,1,1,1,1,1,1,1,1,1,1,1,1,1,1,1,1,1,1,1,1,1,1,1,1,1,1,1,1,1,1,1,1,1,1,1,1,1,1,1,1,1,1,1,1,1,1,1,1,1,1,1,1,1,1,1,1,1,1,1,1,1,1,1,1,1,1,1,1,1,1,1,1,1,1,1,1,1,1,1,1,1,1,1,1,1,1,1,1,1,1,1,1,1,1,1,1,1,1,1,1,1,1,1,1,1,1,1,1,1,1,1,1,1,1,1,1,1,1,1,1,1,1,1,1,1,1,1,1,1,1,1,1,1,1,1,1,1,1,1,1,1,1,1,1,1,1,1,1,1,1,1,1],"number_of_sets":1,"coherent_direction":[169,169,273,273,169,169,273,169,273,169,169,273,273,273,273,273,273,273,169,169,273,169,273,169,169,169,169,273,273,169,273,273,169,169,273,169,169,169,169,273,273,169,169,273,169,273,273,273,273,169,169,169,273,169,273,273,273,273,273,169,169,273,273,169,169,273,169,169,273,169,273,273,273,169,273,273,169,273,273,273,273,169,169,169,169,169,169,273,169,273,169,169,273,169,273,169,273,169,273,273,169,273,273,273,273,273,169,169,169,169,169,273,169,273,169,273,273,169,273,169,169,169,273,273,273,273,273,273,273,273,169,169,273,169,273,169,273,169,169,169,273,169,169,169,273,273,169,273,273,169,169,273,169,169,169,169,169,273,169,169,273,169,169,273,169,169,273,169,169,273,273,273,169,273,273,273,169,169,273,169,169,169,273,273,169,169,169,169,273,273,169,273,169,273,273,169,273,273,273,273],"coherence":1,"opposite_coherence":0,"dot_radius":2,"dot_side_length":1,"dot_life":-1,"move_distance":1,"aperture_width":300,"aperture_height":300,"dot_color":["black","black","white","white","black","black","white","black","white","black","black","white","white","white","white","white","white","white","black","black","white","black","white","black","black","black","black","white","white","black","white","white","black","black","white","black","black","black","black","white","white","black","black","white","black","white","white","white","white","black","black","black","white","black","white","white","white","white","white","black","black","white","white","black","black","white","black","black","white","black","white","white","white","black","white","white","black","white","white","white","white","black","black","black","black","black","black","white","black","white","black","black","white","black","white","black","white","black","white","white","black","white","white","white","white","white","black","black","black","black","black","white","black","white","black","white","white","black","white","black","black","black","white","white","white","white","white","white","white","white","black","black","white","black","white","black","white","black","black","black","white","black","black","black","white","white","black","white","white","black","black","white","black","black","black","black","black","white","black","black","white","black","black","white","black","black","white","black","black","white","white","white","black","white","white","white","black","black","white","black","black","black","white","white","black","black","black","black","white","white","black","white","black","white","white","black","white","white","white","white"],"dot_shape":"circle","background_color":"#AAA","RDK_type":3,"aperture_type":2,"reinsert_type":2,"frame_rate":5.977777777777778,"frame_rate_array":[4,6,6,6,6,6,6,6,6,6,6,6,6,6,6,6,6,6,5,6,6,6,6,5,6,6,6,6,6,6,6,6,6,6,6,6,6,6,6,6,6,6,6,6,6,6,6,6,6,6,6,6,6,6,6,6,6,6,6,6,6,6,6,6,6,6,6,6,6,6,6,6,6,6,6,6,6,6,6,6,6,6,6,6,6,6,6,6,6,6,6,6,6,6,6,6,6,6,6,6,6,6,6,6,6,6,5,6,6,6,6,6,6,6,6,6,6,6,6,6,6,6,6,6,6,6,6,6,6,6,6,6,6,6,6,6,6,6,6,6,6,6,6,6,6,6,6,6,6,6,6,6,6,6,6,6,6,6,6,6,6,6,6,6,6,6,6,6,6,6,6,6,6,6,6,6,6,6,6,6,6,6,6,6,6,6,6,6,6,6,6,6,6,6,6,6,6,6,6,6,6,6,6,6,6,6,6,6,6,6,6,5,6,6,6,6,6,6,6,6,5,6,6,6,6,6,6,6,6,6,6,6,6,6,6,6,6,6,6,6,6,6,6,6,6,6,6,6,6,6,6,6,6,6,6,6,6,6,6,6,6,6,6,6,6,6,6,6,6,6,6,6,6,6,6,6,6,6,6,6,6,6,6,6,6,6,6,6,6,6,6,6,6,6,6,6,6,6,6,6,6,6,6,6,6,6,6,6,6,6,6,6,6,6,6,6,6,6,6,6,6,6,6,6,6,6,6,6,6,6,6,6,6,6,6,5,6,6,6,6,6,6,6,6,6,6,6,6,6,6,6,6,6,6,6,6,6,6,6,6],"number_of_frames":360,"aperture_center_x":960,"aperture_center_y":540,"fixation_cross":true,"fixation_cross_width":15,"fixation_cross_height":15,"fixation_cross_color":"#111","fixation_cross_thickness":1,"border":true,"border_thickness":2,"border_color":"transparent","canvas_width":1920,"canvas_height":1080,"trial_type":"rdk","trial_index":72,"plugin_version":"2.0.0","time_elapsed":156019},{"rt":2790,"stimulus":"\n        <div class=\"response-container\">\n          <div class=\"response-instruction\">\n            <p>rotate the bar by using the left and right arrow keys.</p>\n            <p>when you are determined, press the Enter key.</p>\n          </div>\n          <div class=\"response-circle\">\n            <div class=\"response-fixation\"></div>\n            <div id=\"bar\" class=\"rotating-bar\"></div>\n          </div>\n        </div>\n      ","response":"Enter","trial_type":"html-keyboard-response","trial_index":73,"plugin_version":"2.1.0","time_elapsed":158809,"response_angle_css":-162,"response_angle_rdk":252,"angular_error_target":83,"angular_error_distractor":-21,"target_direction":169,"target_group":"black","reward_points":0},{"rt":null,"stimulus":"\n          <p style=\"color: #FF3333;\">Your reward: 0 points</p>\n        ","response":null,"trial_type":"html-keyboard-response","trial_index":74,"plugin_version":"2.1.0","time_elapsed":160825},{"rt":null,"stimulus":"<div class=\"fixation\" style=\"font-size: 60px;\">+</div>","response":null,"trial_type":"html-keyboard-response","trial_index":75,"plugin_version":"2.1.0","time_elapsed":161835},{"target_group":"black","condition_label":"B_H_vs_W_L_rep13","target_direction":190,"distractor_direction":290,"session_rotation":79,"rt":-1,"response":"","correct":false,"choices":"ALL_KEYS","correct_choice":["a"],"trial_duration":2000,"flip_timestamps":[],"response_ends_trial":false,"number_of_apertures":200,"number_of_dots":[1,1,1,1,1,1,1,1,1,1,1,1,1,1,1,1,1,1,1,1,1,1,1,1,1,1,1,1,1,1,1,1,1,1,1,1,1,1,1,1,1,1,1,1,1,1,1,1,1,1,1,1,1,1,1,1,1,1,1,1,1,1,1,1,1,1,1,1,1,1,1,1,1,1,1,1,1,1,1,1,1,1,1,1,1,1,1,1,1,1,1,1,1,1,1,1,1,1,1,1,1,1,1,1,1,1,1,1,1,1,1,1,1,1,1,1,1,1,1,1,1,1,1,1,1,1,1,1,1,1,1,1,1,1,1,1,1,1,1,1,1,1,1,1,1,1,1,1,1,1,1,1,1,1,1,1,1,1,1,1,1,1,1,1,1,1,1,1,1,1,1,1,1,1,1,1,1,1,1,1,1,1,1,1,1,1,1,1,1,1,1,1,1,1,1,1,1,1,1,1],"number_of_sets":1,"coherent_direction":[290,190,190,290,290,290,290,190,190,290,190,190,290,290,290,190,190,190,190,190,190,190,290,190,190,290,290,190,290,190,290,290,290,190,190,190,290,290,190,190,190,290,190,290,190,190,290,290,290,290,290,290,190,290,190,190,290,190,290,190,290,290,190,190,190,290,290,190,190,290,190,190,190,190,190,290,190,190,190,290,190,190,290,190,190,190,190,190,290,190,290,190,290,190,290,190,290,290,290,190,290,290,290,290,190,290,190,190,190,290,290,290,290,290,190,290,290,290,290,190,290,190,190,190,290,290,190,290,290,290,290,190,190,190,190,190,190,190,290,190,290,190,190,190,290,190,190,290,290,290,190,190,290,290,290,290,290,190,290,190,190,190,290,190,290,190,290,290,290,290,190,290,190,190,190,290,190,190,190,290,290,290,290,190,290,290,290,290,190,290,190,190,290,290,290,190,290,290,290,190],"coherence":1,"opposite_coherence":0,"dot_radius":2,"dot_side_length":1,"dot_life":-1,"move_distance":1,"aperture_width":300,"aperture_height":300,"dot_color":["white","black","black","white","white","white","white","black","black","white","black","black","white","white","white","black","black","black","black","black","black","black","white","black","black","white","white","black","white","black","white","white","white","black","black","black","white","white","black","black","black","white","black","white","black","black",