[{"rt":36900,"stimulus":"Welcome to the experiment. Press any key to begin.","response":"v","trial_type":"html-keyboard-response","trial_index":0,"plugin_version":"2.1.0","time_elapsed":36904},{"rt":114946,"stimulus":"\n        <div class=\"instructions-container\">\n          <h2>Instructions</h2>\n\n          <p>\n          In this experiment, you will see <strong>two Random Dot Kinematograms (RDKs)</strong> displayed simultaneously.\n          </p>\n\n          <p>\n          An RDK is a visual stimulus consisting of many small dots that move coherently in a single direction. \n          In this experiment, the dots will be either <strong>white</strong> or <strong>black</strong> \n          (see the short demo below for an example of an RDK stimulus).\n          </p>\n\n          <p>\n          On each trial, the two RDKs will move in different directions. \n          Your task is to decide <strong>which RDK appears to contain more dots</strong>.\n          </p>\n\n          <p>\n          The RDK that you judge to have more dots is called the <strong>target RDK</strong>. \n          For example, if the white RDK appears to have more dots than the black RDK, \n          you should report the motion direction of the white RDK.\n          </p>\n\n          <p>\n          After viewing the RDKs, you will rotate a bar to indicate the perceived direction of the target RDK \n          using the <strong>left</strong> and <strong>right arrow keys</strong>. \n          Press <strong>Enter</strong> when you are satisfied with your response.\n          When the bar is held down, the rotation speed increases.\n          </p>\n\n          <p>\n          You will receive points based on the <strong>accuracy of your response</strong>, \n          and your final <strong>bonus reward</strong> may depend on your overall performance. \n          Please try to respond as accurately as possible.\n          </p>\n\n          <p>\n          You will first complete <strong>16 practice trials</strong>. \n          Press the <strong>Enter</strong> key to start the practice phase.\n          </p>\n\n          <canvas id=\"instruction-demo-rdk\" width=\"200\" height=\"200\"style=\"display:block;margin:12px auto; border-radius: 50%;\"></canvas>\n        </div>\n      ","response":"Enter","trial_type":"html-keyboard-response","trial_index":1,"plugin_version":"2.1.0","time_elapsed":151852},{"rt":null,"stimulus":"<div class=\"fixation\" style=\"font-size: 60px;\">+</div>","response":null,"trial_type":"html-keyboard-response","trial_index":2,"plugin_version":"2.1.0","time_elapsed":152853},{"target_group":"white","target_index":0,"condition_label":"practice","rt":-1,"response":"","correct":false,"choices":"ALL_KEYS","correct_choice":["a"],"trial_duration":2000,"flip_timestamps":[],"response_ends_trial":false,"number_of_apertures":2,"number_of_dots":[100,72],"number_of_sets":1,"coherent_direction":[64,169],"coherence":1,"opposite_coherence":0,"dot_radius":2,"dot_side_length":1,"dot_life":-1,"move_distance":1,"aperture_width":300,"aperture_height":300,"dot_color":["white","black"],"dot_shape":"circle","background_color":"#AAA","RDK_type":3,"aperture_type":2,"reinsert_type":2,"frame_rate":16.578512396694215,"frame_rate_array":[4,5,17,16,17,16,17,17,17,16,17,17,17,17,16,17,16,18,16,17,17,17,16,17,17,17,17,17,17,17,17,16,17,17,16,17,19,14,17,17,17,17,17,17,17,17,16,17,17,17,17,17,17,17,17,16,17,17,17,16,17,16,17,17,17,17,17,17,17,17,17,17,16,17,17,16,17,17,17,16,17,17,16,17,17,16,17,16,17,17,17,17,17,17,17,16,17,17,16,17,17,17,16,17,16,17,17,16,17,17,17,16,17,17,17,17,17,16,17,17,17],"number_of_frames":121,"aperture_center_x":547,"aperture_center_y":307.5,"fixation_cross":true,"fixation_cross_width":15,"fixation_cross_height":15,"fixation_cross_color":"#111","fixation_cross_thickness":1,"border":true,"border_thickness":2,"border_color":"transparent","canvas_width":1094,"canvas_height":615,"trial_type":"rdk","trial_index":3,"plugin_version":"2.0.0","time_elapsed":154872,"phase":"practice","target_direction":64,"distractor_direction":169},{"rt":10524,"stimulus":"\n        <div class=\"response-container\">\n          <div class=\"response-instruction\">\n            <p>rotate the bar by using the left and right arrow keys.</p>\n            <p>when you are determined, press the Enter key.</p>\n          </div>\n          <div class=\"response-circle\">\n            <div class=\"response-fixation\"></div>\n            <div id=\"bar\" class=\"rotating-bar\"></div>\n          </div>\n        </div>\n      ","response":"Enter","trial_type":"html-keyboard-response","trial_index":4,"plugin_version":"2.1.0","time_elapsed":165398,"random_initial_angle":157,"response_angle_css":245,"response_angle_rdk":205,"angular_error_target":141,"angular_error_distractor":36,"target_direction":64,"target_group":"white","reward_points":0},{"rt":null,"stimulus":"\n          <p style=\"color: #FF3333;\">Your reward: 0 points</p>\n        ","response":null,"trial_type":"html-keyboard-response","trial_index":5,"plugin_version":"2.1.0","time_elapsed":167411},{"rt":null,"stimulus":"<div class=\"fixation\" style=\"font-size: 60px;\">+</div>","response":null,"trial_type":"html-keyboard-response","trial_index":6,"plugin_version":"2.1.0","time_elapsed":168427},{"target_group":"white","target_index":0,"condition_label":"practice","rt":-1,"response":"","correct":false,"choices":"ALL_KEYS","correct_choice":["a"],"trial_duration":2000,"flip_timestamps":[],"response_ends_trial":false,"number_of_apertures":2,"number_of_dots":[100,95],"number_of_sets":1,"coherent_direction":[144,28],"coherence":1,"opposite_coherence":0,"dot_radius":2,"dot_side_length":1,"dot_life":-1,"move_distance":1,"aperture_width":300,"aperture_height":300,"dot_color":["white","black"],"dot_shape":"circle","background_color":"#AAA","RDK_type":3,"aperture_type":2,"reinsert_type":2,"frame_rate":16.841666666666665,"frame_rate_array":[13,17,17,17,16,17,17,16,18,16,17,17,17,17,16,17,17,16,17,17,17,17,17,17,17,16,17,16,17,17,17,17,17,17,17,17,17,17,17,17,17,17,17,17,17,17,17,17,17,16,17,17,17,17,17,17,16,17,17,16,16,17,17,17,17,16,17,16,17,17,17,17,17,17,17,16,17,17,17,17,17,17,17,17,17,17,17,17,17,17,16,17,16,17,17,17,17,17,17,17,17,17,17,17,17,17,17,17,17,17,17,17,17,17,17,17,17,17,17,17],"number_of_frames":120,"aperture_center_x":547,"aperture_center_y":307.5,"fixation_cross":true,"fixation_cross_width":15,"fixation_cross_height":15,"fixation_cross_color":"#111","fixation_cross_thickness":1,"border":true,"border_thickness":2,"border_color":"transparent","canvas_width":1094,"canvas_height":615,"trial_type":"rdk","trial_index":7,"plugin_version":"2.0.0","time_elapsed":170438,"phase":"practice","target_direction":144,"distractor_direction":28},{"rt":9222,"stimulus":"\n        <div class=\"response-container\">\n          <div class=\"response-instruction\">\n            <p>rotate the bar by using the left and right arrow keys.</p>\n            <p>when you are determined, press the Enter key.</p>\n          </div>\n          <div class=\"response-circle\">\n            <div class=\"response-fixation\"></div>\n            <div id=\"bar\" class=\"rotating-bar\"></div>\n          </div>\n        </div>\n      ","response":"Enter","trial_type":"html-keyboard-response","trial_index":8,"plugin_version":"2.1.0","time_elapsed":179661,"random_initial_angle":232,"response_angle_css":85,"response_angle_rdk":5,"angular_error_target":-139,"angular_error_distractor":-23,"target_direction":144,"target_group":"white","reward_points":0},{"rt":null,"stimulus":"\n          <p style=\"color: #FF3333;\">Your reward: 0 points</p>\n        ","response":null,"trial_type":"html-keyboard-response","trial_index":9,"plugin_version":"2.1.0","time_elapsed":181671},{"rt":null,"stimulus":"<div class=\"fixation\" style=\"font-size: 60px;\">+</div>","response":null,"trial_type":"html-keyboard-response","trial_index":10,"plugin_version":"2.1.0","time_elapsed":182682},{"target_group":"white","target_index":0,"condition_label":"practice","rt":-1,"response":"","correct":false,"choices":"ALL_KEYS","correct_choice":["a"],"trial_duration":2000,"flip_timestamps":[],"response_ends_trial":false,"number_of_apertures":2,"number_of_dots":[100,51],"number_of_sets":1,"coherent_direction":[208,320],"coherence":1,"opposite_coherence":0,"dot_radius":2,"dot_side_length":1,"dot_life":-1,"move_distance":1,"aperture_width":300,"aperture_height":300,"dot_color":["white","black"],"dot_shape":"circle","background_color":"#AAA","RDK_type":3,"aperture_type":2,"reinsert_type":2,"frame_rate":16.833333333333332,"frame_rate_array":[24,8,17,17,17,17,17,17,17,16,17,16,17,17,16,17,17,17,17,17,17,17,17,17,17,17,17,17,16,17,17,17,17,17,17,17,17,17,17,17,17,16,17,17,17,16,17,17,17,17,17,17,17,16,17,17,17,16,17,17,17,17,17,17,17,17,17,17,17,17,17,17,17,16,17,17,17,17,17,16,17,16,17,17,17,17,16,17,17,17,17,17,16,17,17,17,17,17,17,17,17,16,17,17,16,17,17,17,17,16,17,17,16,17,17,18,16,16,17,17],"number_of_frames":120,"aperture_center_x":547,"aperture_center_y":307.5,"fixation_cross":true,"fixation_cross_width":15,"fixation_cross_height":15,"fixation_cross_color":"#111","fixation_cross_thickness":1,"border":true,"border_thickness":2,"border_color":"transparent","canvas_width":1094,"canvas_height":615,"trial_type":"rdk","trial_index":11,"plugin_version":"2.0.0","time_elapsed":184686,"phase":"practice","target_direction":208,"distractor_direction":320},{"rt":3115,"stimulus":"\n        <div class=\"response-container\">\n          <div class=\"response-instruction\">\n            <p>rotate the bar by using the left and right arrow keys.</p>\n            <p>when you are determined, press the Enter key.</p>\n          </div>\n          <div class=\"response-circle\">\n            <div class=\"response-fixation\"></div>\n            <div id=\"bar\" class=\"rotating-bar\"></div>\n          </div>\n        </div>\n      ","response":"Enter","trial_type":"html-keyboard-response","trial_index":12,"plugin_version":"2.1.0","time_elapsed":187802,"random_initial_angle":287,"response_angle_css":287,"response_angle_rdk":163,"angular_error_target":-45,"angular_error_distractor":-157,"target_direction":208,"target_group":"white","reward_points":0},{"rt":null,"stimulus":"\n          <p style=\"color: #FF3333;\">Your reward: 0 points</p>\n        ","response":null,"trial_type":"html-keyboard-response","trial_index":13,"plugin_version":"2.1.0","time_elapsed":189816},{"rt":null,"stimulus":"<div class=\"fixation\" style=\"font-size: 60px;\">+</div>","response":null,"trial_type":"html-keyboard-response","trial_index":14,"plugin_version":"2.1.0","time_elapsed":190830},{"target_group":"black","target_index":1,"condition_label":"practice","rt":-1,"response":"","correct":false,"choices":"ALL_KEYS","correct_choice":["a"],"trial_duration":2000,"flip_timestamps":[],"response_ends_trial":false,"number_of_apertures":2,"number_of_dots":[89,100],"number_of_sets":1,"coherent_direction":[132,280],"coherence":1,"opposite_coherence":0,"dot_radius":2,"dot_side_length":1,"dot_life":-1,"move_distance":1,"aperture_width":300,"aperture_height":300,"dot_color":["white","black"],"dot_shape":"circle","background_color":"#AAA","RDK_type":3,"aperture_type":2,"reinsert_type":2,"frame_rate":16.783333333333335,"frame_rate_array":[4,17,17,16,17,17,17,16,17,17,17,17,17,17,17,17,17,17,17,16,17,17,17,17,17,17,17,17,17,17,16,17,17,17,17,17,17,17,17,16,17,17,17,17,17,17,17,17,17,17,17,17,17,17,17,16,17,17,17,17,17,17,17,17,17,17,17,17,17,16,17,17,17,17,17,16,17,17,17,17,17,17,17,17,17,21,12,17,16,17,17,17,17,17,17,17,17,17,17,17,17,17,17,17,16,17,17,17,16,17,17,17,17,16,17,17,17,17,17,17],"number_of_frames":120,"aperture_center_x":547,"aperture_center_y":307.5,"fixation_cross":true,"fixation_cross_width":15,"fixation_cross_height":15,"fixation_cross_color":"#111","fixation_cross_thickness":1,"border":true,"border_thickness":2,"border_color":"transparent","canvas_width":1094,"canvas_height":615,"trial_type":"rdk","trial_index":15,"plugin_version":"2.0.0","time_elapsed":192838,"phase":"practice","target_direction":280,"distractor_direction":132},{"rt":9093,"stimulus":"\n        <div class=\"response-container\">\n          <div class=\"response-instruction\">\n            <p>rotate the bar by using the left and right arrow keys.</p>\n            <p>when you are determined, press the Enter key.</p>\n          </div>\n          <div class=\"response-circle\">\n            <div class=\"response-fixation\"></div>\n            <div id=\"bar\" class=\"rotating-bar\"></div>\n          </div>\n        </div>\n      ","response":"Enter","trial_type":"html-keyboard-response","trial_index":16,"plugin_version":"2.1.0","time_elapsed":201933,"random_initial_angle":24,"response_angle_css":151,"response_angle_rdk":299,"angular_error_target":19,"angular_error_distractor":167,"target_direction":280,"target_group":"black","reward_points":6},{"rt":null,"stimulus":"\n          <p style=\"color: #00FF00;\">Your reward: 6 points</p>\n        ","response":null,"trial_type":"html-keyboard-response","trial_index":17,"plugin_version":"2.1.0","time_elapsed":203939},{"rt":null,"stimulus":"<div class=\"fixation\" style=\"font-size: 60px;\">+</div>","response":null,"trial_type":"html-keyboard-response","trial_index":18,"plugin_version":"2.1.0","time_elapsed":204955},{"target_group":"white","target_index":0,"condition_label":"practice","rt":-1,"response":"","correct":false,"choices":"ALL_KEYS","correct_choice":["a"],"trial_duration":2000,"flip_timestamps":[],"response_ends_trial":false,"number_of_apertures":2,"number_of_dots":[100,66],"number_of_sets":1,"coherent_direction":[10,279],"coherence":1,"opposite_coherence":0,"dot_radius":2,"dot_side_length":1,"dot_life":-1,"move_distance":1,"aperture_width":300,"aperture_height":300,"dot_color":["white","black"],"dot_shape":"circle","background_color":"#AAA","RDK_type":3,"aperture_type":2,"reinsert_type":2,"frame_rate":16.785123966942148,"frame_rate_array":[3,15,17,17,17,17,17,17,17,17,17,17,17,17,17,17,17,17,17,17,17,17,17,17,17,17,16,17,16,17,17,17,17,17,17,17,17,17,17,17,17,17,17,17,17,16,17,17,17,17,17,17,17,17,16,17,17,16,17,17,17,17,17,17,16,17,17,16,17,17,17,17,17,17,17,17,17,17,17,17,17,17,17,17,17,17,17,17,16,17,17,17,17,17,17,16,17,17,17,17,17,17,17,17,17,17,17,17,17,16,17,17,17,17,17,17,17,17,17,17,17],"number_of_frames":121,"aperture_center_x":547,"aperture_center_y":307.5,"fixation_cross":true,"fixation_cross_width":15,"fixation_cross_height":15,"fixation_cross_color":"#111","fixation_cross_thickness":1,"border":true,"border_thickness":2,"border_color":"transparent","canvas_width":1094,"canvas_height":615,"trial_type":"rdk","trial_index":19,"plugin_version":"2.0.0","time_elapsed":206962,"phase":"practice","target_direction":10,"distractor_direction":279},{"rt":6118,"stimulus":"\n        <div class=\"response-container\">\n          <div class=\"response-instruction\">\n            <p>rotate the bar by using the left and right arrow keys.</p>\n            <p>when you are determined, press the Enter key.</p>\n          </div>\n          <div class=\"response-circle\">\n            <div class=\"response-fixation\"></div>\n            <div id=\"bar\" class=\"rotating-bar\"></div>\n          </div>\n        </div>\n      ","response":"Enter","trial_type":"html-keyboard-response","trial_index":20,"plugin_version":"2.1.0","time_elapsed":213080,"random_initial_angle":323,"response_angle_css":431,"response_angle_rdk":19,"angular_error_target":9,"angular_error_distractor":100,"target_direction":10,"target_group":"white","reward_points":8},{"rt":null,"stimulus":"\n          <p style=\"color: #00FF00;\">Your reward: 8 points</p>\n        ","response":null,"trial_type":"html-keyboard-response","trial_index":21,"plugin_version":"2.1.0","time_elapsed":215093},{"rt":null,"stimulus":"<div class=\"fixation\" style=\"font-size: 60px;\">+</div>","response":null,"trial_type":"html-keyboard-response","trial_index":22,"plugin_version":"2.1.0","time_elapsed":216099},{"target_group":"black","target_index":1,"condition_label":"practice","rt":-1,"response":"","correct":false,"choices":"ALL_KEYS","correct_choice":["a"],"trial_duration":2000,"flip_timestamps":[],"response_ends_trial":false,"number_of_apertures":2,"number_of_dots":[86,100],"number_of_sets":1,"coherent_direction":[162,42],"coherence":1,"opposite_coherence":0,"dot_radius":2,"dot_side_length":1,"dot_life":-1,"move_distance":1,"aperture_width":300,"aperture_height":300,"dot_color":["white","black"],"dot_shape":"circle","background_color":"#AAA","RDK_type":3,"aperture_type":2,"reinsert_type":2,"frame_rate":16.783333333333335,"frame_rate_array":[12,17,16,17,16,17,17,17,17,17,17,17,17,16,17,17,17,17,16,17,17,17,17,17,17,17,17,17,17,17,17,17,17,17,17,16,17,16,17,17,16,17,17,17,17,17,16,17,17,16,17,17,17,16,17,17,17,17,17,17,16,17,17,17,17,16,17,17,17,17,17,16,17,17,17,17,17,16,17,17,17,17,16,17,17,17,17,17,16,17,17,17,17,16,17,17,16,17,17,17,17,16,17,17,17,17,17,17,17,17,16,17,17,16,17,17,17,17,17,17],"number_of_frames":120,"aperture_center_x":547,"aperture_center_y":307.5,"fixation_cross":true,"fixation_cross_width":15,"fixation_cross_height":15,"fixation_cross_color":"#111","fixation_cross_thickness":1,"border":true,"border_thickness":2,"border_color":"transparent","canvas_width":1094,"canvas_height":615,"trial_type":"rdk","trial_index":23,"plugin_version":"2.0.0","time_elapsed":218111,"phase":"practice","target_direction":42,"distractor_direction":162},{"rt":7435,"stimulus":"\n        <div class=\"response-container\">\n          <div class=\"response-instruction\">\n            <p>rotate the bar by using the left and right arrow keys.</p>\n            <p>when you are determined, press the Enter key.</p>\n          </div>\n          <div class=\"response-circle\">\n            <div class=\"response-fixation\"></div>\n            <div id=\"bar\" class=\"rotating-bar\"></div>\n          </div>\n        </div>\n      ","response":"Enter","trial_type":"html-keyboard-response","trial_index":24,"plugin_version":"2.1.0","time_elapsed":225547,"random_initial_angle":187,"response_angle_css":102,"response_angle_rdk":348,"angular_error_target":-54,"angular_error_distractor":-174,"target_direction":42,"target_group":"black","reward_points":0},{"rt":null,"stimulus":"\n          <p style=\"color: #FF3333;\">Your reward: 0 points</p>\n        ","response":null,"trial_type":"html-keyboard-response","trial_index":25,"plugin_version":"2.1.0","time_elapsed":227557},{"rt":null,"stimulus":"<div class=\"fixation\" style=\"font-size: 60px;\">+</div>","response":null,"trial_type":"html-keyboard-response","trial_index":26,"plugin_version":"2.1.0","time_elapsed":228564},{"target_group":"black","target_index":1,"condition_label":"practice","rt":-1,"response":"","correct":false,"choices":"ALL_KEYS","correct_choice":["a"],"trial_duration":2000,"flip_timestamps":[],"response_ends_trial":false,"number_of_apertures":2,"number_of_dots":[91,100],"number_of_sets":1,"coherent_direction":[89,245],"coherence":1,"opposite_coherence":0,"dot_radius":2,"dot_side_length":1,"dot_life":-1,"move_distance":1,"aperture_width":300,"aperture_height":300,"dot_color":["white","black"],"dot_shape":"circle","background_color":"#AAA","RDK_type":3,"aperture_type":2,"reinsert_type":2,"frame_rate":16.71900826446281,"frame_rate_array":[2,16,17,17,17,17,16,17,18,16,16,17,17,17,17,17,16,17,17,17,17,16,17,17,17,17,17,16,17,16,17,17,17,17,17,17,17,17,17,16,17,17,17,17,17,17,17,16,17,17,17,17,17,17,17,17,17,17,16,17,17,16,16,17,17,17,17,17,17,17,16,17,17,17,17,17,17,17,16,16,17,17,17,16,17,17,17,17,17,17,16,16,17,17,17,17,17,17,17,17,17,17,17,17,16,17,17,17,17,17,17,17,17,17,17,17,17,17,17,17,17],"number_of_frames":121,"aperture_center_x":547,"aperture_center_y":307.5,"fixation_cross":true,"fixation_cross_width":15,"fixation_cross_height":15,"fixation_cross_color":"#111","fixation_cross_thickness":1,"border":true,"border_thickness":2,"border_color":"transparent","canvas_width":1094,"canvas_height":615,"trial_type":"rdk","trial_index":27,"plugin_version":"2.0.0","time_elapsed":230569,"phase":"practice","target_direction":245,"distractor_direction":89},{"rt":4931,"stimulus":"\n        <div class=\"response-container\">\n          <div class=\"response-instruction\">\n            <p>rotate the bar by using the left and right arrow keys.</p>\n            <p>when you are determined, press the Enter key.</p>\n          </div>\n          <div class=\"response-circle\">\n            <div class=\"response-fixation\"></div>\n            <div id=\"bar\" class=\"rotating-bar\"></div>\n          </div>\n        </div>\n      ","response":"Enter","trial_type":"html-keyboard-response","trial_index":28,"plugin_version":"2.1.0","time_elapsed":235501,"random_initial_angle":263,"response_angle_css":188,"response_angle_rdk":262,"angular_error_target":17,"angular_error_distractor":173,"target_direction":245,"target_group":"black","reward_points":6},{"rt":null,"stimulus":"\n          <p style=\"color: #00FF00;\">Your reward: 6 points</p>\n        ","response":null,"trial_type":"html-keyboard-response","trial_index":29,"plugin_version":"2.1.0","time_elapsed":237510},{"rt":null,"stimulus":"<div class=\"fixation\" style=\"font-size: 60px;\">+</div>","response":null,"trial_type":"html-keyboard-response","trial_index":30,"plugin_version":"2.1.0","time_elapsed":238520},{"target_group":"white","target_index":0,"condition_label":"practice","rt":-1,"response":"","correct":false,"choices":"ALL_KEYS","correct_choice":["a"],"trial_duration":2000,"flip_timestamps":[],"response_ends_trial":false,"number_of_apertures":2,"number_of_dots":[100,79],"number_of_sets":1,"coherent_direction":[278,71],"coherence":1,"opposite_coherence":0,"dot_radius":2,"dot_side_length":1,"dot_life":-1,"move_distance":1,"aperture_width":300,"aperture_height":300,"dot_color":["white","black"],"dot_shape":"circle","background_color":"#AAA","RDK_type":3,"aperture_type":2,"reinsert_type":2,"frame_rate":16.694214876033058,"frame_rate_array":[1,14,17,17,17,17,17,17,16,17,17,17,16,17,17,17,17,17,17,17,17,17,17,16,17,17,17,16,17,17,17,17,17,17,17,17,16,17,17,17,17,17,17,17,17,16,17,17,17,17,17,17,16,17,17,17,17,17,16,17,16,17,17,17,17,16,17,17,17,16,17,17,17,16,17,17,17,17,16,17,16,17,17,17,17,16,17,17,17,16,17,17,17,17,17,17,17,17,17,16,17,17,17,17,17,17,17,17,17,17,17,17,17,17,17,17,17,17,17,17,16],"number_of_frames":121,"aperture_center_x":547,"aperture_center_y":307.5,"fixation_cross":true,"fixation_cross_width":15,"fixation_cross_height":15,"fixation_cross_color":"#111","fixation_cross_thickness":1,"border":true,"border_thickness":2,"border_color":"transparent","canvas_width":1094,"canvas_height":615,"trial_type":"rdk","trial_index":31,"plugin_version":"2.0.0","time_elapsed":240524,"phase":"practice","target_direction":278,"distractor_direction":71},{"rt":5289,"stimulus":"\n        <div class=\"response-container\">\n          <div class=\"response-instruction\">\n            <p>rotate the bar by using the left and right arrow keys.</p>\n            <p>when you are determined, press the Enter key.</p>\n          </div>\n          <div class=\"response-circle\">\n            <div class=\"response-fixation\"></div>\n            <div id=\"bar\" class=\"rotating-bar\"></div>\n          </div>\n        </div>\n      ","response":"Enter","trial_type":"html-keyboard-response","trial_index":32,"plugin_version":"2.1.0","time_elapsed":245815,"random_initial_angle":52,"response_angle_css":155,"response_angle_rdk":295,"angular_error_target":17,"angular_error_distractor":-136,"target_direction":278,"target_group":"white","reward_points":6},{"rt":null,"stimulus":"\n          <p style=\"color: #00FF00;\">Your reward: 6 points</p>\n        ","response":null,"trial_type":"html-keyboard-response","trial_index":33,"plugin_version":"2.1.0","time_elapsed":247823},{"rt":null,"stimulus":"<div class=\"fixation\" style=\"font-size: 60px;\">+</div>","response":null,"trial_type":"html-keyboard-response","trial_index":34,"plugin_version":"2.1.0","time_elapsed":248832},{"target_group":"black","target_index":1,"condition_label":"practice","rt":-1,"response":"","correct":false,"choices":"ALL_KEYS","correct_choice":["a"],"trial_duration":2000,"flip_timestamps":[],"response_ends_trial":false,"number_of_apertures":2,"number_of_dots":[73,100],"number_of_sets":1,"coherent_direction":[230,341],"coherence":1,"opposite_coherence":0,"dot_radius":2,"dot_side_length":1,"dot_life":-1,"move_distance":1,"aperture_width":300,"aperture_height":300,"dot_color":["white","black"],"dot_shape":"circle","background_color":"#AAA","RDK_type":3,"aperture_type":2,"reinsert_type":2,"frame_rate":16.816666666666666,"frame_rate_array":[7,17,17,17,17,17,17,17,17,17,17,17,16,17,17,17,17,17,17,17,17,17,17,17,17,16,16,17,17,17,17,17,17,17,17,17,17,17,17,16,17,17,17,17,17,16,17,17,17,17,17,17,17,17,17,17,17,17,17,17,16,17,17,17,17,17,16,17,17,17,17,17,17,17,16,17,17,17,17,16,17,17,17,17,17,17,17,17,17,17,17,17,17,17,17,17,17,16,17,17,17,17,17,16,17,17,17,17,17,17,17,17,17,17,17,17,17,16,17,17],"number_of_frames":120,"aperture_center_x":547,"aperture_center_y":307.5,"fixation_cross":true,"fixation_cross_width":15,"fixation_cross_height":15,"fixation_cross_color":"#111","fixation_cross_thickness":1,"border":true,"border_thickness":2,"border_color":"transparent","canvas_width":1094,"canvas_height":615,"trial_type":"rdk","trial_index":35,"plugin_version":"2.0.0","time_elapsed":250842,"phase":"practice","target_direction":341,"distractor_direction":230},{"rt":5028,"stimulus":"\n        <div class=\"response-container\">\n          <div class=\"response-instruction\">\n            <p>rotate the bar by using the left and right arrow keys.</p>\n            <p>when you are determined, press the Enter key.</p>\n          </div>\n          <div class=\"response-circle\">\n            <div class=\"response-fixation\"></div>\n            <div id=\"bar\" class=\"rotating-bar\"></div>\n          </div>\n        </div>\n      ","response":"Enter","trial_type":"html-keyboard-response","trial_index":36,"plugin_version":"2.1.0","time_elapsed":255871,"random_initial_angle":159,"response_angle_css":93,"response_angle_rdk":357,"angular_error_target":16,"angular_error_distractor":127,"target_direction":341,"target_group":"black","reward_points":6},{"rt":null,"stimulus":"\n          <p style=\"color: #00FF00;\">Your reward: 6 points</p>\n        ","response":null,"trial_type":"html-keyboard-response","trial_index":37,"plugin_version":"2.1.0","time_elapsed":257873},{"rt":null,"stimulus":"<div class=\"fixation\" style=\"font-size: 60px;\">+</div>","response":null,"trial_type":"html-keyboard-response","trial_index":38,"plugin_version":"2.1.0","time_elapsed":258876},{"target_group":"black","target_index":1,"condition_label":"practice","rt":-1,"response":"","correct":false,"choices":"ALL_KEYS","correct_choice":["a"],"trial_duration":2000,"flip_timestamps":[],"response_ends_trial":false,"number_of_apertures":2,"number_of_dots":[66,100],"number_of_sets":1,"coherent_direction":[21,176],"coherence":1,"opposite_coherence":0,"dot_radius":2,"dot_side_length":1,"dot_life":-1,"move_distance":1,"aperture_width":300,"aperture_height":300,"dot_color":["white","black"],"dot_shape":"circle","background_color":"#AAA","RDK_type":3,"aperture_type":2,"reinsert_type":2,"frame_rate":16.710743801652892,"frame_rate_array":[2,16,17,17,17,17,17,16,17,16,17,17,17,17,17,17,17,17,17,17,17,17,17,17,17,17,17,16,17,17,17,16,17,17,17,17,16,17,17,16,17,17,17,17,17,17,17,17,16,17,17,17,16,17,17,17,17,16,17,17,17,17,16,17,17,16,17,17,17,17,17,17,17,16,17,17,17,17,17,17,17,17,17,17,17,17,17,17,17,16,17,17,16,17,17,17,17,17,17,16,17,16,17,16,17,16,17,17,17,17,17,17,17,17,17,17,16,17,17,17,17],"number_of_frames":121,"aperture_center_x":547,"aperture_center_y":307.5,"fixation_cross":true,"fixation_cross_width":15,"fixation_cross_height":15,"fixation_cross_color":"#111","fixation_cross_thickness":1,"border":true,"border_thickness":2,"border_color":"transparent","canvas_width":1094,"canvas_height":615,"trial_type":"rdk","trial_index":39,"plugin_version":"2.0.0","time_elapsed":260881,"phase":"practice","target_direction":176,"distractor_direction":21},{"rt":4860,"stimulus":"\n        <div class=\"response-container\">\n          <div class=\"response-instruction\">\n            <p>rotate the bar by using the left and right arrow keys.</p>\n            <p>when you are determined, press the Enter key.</p>\n          </div>\n          <div class=\"response-circle\">\n            <div class=\"response-fixation\"></div>\n            <div id=\"bar\" class=\"rotating-bar\"></div>\n          </div>\n        </div>\n      ","response":"Enter","trial_type":"html-keyboard-response","trial_index":40,"plugin_version":"2.1.0","time_elapsed":265742,"random_initial_angle":50,"response_angle_css":92,"response_angle_rdk":358,"angular_error_target":-178,"angular_error_distractor":-23,"target_direction":176,"target_group":"black","reward_points":0},{"rt":null,"stimulus":"\n          <p style=\"color: #FF3333;\">Your reward: 0 points</p>\n        ","response":null,"trial_type":"html-keyboard-response","trial_index":41,"plugin_version":"2.1.0","time_elapsed":267759},{"rt":null,"stimulus":"<div class=\"fixation\" style=\"font-size: 60px;\">+</div>","response":null,"trial_type":"html-keyboard-response","trial_index":42,"plugin_version":"2.1.0","time_elapsed":268763},{"target_group":"black","target_index":1,"condition_label":"practice","rt":-1,"response":"","correct":false,"choices":"ALL_KEYS","correct_choice":["a"],"trial_duration":2000,"flip_timestamps":[],"response_ends_trial":false,"number_of_apertures":2,"number_of_dots":[80,100],"number_of_sets":1,"coherent_direction":[304,52],"coherence":1,"opposite_coherence":0,"dot_radius":2,"dot_side_length":1,"dot_life":-1,"move_distance":1,"aperture_width":300,"aperture_height":300,"dot_color":["white","black"],"dot_shape":"circle","background_color":"#AAA","RDK_type":3,"aperture_type":2,"reinsert_type":2,"frame_rate":16.694214876033058,"frame_rate_array":[2,15,17,18,16,17,17,17,17,17,17,17,17,17,16,17,17,17,17,17,17,16,17,17,17,17,16,16,17,17,17,17,17,17,17,17,16,17,17,17,17,17,17,17,17,16,17,17,17,17,16,17,17,17,16,17,17,17,16,17,17,17,17,17,17,17,17,17,17,17,17,17,17,16,17,17,17,16,17,16,17,17,17,16,17,16,17,17,17,17,16,17,16,17,17,17,17,16,17,17,17,17,16,17,16,17,17,17,16,17,17,17,17,17,17,17,17,17,17,17,17],"number_of_frames":121,"aperture_center_x":547,"aperture_center_y":307.5,"fixation_cross":true,"fixation_cross_width":15,"fixation_cross_height":15,"fixation_cross_color":"#111","fixation_cross_thickness":1,"border":true,"border_thickness":2,"border_color":"transparent","canvas_width":1094,"canvas_height":615,"trial_type":"rdk","trial_index":43,"plugin_version":"2.0.0","time_elapsed":270769,"phase":"practice","target_direction":52,"distractor_direction":304},{"rt":2766,"stimulus":"\n        <div class=\"response-container\">\n          <div class=\"response-instruction\">\n            <p>rotate the bar by using the left and right arrow keys.</p>\n            <p>when you are determined, press the Enter key.</p>\n          </div>\n          <div class=\"response-circle\">\n            <div class=\"response-fixation\"></div>\n            <div id=\"bar\" class=\"rotating-bar\"></div>\n          </div>\n        </div>\n      ","response":"Enter","trial_type":"html-keyboard-response","trial_index":44,"plugin_version":"2.1.0","time_elapsed":273536,"random_initial_angle":287,"response_angle_css":263,"response_angle_rdk":187,"angular_error_target":135,"angular_error_distractor":-117,"target_direction":52,"target_group":"black","reward_points":0},{"rt":null,"stimulus":"\n          <p style=\"color: #FF3333;\">Your reward: 0 points</p>\n        ","response":null,"trial_type":"html-keyboard-response","trial_index":45,"plugin_version":"2.1.0","time_elapsed":275542},{"rt":null,"stimulus":"<div class=\"fixation\" style=\"font-size: 60px;\">+</div>","response":null,"trial_type":"html-keyboard-response","trial_index":46,"plugin_version":"2.1.0","time_elapsed":276552},{"target_group":"black","target_index":1,"condition_label":"practice","rt":-1,"response":"","correct":false,"choices":"ALL_KEYS","correct_choice":["a"],"trial_duration":2000,"flip_timestamps":[],"response_ends_trial":false,"number_of_apertures":2,"number_of_dots":[63,100],"number_of_sets":1,"coherent_direction":[72,258],"coherence":1,"opposite_coherence":0,"dot_radius":2,"dot_side_length":1,"dot_life":-1,"move_distance":1,"aperture_width":300,"aperture_height":300,"dot_color":["white","black"],"dot_shape":"circle","background_color":"#AAA","RDK_type":3,"aperture_type":2,"reinsert_type":2,"frame_rate":16.8,"frame_rate_array":[15,17,17,17,17,16,17,16,17,17,17,17,17,17,17,18,16,17,16,17,17,17,17,17,17,17,17,17,17,17,17,17,16,17,16,17,17,16,17,16,17,16,17,17,17,17,17,17,17,17,17,17,17,17,17,17,16,17,17,16,17,16,17,17,17,17,17,16,17,17,17,16,17,17,18,17,16,17,17,17,17,17,17,17,16,17,17,16,17,17,17,17,16,17,17,16,16,17,17,17,17,16,17,17,17,17,16,17,17,17,17,17,17,17,17,16,16,17,17,17],"number_of_frames":120,"aperture_center_x":547,"aperture_center_y":307.5,"fixation_cross":true,"fixation_cross_width":15,"fixation_cross_height":15,"fixation_cross_color":"#111","fixation_cross_thickness":1,"border":true,"border_thickness":2,"border_color":"transparent","canvas_width":1094,"canvas_height":615,"trial_type":"rdk","trial_index":47,"plugin_version":"2.0.0","time_elapsed":278555,"phase":"practice","target_direction":258,"distractor_direction":72},{"rt":5784,"stimulus":"\n        <div class=\"response-container\">\n          <div class=\"response-instruction\">\n            <p>rotate the bar by using the left and right arrow keys.</p>\n            <p>when you are determined, press the Enter key.</p>\n          </div>\n          <div class=\"response-circle\">\n            <div class=\"response-fixation\"></div>\n            <div id=\"bar\" class=\"rotating-bar\"></div>\n          </div>\n        </div>\n      ","response":"Enter","trial_type":"html-keyboard-response","trial_index":48,"plugin_version":"2.1.0","time_elapsed":284340,"random_initial_angle":126,"response_angle_css":233,"response_angle_rdk":217,"angular_error_target":-41,"angular_error_distractor":145,"target_direction":258,"target_group":"black","reward_points":1},{"rt":null,"stimulus":"\n          <p style=\"color: #FF3333;\">Your reward: 1 points</p>\n        ","response":null,"trial_type":"html-keyboard-response","trial_index":49,"plugin_version":"2.1.0","time_elapsed":286351},{"rt":null,"stimulus":"<div class=\"fixation\" style=\"font-size: 60px;\">+</div>","response":null,"trial_type":"html-keyboard-response","trial_index":50,"plugin_version":"2.1.0","time_elapsed":287355},{"target_group":"white","target_index":0,"condition_label":"practice","rt":-1,"response":"","correct":false,"choices":"ALL_KEYS","correct_choice":["a"],"trial_duration":2000,"flip_timestamps":[],"response_ends_trial":false,"number_of_apertures":2,"number_of_dots":[100,78],"number_of_sets":1,"coherent_direction":[131,8],"coherence":1,"opposite_coherence":0,"dot_radius":2,"dot_side_length":1,"dot_life":-1,"move_distance":1,"aperture_width":300,"aperture_height":300,"dot_color":["white","black"],"dot_shape":"circle","background_color":"#AAA","RDK_type":3,"aperture_type":2,"reinsert_type":2,"frame_rate":16.825,"frame_rate_array":[24,8,17,17,17,17,16,17,17,17,17,16,17,16,17,17,16,17,17,17,17,17,16,17,17,17,17,17,17,17,17,17,17,16,17,17,17,17,17,17,17,17,17,17,17,17,17,17,17,17,17,17,17,17,17,16,17,17,16,17,17,17,16,17,17,17,17,17,17,17,16,17,17,16,17,17,17,17,17,17,17,17,17,17,17,17,16,18,16,17,16,17,17,17,17,16,17,17,17,16,17,17,16,17,16,17,17,17,17,16,17,17,17,16,17,17,17,17,17,17],"number_of_frames":120,"aperture_center_x":547,"aperture_center_y":307.5,"fixation_cross":true,"fixation_cross_width":15,"fixation_cross_height":15,"fixation_cross_color":"#111","fixation_cross_thickness":1,"border":true,"border_thickness":2,"border_color":"transparent","canvas_width":1094,"canvas_height":615,"trial_type":"rdk","trial_index":51,"plugin_version":"2.0.0","time_elapsed":289359,"phase":"practice","target_direction":131,"distractor_direction":8},{"rt":5964,"stimulus":"\n        <div class=\"response-container\">\n          <div class=\"response-instruction\">\n            <p>rotate the bar by using the left and right arrow keys.</p>\n            <p>when you are determined, press the Enter key.</p>\n          </div>\n          <div class=\"response-circle\">\n            <div class=\"response-fixation\"></div>\n            <div id=\"bar\" class=\"rotating-bar\"></div>\n          </div>\n        </div>\n      ","response":"Enter","trial_type":"html-keyboard-response","trial_index":52,"plugin_version":"2.1.0","time_elapsed":295324,"random_initial_angle":170,"response_angle_css":286,"response_angle_rdk":164,"angular_error_target":33,"angular_error_distractor":156,"target_direction":131,"target_group":"white","reward_points":3},{"rt":null,"stimulus":"\n          <p style=\"color: #00FF00;\">Your reward: 3 points</p>\n        ","response":null,"trial_type":"html-keyboard-response","trial_index":53,"plugin_version":"2.1.0","time_elapsed":297326},{"rt":null,"stimulus":"<div class=\"fixation\" style=\"font-size: 60px;\">+</div>","response":null,"trial_type":"html-keyboard-response","trial_index":54,"plugin_version":"2.1.0","time_elapsed":298342},{"target_group":"black","target_index":1,"condition_label":"practice","rt":-1,"response":"","correct":false,"choices":"ALL_KEYS","correct_choice":["a"],"trial_duration":2000,"flip_timestamps":[],"response_ends_trial":false,"number_of_apertures":2,"number_of_dots":[53,100],"number_of_sets":1,"coherent_direction":[180,51],"coherence":1,"opposite_coherence":0,"dot_radius":2,"dot_side_length":1,"dot_life":-1,"move_distance":1,"aperture_width":300,"aperture_height":300,"dot_color":["white","black"],"dot_shape":"circle","background_color":"#AAA","RDK_type":3,"aperture_type":2,"reinsert_type":2,"frame_rate":16.735537190082646,"frame_rate_array":[2,16,16,17,17,17,17,17,17,17,17,16,17,17,17,16,17,17,17,17,16,17,16,17,17,17,17,17,17,17,17,17,17,17,17,17,17,17,17,17,17,17,17,17,17,17,17,17,17,17,17,17,17,17,17,17,17,17,17,17,16,17,17,17,17,17,16,17,17,17,17,17,17,16,17,17,16,17,17,17,17,17,17,17,17,17,17,17,17,17,16,17,17,17,17,16,16,17,17,17,17,17,16,17,17,17,16,17,17,17,17,16,17,16,17,17,17,17,17,17,17],"number_of_frames":121,"aperture_center_x":547,"aperture_center_y":307.5,"fixation_cross":true,"fixation_cross_width":15,"fixation_cross_height":15,"fixation_cross_color":"#111","fixation_cross_thickness":1,"border":true,"border_thickness":2,"border_color":"transparent","canvas_width":1094,"canvas_height":615,"trial_type":"rdk","trial_index":55,"plugin_version":"2.0.0","time_elapsed":300347,"phase":"practice","target_direction":51,"distractor_direction":180},{"rt":4907,"stimulus":"\n        <div class=\"response-container\">\n          <div class=\"response-instruction\">\n            <p>rotate the bar by using the left and right arrow keys.</p>\n            <p>when you are determined, press the Enter key.</p>\n          </div>\n          <div class=\"response-circle\">\n            <div class=\"response-fixation\"></div>\n            <div id=\"bar\" class=\"rotating-bar\"></div>\n          </div>\n        </div>\n      ","response":"Enter","trial_type":"html-keyboard-response","trial_index":56,"plugin_version":"2.1.0","time_elapsed":305254,"random_initial_angle":88,"response_angle_css":44,"response_angle_rdk":46,"angular_error_target":-5,"angular_error_distractor":-134,"target_direction":51,"target_group":"black","reward_points":9},{"rt":null,"stimulus":"\n          <p style=\"color: #00FF00;\">Your reward: 9 points</p>\n        ","response":null,"trial_type":"html-keyboard-response","trial_index":57,"plugin_version":"2.1.0","time_elapsed":307264},{"rt":null,"stimulus":"<div class=\"fixation\" style=\"font-size: 60px;\">+</div>","response":null,"trial_type":"html-keyboard-response","trial_index":58,"plugin_version":"2.1.0","time_elapsed":308279},{"target_group":"white","target_index":0,"condition_label":"practice","rt":-1,"response":"","correct":false,"choices":"ALL_KEYS","correct_choice":["a"],"trial_duration":2000,"flip_timestamps":[],"response_ends_trial":false,"number_of_apertures":2,"number_of_dots":[100,87],"number_of_sets":1,"coherent_direction":[266,116],"coherence":1,"opposite_coherence":0,"dot_radius":2,"dot_side_length":1,"dot_life":-1,"move_distance":1,"aperture_width":300,"aperture_height":300,"dot_color":["white","black"],"dot_shape":"circle","background_color":"#AAA","RDK_type":3,"aperture_type":2,"reinsert_type":2,"frame_rate":16.68595041322314,"frame_rate_array":[2,16,17,17,17,17,17,17,17,17,17,17,16,17,16,17,17,17,17,17,17,16,17,17,16,17,17,17,16,17,16,17,17,17,17,18,16,17,17,16,17,17,16,17,17,16,17,16,17,17,17,17,17,17,17,17,17,17,17,17,17,16,17,16,17,17,17,17,17,17,17,17,17,17,16,17,17,17,16,17,17,17,17,17,16,16,17,17,17,17,16,17,17,17,16,17,17,17,17,17,17,17,17,16,17,17,17,17,16,17,17,16,17,17,17,17,16,17,17,17,17],"number_of_frames":121,"aperture_center_x":547,"aperture_center_y":307.5,"fixation_cross":true,"fixation_cross_width":15,"fixation_cross_height":15,"fixation_cross_color":"#111","fixation_cross_thickness":1,"border":true,"border_thickness":2,"border_color":"transparent","canvas_width":1094,"canvas_height":615,"trial_type":"rdk","trial_index":59,"plugin_version":"2.0.0","time_elapsed":310285,"phase":"practice","target_direction":266,"distractor_direction":116},{"rt":5547,"stimulus":"\n        <div class=\"response-container\">\n          <div class=\"response-instruction\">\n            <p>rotate the bar by using the left and right arrow keys.</p>\n            <p>when you are determined, press the Enter key.</p>\n          </div>\n          <div class=\"response-circle\">\n            <div class=\"response-fixation\"></div>\n            <div id=\"bar\" class=\"rotating-bar\"></div>\n          </div>\n        </div>\n      ","response":"Enter","trial_type":"html-keyboard-response","trial_index":60,"plugin_version":"2.1.0","time_elapsed":315833,"random_initial_angle":327,"response_angle_css":357,"response_angle_rdk":93,"angular_error_target":-173,"angular_error_distractor":-23,"target_direction":266,"target_group":"white","reward_points":0},{"rt":null,"stimulus":"\n          <p style=\"color: #FF3333;\">Your reward: 0 points</p>\n        ","response":null,"trial_type":"html-keyboard-response","trial_index":61,"plugin_version":"2.1.0","time_elapsed":317848},{"rt":null,"stimulus":"<div class=\"fixation\" style=\"font-size: 60px;\">+</div>","response":null,"trial_type":"html-keyboard-response","trial_index":62,"plugin_version":"2.1.0","time_elapsed":318849},{"target_group":"white","target_index":0,"condition_label":"practice","rt":-1,"response":"","correct":false,"choices":"ALL_KEYS","correct_choice":["a"],"trial_duration":2000,"flip_timestamps":[],"response_ends_trial":false,"number_of_apertures":2,"number_of_dots":[100,99],"number_of_sets":1,"coherent_direction":[351,226],"coherence":1,"opposite_coherence":0,"dot_radius":2,"dot_side_length":1,"dot_life":-1,"move_distance":1,"aperture_width":300,"aperture_height":300,"dot_color":["white","black"],"dot_shape":"circle","background_color":"#AAA","RDK_type":3,"aperture_type":2,"reinsert_type":2,"frame_rate":16.710743801652892,"frame_rate_array":[3,14,17,17,17,17,17,17,16,17,17,17,17,17,17,17,17,17,16,17,17,17,17,16,17,17,17,17,17,16,17,16,17,17,17,17,17,17,17,17,16,17,17,16,17,17,17,16,17,17,16,17,17,17,17,17,17,16,17,17,16,17,17,17,17,17,17,17,17,16,17,17,17,16,17,17,17,17,17,17,17,17,17,17,17,17,17,17,17,17,17,17,17,17,16,16,17,17,17,17,17,17,17,17,16,17,17,16,17,17,17,17,17,17,17,16,17,17,17,17,17],"number_of_frames":121,"aperture_center_x":547,"aperture_center_y":307.5,"fixation_cross":true,"fixation_cross_width":15,"fixation_cross_height":15,"fixation_cross_color":"#111","fixation_cross_thickness":1,"border":true,"border_thickness":2,"border_color":"transparent","canvas_width":1094,"canvas_height":615,"trial_type":"rdk","trial_index":63,"plugin_version":"2.0.0","time_elapsed":320855,"phase":"practice","target_direction":351,"distractor_direction":226},{"rt":4481,"stimulus":"\n        <div class=\"response-container\">\n          <div class=\"response-instruction\">\n            <p>rotate the bar by using the left and right arrow keys.</p>\n            <p>when you are determined, press the Enter key.</p>\n          </div>\n          <div class=\"response-circle\">\n            <div class=\"response-fixation\"></div>\n            <div id=\"bar\" class=\"rotating-bar\"></div>\n          </div>\n        </div>\n      ","response":"Enter","trial_type":"html-keyboard-response","trial_index":64,"plugin_version":"2.1.0","time_elapsed":325337,"random_initial_angle":134,"response_angle_css":63,"response_angle_rdk":27,"angular_error_target":36,"angular_error_distractor":161,"target_direction":351,"target_group":"white","reward_points":2},{"rt":null,"stimulus":"\n          <p style=\"color: #FF3333;\">Your reward: 2 points</p>\n        ","response":null,"trial_type":"html-keyboard-response","trial_index":65,"plugin_version":"2.1.0","time_elapsed":327343},{"rt":2806,"stimulus":"\n        <div class=\"instructions-container\">\n          <h2>End of Practice</h2>\n          <p>You have completed the practice trials.</p>\n          <p>Press <strong>Enter</strong> key to begin the main experiment.</p>\n        </div>\n      ","response":"Enter","trial_type":"html-keyboard-response","trial_index":66,"plugin_version":"2.1.0","time_elapsed":330151},{"rt":null,"stimulus":"<div class=\"fixation\" style=\"font-size: 60px;\">+</div>","response":null,"trial_type":"html-keyboard-response","trial_index":67,"plugin_version":"2.1.0","time_elapsed":331160},{"phase":"learning-awareness","target_group":"white","condition_label":"W_H_vs_B_L_rep1","target_direction":19,"distractor_direction":274,"session_rotation":353,"rt":-1,"response":"","correct":false,"choices":"ALL_KEYS","correct_choice":["a"],"trial_duration":2000,"flip_timestamps":[],"response_ends_trial":false,"number_of_apertures":200,"number_of_dots":[1,1,1,1,1,1,1,1,1,1,1,1,1,1,1,1,1,1,1,1,1,1,1,1,1,1,1,1,1,1,1,1,1,1,1,1,1,1,1,1,1,1,1,1,1,1,1,1,1,1,1,1,1,1,1,1,1,1,1,1,1,1,1,1,1,1,1,1,1,1,1,1,1,1,1,1,1,1,1,1,1,1,1,1,1,1,1,1,1,1,1,1,1,1,1,1,1,1,1,1,1,1,1,1,1,1,1,1,1,1,1,1,1,1,1,1,1,1,1,1,1,1,1,1,1,1,1,1,1,1,1,1,1,1,1,1,1,1,1,1,1,1,1,1,1,1,1,1,1,1,1,1,1,1,1,1,1,1,1,1,1,1,1,1,1,1,1,1,1,1,1,1,1,1,1,1,1,1,1,1,1,1,1,1,1,1,1,1,1,1,1,1,1,1,1,1,1,1,1,1],"number_of_sets":1,"coherent_direction":[274,274,274,19,274,274,274,19,274,274,19,19,19,274,274,274,19,274,19,19,274,19,274,274,274,274,274,274,274,19,19,19,274,19,274,19,274,274,19,19,19,274,19,19,274,19,19,274,19,19,274,274,19,274,274,274,19,19,19,19,19,19,19,274,19,19,19,274,19,274,274,19,19,274,274,19,274,19,19,19,274,19,19,274,274,274,274,19,19,19,19,19,19,19,274,19,19,19,274,19,274,19,274,19,19,19,19,19,274,19,274,19,274,19,274,19,19,19,19,274,19,274,274,274,274,19,19,19,19,19,274,19,274,274,19,274,274,19,274,19,19,19,274,19,274,274,19,19,274,274,274,19,274,19,274,19,274,274,19,19,19,274,274,274,274,19,274,274,19,274,274,274,274,19,274,274,274,19,19,274,274,274,19,274,274,19,274,274,19,19,19,19,19,274,274,274,274,274,274,274],"coherence":1,"opposite_coherence":0,"dot_radius":2,"dot_side_length":1,"dot_life":-1,"move_distance":1,"aperture_width":300,"aperture_height":300,"dot_color":["black","black","black","white","black","black","black","white","black","black","white","white","white","black","black","black","white","black","white","white","black","white","black","black","black","black","black","black","black","white","white","white","black","white","black","white","black","black","white","white","white","black","white","white","black","white","white","black","white","white","black","black","white","black","black","black","white","white","white","white","white","white","white","black","white","white","white","black","white","black","black","white","white","black","black","white","black","white","white","white","black","white","white","black","black","black","black","white","white","white","white","white","white","white","black","white","white","white","black","white","black","white","black","white","white","white","white","white","black","white","black","white","black","white","black","white","white","white","white","black","white","black","black","black","black","white","white","white","white","white","black","white","black","black","white","black","black","white","black","white","white","white","black","white","black","black","white","white","black","black","black","white","black","white","black","white","black","black","white","white","white","black","black","black","black","white","black","black","white","black","black","black","black","white","black","black","black","white","white","black","black","black","white","black","black","white","black","black","white","white","white","white","white","black","black","black","black","black","black","black"],"dot_shape":"circle","background_color":"#AAA","RDK_type":3,"aperture_type":2,"reinsert_type":2,"frame_rate":16.783333333333335,"frame_rate_array":[10,17,17,17,17,17,17,17,17,17,16,17,17,16,17,17,17,17,17,17,17,17,16,17,17,17,17,17,17,17,17,17,16,17,17,17,17,17,16,17,17,17,17,16,17,17,17,17,16,17,17,17,17,16,17,17,17,17,17,17,17,17,17,17,17,18,16,17,16,17,17,17,17,17,16,17,17,17,17,16,16,16,17,17,17,17,17,17,17,17,17,17,17,17,16,17,17,17,17,17,17,16,17,17,17,16,17,17,17,17,17,16,17,16,17,16,17,17,17,17],"number_of_frames":120,"aperture_center_x":547,"aperture_center_y":307.5,"fixation_cross":true,"fixation_cross_width":15,"fixation_cross_height":15,"fixation_cross_color":"#111","fixation_cross_thickness":1,"border":true,"border_thickness":2,"border_color":"transparent","canvas_width":1094,"canvas_height":615,"trial_type":"rdk","trial_index":68,"plugin_version":"2.0.0","time_elapsed":333173},{"rt":4131,"stimulus":"\n        <div class=\"response-container\">\n          <div class=\"response-instruction\">\n            <p>rotate the bar by using the left and right arrow keys.</p>\n            <p>when you are determined, press the Enter key.</p>\n          </div>\n          <div class=\"response-circle\">\n            <div class=\"response-fixation\"></div>\n            <div id=\"bar\" class=\"rotating-bar\"></div>\n          </div>\n        </div>\n      ","response":"Enter","trial_type":"html-keyboard-response","trial_index":69,"plugin_version":"2.1.0","time_elapsed":337305,"random_initial_angle":229,"response_angle_css":180,"response_angle_rdk":270,"angular_error_target":-109,"angular_error_distractor":-4,"target_direction":19,"target_group":"white","reward_points":0},{"rt":null,"stimulus":"\n          <p style=\"color: #FF3333;\">Your reward: 0 points</p>\n        ","response":null,"trial_type":"html-keyboard-response","trial_index":70,"plugin_version":"2.1.0","time_elapsed":339317},{"rt":null,"stimulus":"<div class=\"fixation\" style=\"font-size: 60px;\">+</div>","response":null,"trial_type":"html-keyboard-response","trial_index":71,"plugin_version":"2.1.0","time_elapsed":340323},{"phase":"learning-awareness","target_group":"white","condition_label":"W_H_vs_B_L_rep20","target_direction":35,"distractor_direction":289,"session_rotation":353,"rt":-1,"response":"","correct":false,"choices":"ALL_KEYS","correct_choice":["a"],"trial_duration":2000,"flip_timestamps":[],"response_ends_trial":false,"number_of_apertures":200,"number_of_dots":[1,1,1,1,1,1,1,1,1,1,1,1,1,1,1,1,1,1,1,1,1,1,1,1,1,1,1,1,1,1,1,1,1,1,1,1,1,1,1,1,1,1,1,1,1,1,1,1,1,1,1,1,1,1,1,1,1,1,1,1,1,1,1,1,1,1,1,1,1,1,1,1,1,1,1,1,1,1,1,1,1,1,1,1,1,1,1,1,1,1,1,1,1,1,1,1,1,1,1,1,1,1,1,1,1,1,1,1,1,1,1,1,1,1,1,1,1,1,1,1,1,1,1,1,1,1,1,1,1,1,1,1,1,1,1,1,1,1,1,1,1,1,1,1,1,1,1,1,1,1,1,1,1,1,1,1,1,1,1,1,1,1,1,1,1,1,1,1,1,1,1,1,1,1,1,1,1,1,1,1,1,1,1,1,1,1,1,1,1,1,1,1,1,1,1,1,1,1,1,1],"number_of_sets":1,"coherent_direction":[35,289,35,289,35,35,289,35,35,289,35,289,289,289,289,35,35,35,35,289,289,289,289,289,289,35,289,289,289,35,35,35,289,35,289,35,289,289,35,35,289,289,35,35,35,35,35,289,35,35,35,35,35,289,35,35,289,35,35,289,35,35,289,35,289,35,289,35,35,289,35,35,289,289,289,289,35,289,289,35,289,289,289,289,35,35,289,35,289,289,35,289,289,289,289,289,289,289,35,35,289,289,35,289,289,35,35,289,289,289,289,35,289,289,35,35,35,289,289,35,289,35,35,35,289,35,289,289,289,289,289,35,289,35,35,289,289,35,35,35,289,35,35,289,35,35,289,289,289,289,289,35,35,35,289,35,289,289,35,35,35,35,35,35,35,35,289,35,289,289,289,35,35,35,35,35,289,289,289,289,289,35,289,35,289,289,289,35,289,289,35,35,35,35,35,35,289,289,35,35],"coherence":1,"opposite_coherence":0,"dot_radius":2,"dot_side_length":1,"dot_life":-1,"move_distance":1,"aperture_width":300,"aperture_height":300,"dot_color":["white","black","white","black","white","white","black","white","white","black","white","black","black","black","black","white","white","white","white","black","black","black","black","black","black","white","black","black","black","white","white","white","black","white","black","white","black","black","white","white","black","black","white","white","white","white","white","black","white","white","white","white","white","black","white","white","black","white","white","black","white","white","black","white","black","white","black","white","white","black","white","white","black","black","black","black","white","black","black","white","black","black","black","black","white","white","black","white","black","black","white","black","black","black","black","black","black","black","white","white","black","black","white","black","black","white","white","black","black","black","black","white","black","black","white","white","white","black","black","white","black","white","white","white","black","white","black","black","black","black","black","white","black","white","white","black","black","white","white","white","black","white","white","black","white","white","black","black","black","black","black","white","white","white","black","white","black","black","white","white","white","white","white","white","white","white","black","white","black","black","black","white","white","white","white","white","black","black","black","black","black","white","black","white","black","black","black","white","black","black","white","white","white","white","white","white","black","black","white","white"],"dot_shape":"circle","background_color":"#AAA","RDK_type":3,"aperture_type":2,"reinsert_type":2,"frame_rate":16.675,"frame_rate_array":[3,15,16,16,17,17,17,17,17,17,16,17,17,17,17,17,17,17,17,16,16,18,17,17,16,17,17,17,17,17,17,17,17,17,16,17,16,17,17,17,17,17,17,16,17,17,17,17,17,17,16,17,17,17,17,17,16,17,17,16,17,17,17,17,17,17,17,17,17,17,16,16,17,17,17,17,17,17,17,17,17,16,17,17,17,17,17,17,17,17,17,17,17,16,17,16,17,18,15,16,17,17,16,16,17,17,17,17,17,17,17,16,17,17,17,17,16,16,17,17],"number_of_frames":120,"aperture_center_x":547,"aperture_center_y":307.5,"fixation_cross":true,"fixation_cross_width":15,"fixation_cross_height":15,"fixation_cross_color":"#111","fixation_cross_thickness":1,"border":true,"border_thickness":2,"border_color":"transparent","canvas_width":1094,"canvas_height":615,"trial_type":"rdk","trial_index":72,"plugin_version":"2.0.0","time_elapsed":342327},{"rt":3973,"stimulus":"\n        <div class=\"response-container\">\n          <div class=\"response-instruction\">\n            <p>rotate the bar by using the left and right arrow keys.</p>\n            <p>when you are determined, press the Enter key.</p>\n          </div>\n          <div class=\"response-circle\">\n            <div class=\"response-fixation\"></div>\n            <div id=\"bar\" class=\"rotating-bar\"></div>\n          </div>\n        </div>\n      ","response":"Enter","trial_type":"html-keyboard-response","trial_index":73,"plugin_version":"2.1.0","time_elapsed":346301,"random_initial_angle":332,"response_angle_css":402,"response_angle_rdk":48,"angular_error_target":13,"angular_error_distractor":119,"target_direction":35,"target_group":"white","reward_points":7},{"rt":null,"stimulus":"\n          <p style=\"color: #00FF00;\">Your reward: 7 points</p>\n        ","response":null,"trial_type":"html-keyboard-response","trial_index":74,"plugin_version":"2.1.0","time_elapsed":348312},{"rt":null,"stimulus":"<div class=\"fixation\" style=\"font-size: 60px;\">+</div>","response":null,"trial_type":"html-keyboard-response","trial_index":75,"plugin_version":"2.1.0","time_elapsed":349318},{"phase":"learning-awareness","target_group":"black","condition_label":"B_H_vs_W_L_rep2","target_direction":86,"distractor_direction":213,"session_rotation":353,"rt":-1,"response":"","correct":false,"choices":"ALL_KEYS","correct_choice":["a"],"trial_duration":2000,"flip_timestamps":[],"response_ends_trial":false,"number_of_apertures":200,"number_of_dots":[1,1,1,1,1,1,1,1,1,1,1,1,1,1,1,1,1,1,1,1,1,1,1,1,1,1,1,1,1,1,1,1,1,1,1,1,1,1,1,1,1,1,1,1,1,1,1,1,1,1,1,1,1,1,1,1,1,1,1,1,1,1,1,1,1,1,1,1,1,1,1,1,1,1,1,1,1,1,1,1,1,1,1,1,1,1,1,1,1,1,1,1,1,1,1,1,1,1,1,1,1,1,1,1,1,1,1,1,1,1,1,1,1,1,1,1,1,1,1,1,1,1,1,1,1,1,1,1,1,1,1,1,1,1,1,1,1,1,1,1,1,1,1,1,1,1,1,1,1,1,1,1,1,1,1,1,1,1,1,1,1,1,1,1,1,1,1,1,1,1,1,1,1,1,1,1,1,1,1,1,1,1,1,1,1,1,1,1,1,1,1,1,1,1,1,1,1,1,1,1],"number_of_sets":1,"coherent_direction":[86,213,213,86,86,86,213,86,213,86,213,86,86,86,213,86,86,213,86,86,213,213,86,213,86,213,213,86,213,213,213,86,213,86,213,213,213,213,213,86,213,86,86,213,213,86,86,213,86,86,86,213,213,86,86,86,213,213,86,213,213,213,86,86,213,86,86,86,86,86,213,86,213,86,86,213,213,86,213,86,213,213,86,213,86,213,86,213,213,86,86,213,86,213,213,86,213,213,213,213,86,86,213,86,86,213,213,213,213,86,213,86,86,213,213,213,86,86,213,213,213,213,213,86,213,213,86,86,86,213,213,86,213,213,213,86,86,86,213,86,213,86,86,213,86,213,213,86,86,213,86,213,86,86,213,213,86,86,86,86,213,86,86,213,213,86,86,86,86,213,213,213,213,213,86,86,86,213,86,86,213,213,213,213,213,86,213,86,213,213,86,86,86,86,86,213,86,213,86,86],"coherence":1,"opposite_coherence":0,"dot_radius":2,"dot_side_length":1,"dot_life":-1,"move_distance":1,"aperture_width":300,"aperture_height":300,"dot_color":["black","white","white","black","black","black","white","black","white","black","white","black","black","black","white","black","black","white","black","black","white","white","black","white","black","white","white","black","white","white","white","black","white","black","white","white","white","white","white","black","white","black","black","white","white","black","black","white","black","black","black","white","white","black","black","black","white","white","black","white","white","white","black","black","white","black","black","black","black","black","white","black","white","black","black","white","white","black","white","black","white","white","black","white","black","white","black","white","white","black","black","white","black","white","white","black","white","white","white","white","black","black","white","black","black","white","white","white","white","black","white","black","black","white","white","white","black","black","white","white","white","white","white","black","white","white","black","black","black","white","white","black","white","white","white","black","black","black","white","black","white","black","black","white","black","white","white","black","black","white","black","white","black","black","white","white","black","black","black","black","white","black","black","white","white","black","black","black","black","white","white","white","white","white","black","black","black","white","black","black","white","white","white","white","white","black","white","black","white","white","black","black","black","black","black","white","black","white","black","black"],"dot_shape":"circle","background_color":"#AAA","RDK_type":3,"aperture_type":2,"reinsert_type":2,"frame_rate":16.708333333333332,"frame_rate_array":[8,17,16,17,17,17,17,17,17,17,16,17,17,17,17,17,17,16,17,17,16,17,17,17,16,17,17,17,17,17,16,17,16,17,17,16,17,17,17,17,17,18,15,17,17,17,16,17,17,17,17,16,17,17,17,16,17,17,17,17,17,17,17,16,17,17,17,17,17,17,17,16,17,17,17,16,16,17,17,17,17,16,17,17,17,17,17,17,17,17,17,17,17,16,15,16,16,17,17,17,17,16,17,17,16,17,17,17,17,18,16,16,17,17,17,16,17,17,17,17],"number_of_frames":120,"aperture_center_x":547,"aperture_center_y":307.5,"fixation_cross":true,"fixation_cross_width":15,"fixation_cross_height":15,"fixation_cross_color":"#111","fixation_cross_thickness":1,"border":true,"border_thickness":2,"border_color":"transparent","canvas_width":1094,"canvas_height":615,"trial_type":"rdk","trial_index":76,"plugin_version":"2.0.0","time_elapsed":351329},{"rt":6554,"stimulus":"\n        <div class=\"response-container\">\n          <div class=\"response-instruction\">\n            <p>rotate the bar by using the left and right arrow keys.</p>\n            <p>when you are determined, press the Enter key.</p>\n          </div>\n          <div class=\"response-circle\">\n            <div class=\"response-fixation\"></div>\n            <div id=\"bar\" class=\"rotating-bar\"></div>\n          </div>\n        </div>\n      ","response":"Enter","trial_type":"html-keyboard-response","trial_index":77,"plugin_version":"2.1.0","time_elapsed":357884,"random_initial_angle":97,"response_angle_css":192,"response_angle_rdk":258,"angular_error_target":172,"angular_error_distractor":45,"target_direction":86,"target_group":"black","reward_points":0},{"rt":null,"stimulus":"\n          <p style=\"color: #FF3333;\">Your reward: 0 points</p>\n        ","response":null,"trial_type":"html-keyboard-response","trial_index":78,"plugin_version":"2.1.0","time_elapsed":359897},{"rt":null,"stimulus":"<div class=\"fixation\" style=\"font-size: 60px;\">+</div>","response":null,"trial_type":"html-keyboard-response","trial_index":79,"plugin_version":"2.1.0","time_elapsed":360908},{"phase":"learning-awareness","target_group":"white","condition_label":"W_H_vs_B_L_rep22","target_direction":18,"distractor_direction":277,"session_rotation":353,"rt":-1,"response":"","correct":false,"choices":"ALL_KEYS","correct_choice":["a"],"trial_duration":2000,"flip_timestamps":[],"response_ends_trial":false,"number_of_apertures":200,"number_of_dots":[1,1,1,1,1,1,1,1,1,1,1,1,1,1,1,1,1,1,1,1,1,1,1,1,1,1,1,1,1,1,1,1,1,1,1,1,1,1,1,1,1,1,1,1,1,1,1,1,1,1,1,1,1,1,1,1,1,1,1,1,1,1,1,1,1,1,1,1,1,1,1,1,1,1,1,1,1,1,1,1,1,1,1,1,1,1,1,1,1,1,1,1,1,1,1,1,1,1,1,1,1,1,1,1,1,1,1,1,1,1,1,1,1,1,1,1,1,1,1,1,1,1,1,1,1,1,1,1,1,1,1,1,1,1,1,1,1,1,1,1,1,1,1,1,1,1,1,1,1,1,1,1,1,1,1,1,1,1,1,1,1,1,1,1,1,1,1,1,1,1,1,1,1,1,1,1,1,1,1,1,1,1,1,1,1,1,1,1,1,1,1,1,1,1,1,1,1,1,1,1],"number_of_sets":1,"coherent_direction":[18,277,18,277,277,277,277,18,18,18,18,18,277,18,18,277,277,18,18,18,277,18,277,18,277,18,277,18,277,277,277,18,277,277,277,277,18,277,277,277,18,18,277,277,277,277,277,18,18,277,277,277,18,277,277,277,277,18,277,18,18,277,18,277,277,18,18,277,18,18,18,277,18,277,277,277,277,18,277,18,18,277,277,18,18,18,277,18,18,18,277,277,277,277,18,18,18,277,18,277,18,277,277,18,18,18,18,18,18,18,277,18,18,18,18,277,18,18,18,277,277,277,18,277,277,18,277,18,18,18,277,18,18,277,18,277,277,18,277,277,18,277,18,277,18,277,18,277,18,18,18,18,277,18,18,277,277,277,277,277,18,277,277,277,18,277,277,277,277,277,277,277,18,18,277,18,277,18,18,18,18,277,18,18,18,18,277,18,277,277,277,277,18,18,18,18,18,18,277,277],"coherence":1,"opposite_coherence":0,"dot_radius":2,"dot_side_length":1,"dot_life":-1,"move_distance":1,"aperture_width":300,"aperture_height":300,"dot_color":["white","black","white","black","black","black","black","white","white","white","white","white","black","white","white","black","black","white","white","white","black","white","black","white","black","white","black","white","black","black","black","white","black","black","black","black","white","black","black","black","white","white","black","black","black","black","black","white","white","black","black","black","white","black","black","black","black","white","black","white","white","black","white","black","black","white","white","black","white","white","white","black","white","black","black","black","black","white","black","white","white","black","black","white","white","white","black","white","white","white","black","black","black","black","white","white","white","black","white","black","white","black","black","white","white","white","white","white","white","white","black","white","white","white","white","black","white","white","white","black","black","black","white","black","black","white","black","white","white","white","black","white","white","black","white","black","black","white","black","black","white","black","white","black","white","black","white","black","white","white","white","white","black","white","white","black","black","black","black","black","white","black","black","black","white","black","black","black","black","black","black","black","white","white","black","white","black","white","white","white","white","black","white","white","white","white","black","white","black","black","black","black","white","white","white","white","white","white","black","black"],"dot_shape":"circle","background_color":"#AAA","RDK_type":3,"aperture_type":2,"reinsert_type":2,"frame_rate":16.758333333333333,"frame_rate_array":[7,16,18,16,17,17,17,17,17,17,17,17,16,17,17,16,17,17,16,17,17,17,17,17,17,17,17,17,17,17,17,17,16,17,17,17,17,17,17,17,17,16,17,17,17,17,17,17,17,17,17,16,17,17,17,17,17,17,16,17,17,17,17,17,17,17,16,17,17,17,17,17,17,17,17,16,17,16,17,17,17,16,17,16,17,16,17,17,17,17,17,17,17,17,17,17,16,17,17,17,17,17,17,17,17,17,17,17,16,17,16,17,17,17,17,16,17,17,16,17],"number_of_frames":120,"aperture_center_x":547,"aperture_center_y":307.5,"fixation_cross":true,"fixation_cross_width":15,"fixation_cross_height":15,"fixation_cross_color":"#111","fixation_cross_thickness":1,"border":true,"border_thickness":2,"border_color":"transparent","canvas_width":1094,"canvas_height":615,"trial_type":"rdk","trial_index":80,"plugin_version":"2.0.0","time_elapsed":362914},{"rt":6096,"stimulus":"\n        <div class=\"response-container\">\n          <div class=\"response-instruction\">\n            <p>rotate the bar by using the left and right arrow keys.</p>\n            <p>when you are determined, press the Enter key.</p>\n          </div>\n          <div class=\"response-circle\">\n            <div class=\"response-fixation\"></div>\n            <div id=\"bar\" class=\"rotating-bar\"></div>\n          </div>\n        </div>\n      ","response":"Enter","trial_type":"html-keyboard-response","trial_index":81,"plugin_version":"2.1.0","time_elapsed":369010,"random_initial_angle":295,"response_angle_css":196,"response_angle_rdk":254,"angular_error_target":-124,"angular_error_distractor":-23,"target_direction":18,"target_group":"white","reward_points":0},{"rt":null,"stimulus":"\n          <p style=\"color: #FF3333;\">Your reward: 0 points</p>\n        ","response":null,"trial_type":"html-keyboard-response","trial_index":82,"plugin_version":"2.1.0","time_elapsed":371019},{"rt":null,"stimulus":"<div class=\"fixation\" style=\"font-size: 60px;\">+</div>","response":null,"trial_type":"html-keyboard-response","trial_index":83,"plugin_version":"2.1.0","time_elapsed":372036},{"phase":"learning-awareness","target_group":"white","condition_label":"W_H_vs_B_L_rep17","target_direction":33,"distractor_direction":287,"session_rotation":353,"rt":-1,"response":"","correct":false,"choices":"ALL_KEYS","correct_choice":["a"],"trial_duration":2000,"flip_timestamps":[],"response_ends_trial":false,"number_of_apertures":200,"number_of_dots":[1,1,1,1,1,1,1,1,1,1,1,1,1,1,1,1,1,1,1,1,1,1,1,1,1,1,1,1,1,1,1,1,1,1,1,1,1,1,1,1,1,1,1,1,1,1,1,1,1,1,1,1,1,1,1,1,1,1,1,1,1,1,1,1,1,1,1,1,1,1,1,1,1,1,1,1,1,1,1,1,1,1,1,1,1,1,1,1,1,1,1,1,1,1,1,1,1,1,1,1,1,1,1,1,1,1,1,1,1,1,1,1,1,1,1,1,1,1,1,1,1,1,1,1,1,1,1,1,1,1,1,1,1,1,1,1,1,1,1,1,1,1,1,1,1,1,1,1,1,1,1,1,1,1,1,1,1,1,1,1,1,1,1,1,1,1,1,1,1,1,1,1,1,1,1,1,1,1,1,1,1,1,1,1,1,1,1,1,1,1,1,1,1,1,1,1,1,1,1,1],"number_of_sets":1,"coherent_direction":[287,33,287,33,33,287,33,33,33,33,33,287,33,287,287,287,33,287,287,287,287,287,287,33,33,287,287,287,287,33,287,33,287,287,287,33,33,33,287,33,287,287,33,33,33,287,33,33,287,33,33,33,33,33,287,33,287,33,33,287,33,287,33,287,287,287,287,33,287,33,287,33,287,287,287,287,33,287,33,287,33,33,33,287,287,287,33,287,287,287,33,287,33,33,287,287,287,287,287,33,33,33,33,287,287,33,287,287,287,287,287,287,287,33,33,33,33,33,33,33,33,33,33,287,33,33,287,33,33,33,33,287,33,33,33,287,287,33,287,33,287,33,33,33,287,287,33,287,33,33,287,287,33,33,33,33,33,287,287,287,287,287,287,33,287,287,33,287,287,33,287,33,33,287,287,33,33,287,33,33,287,33,33,287,287,33,287,287,33,33,33,287,33,287,33,33,287,287,287,287],"coherence":1,"opposite_coherence":0,"dot_radius":2,"dot_side_length":1,"dot_life":-1,"move_distance":1,"aperture_width":300,"aperture_height":300,"dot_color":["black","white","black","white","white","black","white","white","white","white","white","black","white","black","black","black","white","black","black","black","black","black","black","white","white","black","black","black","black","white","black","white","black","black","black","white","white","white","black","white","black","black","white","white","white","black","white","white","black","white","white","white","white","white","black","white","black","white","white","black","white","black","white","black","black","black","black","white","black","white","black","white","black","black","black","black","white","black","white","black","white","white","white","black","black","black","white","black","black","black","white","black","white","white","black","black","black","black","black","white","white","white","white","black","black","white","black","black","black","black","black","black","black","white","white","white","white","white","white","white","white","white","white","black","white","white","black","white","white","white","white","black","white","white","white","black","black","white","black","white","black","white","white","white","black","black","white","black","white","white","black","black","white","white","white","white","white","black","black","black","black","black","black","white","black","black","white","black","black","white","black","white","white","black","black","white","white","black","white","white","black","white","white","black","black","white","black","black","white","white","white","black","white","black","white","white","black","black","black","black"],"dot_shape":"circle","background_color":"#AAA","RDK_type":3,"aperture_type":2,"reinsert_type":2,"frame_rate":16.68595041322314,"frame_rate_array":[2,14,17,17,17,16,17,17,17,17,17,16,16,17,17,17,16,17,17,17,16,17,17,17,17,17,16,17,17,17,16,17,17,17,17,17,17,17,17,17,17,16,17,17,17,17,17,17,17,17,17,16,17,17,17,17,17,16,17,17,17,17,17,17,17,17,17,17,16,17,17,17,17,16,17,17,17,16,17,16,16,17,17,17,17,17,17,18,16,17,16,17,17,17,17,17,17,17,17,17,17,17,17,16,17,17,16,17,16,17,17,17,17,17,17,17,17,17,16,17,17],"number_of_frames":121,"aperture_center_x":547,"aperture_center_y":307.5,"fixation_cross":true,"fixation_cross_width":15,"fixation_cross_height":15,"fixation_cross_color":"#111","fixation_cross_thickness":1,"border":true,"border_thickness":2,"border_color":"transparent","canvas_width":1094,"canvas_height":615,"trial_type":"rdk","trial_index":84,"plugin_version":"2.0.0","time_elapsed":374043},{"rt":4078,"stimulus":"\n        <div class=\"response-container\">\n          <div class=\"response-instruction\">\n            <p>rotate the bar by using the left and right arrow keys.</p>\n            <p>when you are determined, press the Enter key.</p>\n          </div>\n          <div class=\"response-circle\">\n            <div class=\"response-fixation\"></div>\n            <div id=\"bar\" class=\"rotating-bar\"></div>\n          </div>\n        </div>\n      ","response":"Enter","trial_type":"html-keyboard-response","trial_index":85,"plugin_version":"2.1.0","time_elapsed":378123,"random_initial_angle":17,"response_angle_css":46,"response_angle_rdk":44,"angular_error_target":11,"angular_error_distractor":117,"target_direction":33,"target_group":"white","reward_points":7},{"rt":null,"stimulus":"\n          <p style=\"color: #00FF00;\">Your reward: 7 points</p>\n        ","response":null,"trial_type":"html-keyboard-response","trial_index":86,"plugin_version":"2.1.0","time_elapsed":380139},{"rt":null,"stimulus":"<div class=\"fixation\" style=\"font-size: 60px;\">+</div>","response":null,"trial_type":"html-keyboard-response","trial_index":87,"plugin_version":"2.1.0","time_elapsed":381141},{"phase":"learning-awareness","target_group":"white","condition_label":"W_H_vs_B_L_rep12","target_direction":34,"distractor_direction":290,"session_rotation":353,"rt":-1,"response":"","correct":false,"choices":"ALL_KEYS","correct_choice":["a"],"trial_duration":2000,"flip_timestamps":[],"response_ends_trial":false,"number_of_apertures":200,"number_of_dots":[1,1,1,1,1,1,1,1,1,1,1,1,1,1,1,1,1,1,1,1,1,1,1,1,1,1,1,1,1,1,1,1,1,1,1,1,1,1,1,1,1,1,1,1,1,1,1,1,1,1,1,1,1,1,1,1,1,1,1,1,1,1,1,1,1,1,1,1,1,1,1,1,1,1,1,1,1,1,1,1,1,1,1,1,1,1,1,1,1,1,1,1,1,1,1,1,1,1,1,1,1,1,1,1,1,1,1,1,1,1,1,1,1,1,1,1,1,1,1,1,1,1,1,1,1,1,1,1,1,1,1,1,1,1,1,1,1,1,1,1,1,1,1,1,1,1,1,1,1,1,1,1,1,1,1,1,1,1,1,1,1,1,1,1,1,1,1,1,1,1,1,1,1,1,1,1,1,1,1,1,1,1,1,1,1,1,1,1,1,1,1,1,1,1,1,1,1,1,1,1],"number_of_sets":1,"coherent_direction":[290,290,290,34,290,290,290,290,34,34,290,34,290,290,34,34,290,34,290,290,290,34,34,34,290,290,34,290,290,290,34,290,34,290,290,290,290,34,290,34,34,34,34,34,290,34,290,290,34,34,290,290,290,34,290,34,290,34,290,34,290,34,34,34,34,34,290,34,34,290,290,34,34,34,290,290,290,34,34,34,290,290,34,34,34,34,290,34,290,290,290,290,34,34,290,34,34,290,34,290,34,290,290,290,290,290,290,34,290,34,34,34,290,290,34,290,290,290,34,34,34,34,290,34,34,34,34,290,290,290,290,34,290,34,34,34,290,290,290,290,290,34,290,34,34,290,290,290,290,34,290,34,34,34,34,290,34,290,34,290,34,290,290,34,34,290,290,34,290,34,290,34,34,290,290,290,290,34,290,34,34,290,34,34,34,290,34,34,290,290,34,290,34,290,34,34,34,34,34,34],"coherence":1,"opposite_coherence":0,"dot_radius":2,"dot_side_length":1,"dot_life":-1,"move_distance":1,"aperture_width":300,"aperture_height":300,"dot_color":["black","black","black","white","black","black","black","black","white","white","black","white","black","black","white","white","black","white","black","black","black","white","white","white","black","black","white","black","black","black","white","black","white","black","black","black","black","white","black","white","white","white","white","white","black","white","black","black","white","white","black","black","black","white","black","white","black","white","black","white","black","white","white","white","white","white","black","white","white","black","black","white","white","white","black","black","black","white","white","white","black","black","white","white","white","white","black","white","black","black","black","black","white","white","black","white","white","black","white","black","white","black","black","black","black","black","black","white","black","white","white","white","black","black","white","black","black","black","white","white","white","white","black","white","white","white","white","black","black","black","black","white","black","white","white","white","black","black","black","black","black","white","black","white","white","black","black","black","black","white","black","white","white","white","white","black","white","black","white","black","white","black","black","white","white","black","black","white","black","white","black","white","white","black","black","black","black","white","black","white","white","black","white","white","white","black","white","white","black","black","white","black","white","black","white","white","white","white","white","white"],"dot_shape":"circle","background_color":"#AAA","RDK_type":3,"aperture_type":2,"reinsert_type":2,"frame_rate":16.636363636363637,"frame_rate_array":[3,13,17,17,17,17,16,18,16,17,16,17,16,17,16,17,17,16,17,17,17,17,17,17,16,17,17,17,17,17,17,17,17,17,17,17,17,16,17,17,16,17,16,17,16,17,17,17,17,17,17,17,17,17,17,17,16,16,17,17,17,17,16,16,17,17,17,16,16,17,17,17,17,17,17,17,17,16,17,17,17,16,18,16,17,17,17,17,16,17,17,16,17,17,16,16,17,17,16,17,18,17,17,16,17,17,17,17,17,16,17,17,17,17,16,17,17,17,17,16,17],"number_of_frames":121,"aperture_center_x":547,"aperture_center_y":307.5,"fixation_cross":true,"fixation_cross_width":15,"fixation_cross_height":15,"fixation_cross_color":"#111","fixation_cross_thickness":1,"border":true,"border_thickness":2,"border_color":"transparent","canvas_width":1094,"canvas_height":615,"trial_type":"rdk","trial_index":88,"plugin_version":"2.0.0","time_elapsed":383146},{"rt":5258,"stimulus":"\n        <div class=\"response-container\">\n          <div class=\"response-instruction\">\n            <p>rotate the bar by using the left and right arrow keys.</p>\n            <p>when you are determined, press the Enter key.</p>\n          </div>\n          <div class=\"response-circle\">\n            <div class=\"response-fixation\"></div>\n            <div id=\"bar\" class=\"rotating-bar\"></div>\n          </div>\n        </div>\n      ","response":"Enter","trial_type":"html-keyboard-response","trial_index":89,"plugin_version":"2.1.0","time_elapsed":388406,"random_initial_angle":323,"response_angle_css":378,"response_angle_rdk":72,"angular_error_target":38,"angular_error_distractor":142,"target_direction":34,"target_group":"white","reward_points":2},{"rt":null,"stimulus":"\n          <p style=\"color: #FF3333;\">Your reward: 2 points</p>\n        ","response":null,"trial_type":"html-keyboard-response","trial_index":90,"plugin_version":"2.1.0","time_elapsed":390407},{"rt":null,"stimulus":"<div class=\"fixation\" style=\"font-size: 60px;\">+</div>","response":null,"trial_type":"html-keyboard-response","trial_index":91,"plugin_version":"2.1.0","time_elapsed":391424},{"phase":"learning-awareness","target_group":"white","condition_label":"W_H_vs_B_L_rep14","target_direction":1,"distractor_direction":266,"session_rotation":353,"rt":-1,"response":"","correct":false,"choices":"ALL_KEYS","correct_choice":["a"],"trial_duration":2000,"flip_timestamps":[],"response_ends_trial":false,"number_of_apertures":200,"number_of_dots":[1,1,1,1,1,1,1,1,1,1,1,1,1,1,1,1,1,1,1,1,1,1,1,1,1,1,1,1,1,1,1,1,1,1,1,1,1,1,1,1,1,1,1,1,1,1,1,1,1,1,1,1,1,1,1,1,1,1,1,1,1,1,1,1,1,1,1,1,1,1,1,1,1,1,1,1,1,1,1,1,1,1,1,1,1,1,1,1,1,1,1,1,1,1,1,1,1,1,1,1,1,1,1,1,1,1,1,1,1,1,1,1,1,1,1,1,1,1,1,1,1,1,1,1,1,1,1,1,1,1,1,1,1,1,1,1,1,1,1,1,1,1,1,1,1,1,1,1,1,1,1,1,1,1,1,1,1,1,1,1,1,1,1,1,1,1,1,1,1,1,1,1,1,1,1,1,1,1,1,1,1,1,1,1,1,1,1,1,1,1,1,1,1,1,1,1,1,1,1,1],"number_of_sets":1,"coherent_direction":[1,1,266,266,266,1,266,266,1,266,266,1,1,1,1,1,266,266,1,1,266,266,1,266,1,1,1,1,1,1,266,1,266,1,1,266,266,266,266,266,266,266,1,266,266,1,266,266,266,1,1,1,1,266,1,266,1,1,1,1,266,266,266,266,1,266,1,266,266,1,1,266,266,266,266,1,266,1,266,1,1,266,1,1,1,1,1,1,266,1,1,266,266,1,1,1,1,266,1,1,266,266,1,266,1,1,1,1,266,266,1,1,1,266,266,266,266,266,266,266,1,266,1,266,266,1,266,266,1,266,1,1,266,266,266,1,1,1,266,1,1,266,1,1,266,266,1,266,266,1,266,1,1,266,1,1,266,266,1,266,1,266,266,266,1,266,1,266,266,1,266,266,266,266,266,1,266,1,1,1,1,266,1,266,1,1,266,266,1,266,266,266,1,1,266,266,1,266,1,1],"coherence":1,"opposite_coherence":0,"dot_radius":2,"dot_side_length":1,"dot_life":-1,"move_distance":1,"aperture_width":300,"aperture_height":300,"dot_color":["white","white","black","black","black","white","black","black","white","black","black","white","white","white","white","white","black","black","white","white","black","black","white","black","white","white","white","white","white","white","black","white","black","white","white","black","black","black","black","black","black","black","white","black","black","white","black","black","black","white","white","white","white","black","white","black","white","white","white","white","black","black","black","black","white","black","white","black","black","white","white","black","black","black","black","white","black","white","black","white","white","black","white","white","white","white","white","white","black","white","white","black","black","white","white","white","white","black","white","white","black","black","white","black","white","white","white","white","black","black","white","white","white","black","black","black","black","black","black","black","white","black","white","black","black","white","black","black","white","black","white","white","black","black","black","white","white","white","black","white","white","black","white","white","black","black","white","black","black","white","black","white","white","black","white","white","black","black","white","black","white","black","black","black","white","black","white","black","black","white","black","black","black","black","black","white","black","white","white","white","white","black","white","black","white","white","black","black","white","black","black","black","white","white","black","black","white","black","white","white"],"dot_shape":"circle","background_color":"#AAA","RDK_type":3,"aperture_type":2,"reinsert_type":2,"frame_rate":16.694214876033058,"frame_rate_array":[5,15,17,17,17,17,17,16,17,17,17,17,17,17,17,17,17,16,17,17,17,16,16,17,17,16,17,17,17,17,17,17,17,17,16,17,17,16,17,17,17,17,17,17,16,16,18,16,17,17,17,17,16,17,17,17,17,17,17,17,16,17,17,18,15,17,16,17,17,17,17,17,17,16,17,16,17,17,17,18,16,15,17,17,17,17,17,17,17,17,17,17,17,17,17,17,18,15,17,16,17,17,17,17,17,17,17,16,17,16,17,16,17,17,15,17,17,18,17,17,17],"number_of_frames":121,"aperture_center_x":547,"aperture_center_y":307.5,"fixation_cross":true,"fixation_cross_width":15,"fixation_cross_height":15,"fixation_cross_color":"#111","fixation_cross_thickness":1,"border":true,"border_thickness":2,"border_color":"transparent","canvas_width":1094,"canvas_height":615,"trial_type":"rdk","trial_index":92,"plugin_version":"2.0.0","time_elapsed":393434},{"rt":4833,"stimulus":"\n        <div class=\"response-container\">\n          <div class=\"response-instruction\">\n            <p>rotate the bar by using the left and right arrow keys.</p>\n            <p>when you are determined, press the Enter key.</p>\n          </div>\n          <div class=\"response-circle\">\n            <div class=\"response-fixation\"></div>\n            <div id=\"bar\" class=\"rotating-bar\"></div>\n          </div>\n        </div>\n      ","response":"Enter","trial_type":"html-keyboard-response","trial_index":93,"plugin_version":"2.1.0","time_elapsed":398268,"random_initial_angle":156,"response_angle_css":217,"response_angle_rdk":233,"angular_error_target":-128,"angular_error_distractor":-33,"target_direction":1,"target_group":"white","reward_points":0},{"rt":null,"stimulus":"\n          <p style=\"color: #FF3333;\">Your reward: 0 points</p>\n        ","response":null,"trial_type":"html-keyboard-response","trial_index":94,"plugin_version":"2.1.0","time_elapsed":400283},{"rt":null,"stimulus":"<div class=\"fixation\" style=\"font-size: 60px;\">+</div>","response":null,"trial_type":"html-keyboard-response","trial_index":95,"plugin_version":"2.1.0","time_elapsed":401293},{"phase":"learning-awareness","target_group":"white","condition_label":"W_H_vs_B_L_rep9","target_direction":8,"distractor_direction":267,"session_rotation":353,"rt":-1,"response":"","correct":false,"choices":"ALL_KEYS","correct_choice":["a"],"trial_duration":2000,"flip_timestamps":[],"response_ends_trial":false,"number_of_apertures":200,"number_of_dots":[1,1,1,1,1,1,1,1,1,1,1,1,1,1,1,1,1,1,1,1,1,1,1,1,1,1,1,1,1,1,1,1,1,1,1,1,1,1,1,1,1,1,1,1,1,1,1,1,1,1,1,1,1,1,1,1,1,1,1,1,1,1,1,1,1,1,1,1,1,1,1,1,1,1,1,1,1,1,1,1,1,1,1,1,1,1,1,1,1,1,1,1,1,1,1,1,1,1,1,1,1,1,1,1,1,1,1,1,1,1,1,1,1,1,1,1,1,1,1,1,1,1,1,1,1,1,1,1,1,1,1,1,1,1,1,1,1,1,1,1,1,1,1,1,1,1,1,1,1,1,1,1,1,1,1,1,1,1,1,1,1,1,1,1,1,1,1,1,1,1,1,1,1,1,1,1,1,1,1,1,1,1,1,1,1,1,1,1,1,1,1,1,1,1,1,1,1,1,1,1],"number_of_sets":1,"coherent_direction":[267,8,267,267,267,8,267,8,8,267,8,8,8,8,267,8,8,267,267,267,8,8,267,8,267,267,267,267,267,267,8,8,8,267,267,267,8,267,267,8,267,267,267,8,267,8,8,267,267,8,267,267,8,8,8,267,267,8,8,267,267,8,8,267,267,267,8,267,267,267,267,8,267,8,267,267,8,267,8,267,267,8,267,267,267,8,267,8,8,267,8,267,267,267,267,8,267,8,8,267,8,8,8,267,8,8,267,8,8,267,8,267,267,8,8,8,267,267,267,267,8,8,8,8,267,8,8,267,267,267,8,267,8,267,267,8,8,8,8,8,267,8,8,267,8,8,8,267,8,267,8,267,267,8,267,8,8,8,8,267,8,8,8,267,8,8,267,267,8,8,267,267,267,8,8,8,267,8,267,8,8,8,267,8,267,267,8,267,8,8,8,267,267,267,8,8,8,267,267,267],"coherence":1,"opposite_coherence":0,"dot_radius":2,"dot_side_length":1,"dot_life":-1,"move_distance":1,"aperture_width":300,"aperture_height":300,"dot_color":["black","white","black","black","black","white","black","white","white","black","white","white","white","white","black","white","white","black","black","black","white","white","black","white","black","black","black","black","black","black","white","white","white","black","black","black","white","black","black","white","black","black","black","white","black","white","white","black","black","white","black","black","white","white","white","black","black","white","white","black","black","white","white","black","black","black","white","black","black","black","black","white","black","white","black","black","white","black","white","black","black","white","black","black","black","white","black","white","white","black","white","black","black","black","black","white","black","white","white","black","white","white","white","black","white","white","black","white","white","black","white","black","black","white","white","white","black","black","black","black","white","white","white","white","black","white","white","black","black","black","white","black","white","black","black","white","white","white","white","white","black","white","white","black","white","white","white","black","white","black","white","black","black","white","black","white","white","white","white","black","white","white","white","black","white","white","black","black","white","white","black","black","black","white","white","white","black","white","black","white","white","white","black","white","black","black","white","black","white","white","white","black","black","black","white","white","white","black","black","black"],"dot_shape":"circle","background_color":"#AAA","RDK_type":3,"aperture_type":2,"reinsert_type":2,"frame_rate":16.677685950413224,"frame_rate_array":[5,16,17,16,17,17,17,17,17,17,17,17,17,17,17,17,17,17,17,17,17,16,17,16,17,16,17,17,16,17,17,17,17,16,17,17,16,17,17,17,17,17,16,17,17,16,17,17,17,17,17,17,17,17,17,17,17,17,17,16,17,16,16,18,16,17,17,17,16,17,17,16,17,16,17,17,17,17,16,17,17,17,17,17,17,17,17,17,17,17,16,17,17,16,17,17,16,17,16,17,16,18,17,16,17,17,16,17,16,17,17,17,17,16,17,16,17,17,17,16,17],"number_of_frames":121,"aperture_center_x":547,"aperture_center_y":307.5,"fixation_cross":true,"fixation_cross_width":15,"fixation_cross_height":15,"fixation_cross_color":"#111","fixation_cross_thickness":1,"border":true,"border_thickness":2,"border_color":"transparent","canvas_width":1094,"canvas_height":615,"trial_type":"rdk","trial_index":96,"plugin_version":"2.0.0","time_elapsed":403305},{"rt":4915,"stimulus":"\n        <div class=\"response-container\">\n          <div class=\"response-instruction\">\n            <p>rotate the bar by using the left and right arrow keys.</p>\n            <p>when you are determined, press the Enter key.</p>\n          </div>\n          <div class=\"response-circle\">\n            <div class=\"response-fixation\"></div>\n            <div id=\"bar\" class=\"rotating-bar\"></div>\n          </div>\n        </div>\n      ","response":"Enter","trial_type":"html-keyboard-response","trial_index":97,"plugin_version":"2.1.0","time_elapsed":408221,"random_initial_angle":35,"response_angle_css":-141,"response_angle_rdk":231,"angular_error_target":-137,"angular_error_distractor":-36,"target_direction":8,"target_group":"white","reward_points":0},{"rt":null,"stimulus":"\n          <p style=\"color: #FF3333;\">Your reward: 0 points</p>\n        ","response":null,"trial_type":"html-keyboard-response","trial_index":98,"plugin_version":"2.1.0","time_elapsed":410234},{"rt":null,"stimulus":"<div class=\"fixation\" style=\"font-size: 60px;\">+</div>","response":null,"trial_type":"html-keyboard-response","trial_index":99,"plugin_version":"2.1.0","time_elapsed":411251},{"phase":"learning-awareness","target_group":"black","condition_label":"B_H_vs_W_L_rep7","target_direction":108,"distractor_direction":209,"session_rotation":353,"rt":-1,"response":"","correct":false,"choices":"ALL_KEYS","correct_choice":["a"],"trial_duration":2000,"flip_timestamps":[],"response_ends_trial":false,"number_of_apertures":200,"number_of_dots":[1,1,1,1,1,1,1,1,1,1,1,1,1,1,1,1,1,1,1,1,1,1,1,1,1,1,1,1,1,1,1,1,1,1,1,1,1,1,1,1,1,1,1,1,1,1,1,1,1,1,1,1,1,1,1,1,1,1,1,1,1,1,1,1,1,1,1,1,1,1,1,1,1,1,1,1,1,1,1,1,1,1,1,1,1,1,1,1,1,1,1,1,1,1,1,1,1,1,1,1,1,1,1,1,1,1,1,1,1,1,1,1,1,1,1,1,1,1,1,1,1,1,1,1,1,1,1,1,1,1,1,1,1,1,1,1,1,1,1,1,1,1,1,1,1,1,1,1,1,1,1,1,1,1,1,1,1,1,1,1,1,1,1,1,1,1,1,1,1,1,1,1,1,1,1,1,1,1,1,1,1,1,1,1,1,1,1,1,1,1,1,1,1,1,1,1,1,1,1,1],"number_of_sets":1,"coherent_direction":[209,209,108,108,209,209,209,108,108,108,209,209,108,108,108,108,209,209,209,108,108,108,209,108,108,209,108,209,108,209,108,209,209,108,108,108,108,209,209,209,209,108,108,209,209,108,108,209,209,209,108,209,108,108,209,209,209,108,209,209,209,108,108,108,108,108,209,108,209,209,209,209,209,209,108,209,108,108,209,108,108,108,108,209,108,108,209,108,209,209,209,108,108,209,209,108,209,108,108,108,108,108,108,209,209,108,108,209,209,209,209,209,209,108,108,108,108,108,209,209,209,108,108,108,108,108,108,108,209,209,209,209,209,209,209,108,209,108,209,108,108,108,108,209,108,209,108,209,209,108,209,209,209,108,209,209,209,209,108,209,108,108,108,108,209,108,209,209,108,209,108,108,209,108,209,108,108,209,108,108,209,209,209,108,108,209,209,108,209,209,108,108,209,209,209,108,108,209,108,209],"coherence":1,"opposite_coherence":0,"dot_radius":2,"dot_side_length":1,"dot_life":-1,"move_distance":1,"aperture_width":300,"aperture_height":300,"dot_color":["white","white","black","black","white","white","white","black","black","black","white","white","black","black","black","black","white","white","white","black","black","black","white","black","black","white","black","white","black","white","black","white","white","black","black","black","black","white","white","white","white","black","black","white","white","black","black","white","white","white","black","white","black","black","white","white","white","black","white","white","white","black","black","black","black","black","white","black","white","white","white","white","white","white","black","white","black","black","white","black","black","black","black","white","black","black","white","black","white","white","white","black","black","white","white","black","white","black","black","black","black","black","black","white","white","black","black","white","white","white","white","white","white","black","black","black","black","black","white","white","white","black","black","black","black","black","black","black","white","white","white","white","white","white","white","black","white","black","white","black","black","black","black","white","black","white","black","white","white","black","white","white","white","black","white","white","white","white","black","white","black","black","black","black","white","black","white","white","black","white","black","black","white","black","white","black","black","white","black","black","white","white","white","black","black","white","white","black","white","white","black","black","white","white","white","black","black","white","black","white"],"dot_shape":"circle","background_color":"#AAA","RDK_type":3,"aperture_type":2,"reinsert_type":2,"frame_rate":16.65289256198347,"frame_rate_array":[2,14,17,17,17,17,17,17,18,16,16,17,17,17,17,16,17,17,17,16,17,17,16,17,16,16,17,16,17,18,16,17,17,16,17,17,17,17,17,17,16,16,17,17,17,17,17,17,17,16,17,17,17,17,16,17,17,17,17,17,17,16,17,17,17,17,17,17,17,16,17,17,17,17,17,16,15,17,17,18,17,16,17,18,16,17,16,17,17,17,16,17,17,17,17,17,17,17,17,17,17,17,17,17,17,17,16,17,16,17,16,17,17,17,16,17,16,17,17,17,17],"number_of_frames":121,"aperture_center_x":547,"aperture_center_y":307.5,"fixation_cross":true,"fixation_cross_width":15,"fixation_cross_height":15,"fixation_cross_color":"#111","fixation_cross_thickness":1,"border":true,"border_thickness":2,"border_color":"transparent","canvas_width":1094,"canvas_height":615,"trial_type":"rdk","trial_index":100,"plugin_version":"2.0.0","time_elapsed":413257},{"rt":5953,"stimulus":"\n        <div class=\"response-container\">\n          <div class=\"response-instruction\">\n            <p>rotate the bar by using the left and right arrow keys.</p>\n            <p>when you are determined, press the Enter key.</p>\n          </div>\n          <div class=\"response-circle\">\n            <div class=\"response-fixation\"></div>\n            <div id=\"bar\" class=\"rotating-bar\"></div>\n          </div>\n        </div>\n      ","response":"Enter","trial_type":"html-keyboard-response","trial_index":101,"plugin_version":"2.1.0","time_elapsed":419210,"random_initial_angle":118,"response_angle_css":91,"response_angle_rdk":359,"angular_error_target":-109,"angular_error_distractor":150,"target_direction":108,"target_group":"black","reward_points":0},{"rt":null,"stimulus":"\n          <p style=\"color: #FF3333;\">Your reward: 0 points</p>\n        ","response":null,"trial_type":"html-keyboard-response","trial_index":102,"plugin_version":"2.1.0","time_elapsed":421224},{"rt":null,"stimulus":"<div class=\"fixation\" style=\"font-size: 60px;\">+</div>","response":null,"trial_type":"html-keyboard-response","trial_index":103,"plugin_version":"2.1.0","time_elapsed":422237},{"phase":"learning-awareness","target_group":"black","condition_label":"B_H_vs_W_L_rep5","target_direction":90,"distractor_direction":197,"session_rotation":353,"rt":-1,"response":"","correct":false,"choices":"ALL_KEYS","correct_choice":["a"],"trial_duration":2000,"flip_timestamps":[],"response_ends_trial":false,"number_of_apertures":200,"number_of_dots":[1,1,1,1,1,1,1,1,1,1,1,1,1,1,1,1,1,1,1,1,1,1,1,1,1,1,1,1,1,1,1,1,1,1,1,1,1,1,1,1,1,1,1,1,1,1,1,1,1,1,1,1,1,1,1,1,1,1,1,1,1,1,1,1,1,1,1,1,1,1,1,1,1,1,1,1,1,1,1,1,1,1,1,1,1,1,1,1,1,1,1,1,1,1,1,1,1,1,1,1,1,1,1,1,1,1,1,1,1,1,1,1,1,1,1,1,1,1,1,1,1,1,1,1,1,1,1,1,1,1,1,1,1,1,1,1,1,1,1,1,1,1,1,1,1,1,1,1,1,1,1,1,1,1,1,1,1,1,1,1,1,1,1,1,1,1,1,1,1,1,1,1,1,1,1,1,1,1,1,1,1,1,1,1,1,1,1,1,1,1,1,1,1,1,1,1,1,1,1,1],"number_of_sets":1,"coherent_direction":[90,197,197,197,197,90,197,90,90,90,90,90,90,197,197,197,90,197,197,197,197,90,197,90,90,197,197,90,90,90,197,90,197,197,90,90,197,197,197,90,90,90,90,197,197,197,90,197,197,197,90,197,90,90,197,90,197,197,90,90,197,90,197,197,90,90,197,197,90,90,90,90,90,197,197,90,197,197,197,90,90,197,90,197,90,90,90,90,197,197,197,197,90,197,90,90,197,197,197,90,197,197,197,197,90,90,197,197,90,90,90,90,90,90,90,197,90,197,90,90,197,90,197,197,90,197,197,197,197,90,197,197,197,197,197,90,197,90,90,90,197,197,90,90,90,90,90,90,90,197,197,90,197,90,197,90,90,90,90,197,90,90,197,90,90,90,90,197,197,197,90,90,197,197,90,197,197,197,197,90,90,197,197,197,90,197,197,197,90,90,197,90,90,197,197,197,90,197,90,90],"coherence":1,"opposite_coherence":0,"dot_radius":2,"dot_side_length":1,"dot_life":-1,"move_distance":1,"aperture_width":300,"aperture_height":300,"dot_color":["black","white","white","white","white","black","white","black","black","black","black","black","black","white","white","white","black","white","white","white","white","black","white","black","black","white","white","black","black","black","white","black","white","white","black","black","white","white","white","black","black","black","black","white","white","white","black","white","white","white","black","white","black","black","white","black","white","white","black","black","white","black","white","white","black","black","white","white","black","black","black","black","black","white","white","black","white","white","white","black","black","white","black","white","black","black","black","black","white","white","white","white","black","white","black","black","white","white","white","black","white","white","white","white","black","black","white","white","black","black","black","black","black","black","black","white","black","white","black","black","white","black","white","white","black","white","white","white","white","black","white","white","white","white","white","black","white","black","black","black","white","white","black","black","black","black","black","black","black","white","white","black","white","black","white","black","black","black","black","white","black","black","white","black","black","black","black","white","white","white","black","black","white","white","black","white","white","white","white","black","black","white","white","white","black","white","white","white","black","black","white","black","black","white","white","white","black","white","black","black"],"dot_shape":"circle","background_color":"#AAA","RDK_type":3,"aperture_type":2,"reinsert_type":2,"frame_rate":16.658333333333335,"frame_rate_array":[4,15,17,16,17,17,17,17,17,16,17,16,17,17,16,17,17,17,17,17,17,16,17,17,17,16,17,17,17,16,17,17,16,17,17,16,17,17,17,16,17,17,17,16,17,17,17,16,17,17,17,17,17,17,17,17,17,17,16,17,16,16,17,17,17,16,17,17,17,16,17,17,17,16,17,17,17,17,17,17,17,17,17,17,16,17,17,17,17,17,17,17,16,17,17,17,17,17,17,17,16,17,16,17,17,16,17,17,17,17,17,17,17,17,17,16,17,16,16,17],"number_of_frames":120,"aperture_center_x":547,"aperture_center_y":307.5,"fixation_cross":true,"fixation_cross_width":15,"fixation_cross_height":15,"fixation_cross_color":"#111","fixation_cross_thickness":1,"border":true,"border_thickness":2,"border_color":"transparent","canvas_width":1094,"canvas_height":615,"trial_type":"rdk","trial_index":104,"plugin_version":"2.0.0","time_elapsed":424241},{"rt":8652,"stimulus":"\n        <div class=\"response-container\">\n          <div class=\"response-instruction\">\n            <p>rotate the bar by using the left and right arrow keys.</p>\n            <p>when you are determined, press the Enter key.</p>\n          </div>\n          <div class=\"response-circle\">\n            <div class=\"response-fixation\"></div>\n            <div id=\"bar\" class=\"rotating-bar\"></div>\n          </div>\n        </div>\n      ","response":"Enter","trial_type":"html-keyboard-response","trial_index":105,"plugin_version":"2.1.0","time_elapsed":432895,"random_initial_angle":145,"response_angle_css":156,"response_angle_rdk":294,"angular_error_target":-156,"angular_error_distractor":97,"target_direction":90,"target_group":"black","reward_points":0},{"rt":null,"stimulus":"\n          <p style=\"color: #FF3333;\">Your reward: 0 points</p>\n        ","response":null,"trial_type":"html-keyboard-response","trial_index":106,"plugin_version":"2.1.0","time_elapsed":434895},{"rt":null,"stimulus":"<div class=\"fixation\" style=\"font-size: 60px;\">+</div>","response":null,"trial_type":"html-keyboard-response","trial_index":107,"plugin_version":"2.1.0","time_elapsed":435911},{"phase":"learning-awareness","target_group":"black","condition_label":"B_H_vs_W_L_rep13","target_direction":83,"distractor_direction":178,"session_rotation":353,"rt":-1,"response":"","correct":false,"choices":"ALL_KEYS","correct_choice":["a"],"trial_duration":2000,"flip_timestamps":[],"response_ends_trial":false,"number_of_apertures":