[{"rt":12796,"stimulus":"Welcome to the experiment. Press any key to begin.","response":" ","trial_type":"html-keyboard-response","trial_index":0,"plugin_version":"2.1.0","time_elapsed":12806},{"rt":73601,"stimulus":"\n        <div class=\"instructions-container\">\n          <h2>Instructions</h2>\n\n          <p>\n          In this experiment, you will see <strong>two Random Dot Kinematograms (RDKs)</strong> displayed simultaneously.\n          </p>\n\n          <p>\n          An RDK is a visual stimulus consisting of many small dots that move coherently in a single direction. \n          In this experiment, the dots will be either <strong>white</strong> or <strong>black</strong> \n          (see the short demo below for an example of an RDK stimulus).\n          </p>\n\n          <p>\n          On each trial, the two RDKs will move in different directions. \n          Your task is to decide <strong>which RDK appears to contain more dots</strong>.\n          </p>\n\n          <p>\n          The RDK that you judge to have more dots is called the <strong>target RDK</strong>. \n          For example, if the white RDK appears to have more dots than the black RDK, \n          you should report the motion direction of the white RDK.\n          </p>\n\n          <p>\n          After viewing the RDKs, you will rotate a bar to indicate the perceived direction of the target RDK \n          using the <strong>left</strong> and <strong>right arrow keys</strong>. \n          Press <strong>Enter</strong> when you are satisfied with your response.\n          </p>\n\n          <p>\n          You will receive points based on the <strong>accuracy of your response</strong>, \n          and your final <strong>bonus reward</strong> may depend on your overall performance. \n          Please try to respond as accurately as possible.\n          </p>\n\n          <p>\n          You will first complete <strong>16 practice trials</strong>. \n          Press the <strong>Enter</strong> key to start the practice phase.\n          </p>\n\n          <canvas id=\"instruction-demo-rdk\" width=\"200\" height=\"200\"style=\"display:block;margin:12px auto; border-radius: 50%;\"></canvas>\n        </div>\n      ","response":"Enter","trial_type":"html-keyboard-response","trial_index":1,"plugin_version":"2.1.0","time_elapsed":86410},{"rt":null,"stimulus":"<div class=\"fixation\" style=\"font-size: 60px;\">+</div>","response":null,"trial_type":"html-keyboard-response","trial_index":2,"plugin_version":"2.1.0","time_elapsed":87422},{"target_group":"white","target_index":0,"condition_label":"practice","rt":-1,"response":"","correct":false,"choices":"ALL_KEYS","correct_choice":["a"],"trial_duration":2000,"flip_timestamps":[],"response_ends_trial":false,"number_of_apertures":2,"number_of_dots":[100,97],"number_of_sets":1,"coherent_direction":[10,181],"coherence":1,"opposite_coherence":0,"dot_radius":2,"dot_side_length":1,"dot_life":-1,"move_distance":1,"aperture_width":300,"aperture_height":300,"dot_color":["white","black"],"dot_shape":"circle","background_color":"#AAA","RDK_type":3,"aperture_type":2,"reinsert_type":2,"frame_rate":16.558333333333334,"frame_rate_array":[1,25,10,17,17,17,17,16,17,16,17,17,17,16,16,18,16,17,15,17,18,16,16,17,17,17,17,16,17,17,16,17,16,17,17,17,16,17,17,16,17,16,17,16,18,16,17,16,18,17,16,17,16,17,16,17,17,16,17,17,17,16,17,17,17,15,17,17,18,16,16,17,16,17,17,17,17,16,17,16,17,16,16,17,17,16,18,16,17,17,18,15,17,17,17,16,17,16,17,17,17,16,16,17,17,16,16,17,17,16,18,16,17,17,17,17,16,17,17,16],"number_of_frames":120,"aperture_center_x":640,"aperture_center_y":360,"fixation_cross":true,"fixation_cross_width":15,"fixation_cross_height":15,"fixation_cross_color":"#111","fixation_cross_thickness":1,"border":true,"border_thickness":2,"border_color":"transparent","canvas_width":1280,"canvas_height":720,"trial_type":"rdk","trial_index":3,"plugin_version":"2.0.0","time_elapsed":89444,"target_direction":10,"distractor_direction":181},{"rt":8547,"stimulus":"\n        <div class=\"response-container\">\n          <div class=\"response-instruction\">\n            <p>rotate the bar by using the left and right arrow keys.</p>\n            <p>when you are determined, press the Enter key.</p>\n          </div>\n          <div class=\"response-circle\">\n            <div class=\"response-fixation\"></div>\n            <div id=\"bar\" class=\"rotating-bar\"></div>\n          </div>\n        </div>\n      ","response":"Enter","trial_type":"html-keyboard-response","trial_index":4,"plugin_version":"2.1.0","time_elapsed":97993,"random_initial_angle":245,"response_angle_css":220,"response_angle_rdk":230,"angular_error_target":-140,"angular_error_distractor":49,"target_direction":10,"target_group":"white","reward_points":0},{"rt":null,"stimulus":"\n          <p style=\"color: #FF3333;\">Your reward: 0 points</p>\n        ","response":null,"trial_type":"html-keyboard-response","trial_index":5,"plugin_version":"2.1.0","time_elapsed":100002},{"rt":null,"stimulus":"<div class=\"fixation\" style=\"font-size: 60px;\">+</div>","response":null,"trial_type":"html-keyboard-response","trial_index":6,"plugin_version":"2.1.0","time_elapsed":101020},{"target_group":"black","target_index":1,"condition_label":"practice","rt":-1,"response":"","correct":false,"choices":"ALL_KEYS","correct_choice":["a"],"trial_duration":2000,"flip_timestamps":[],"response_ends_trial":false,"number_of_apertures":2,"number_of_dots":[92,100],"number_of_sets":1,"coherent_direction":[233,68],"coherence":1,"opposite_coherence":0,"dot_radius":2,"dot_side_length":1,"dot_life":-1,"move_distance":1,"aperture_width":300,"aperture_height":300,"dot_color":["white","black"],"dot_shape":"circle","background_color":"#AAA","RDK_type":3,"aperture_type":2,"reinsert_type":2,"frame_rate":16.49586776859504,"frame_rate_array":[2,17,11,16,17,17,16,17,16,17,16,18,17,16,17,16,17,17,16,17,17,17,17,16,17,17,15,18,16,17,17,17,16,16,18,16,16,17,17,17,16,17,17,17,16,16,18,16,16,17,17,16,17,17,17,16,18,16,16,17,17,17,16,17,17,16,17,16,17,15,18,16,17,16,17,17,17,17,15,17,18,16,16,17,18,16,17,16,17,16,18,17,16,16,17,17,16,17,17,16,18,16,16,18,16,16,17,16,17,17,17,16,17,16,17,18,16,17,17,17,15],"number_of_frames":121,"aperture_center_x":640,"aperture_center_y":360,"fixation_cross":true,"fixation_cross_width":15,"fixation_cross_height":15,"fixation_cross_color":"#111","fixation_cross_thickness":1,"border":true,"border_thickness":2,"border_color":"transparent","canvas_width":1280,"canvas_height":720,"trial_type":"rdk","trial_index":7,"plugin_version":"2.0.0","time_elapsed":103044,"target_direction":68,"distractor_direction":233},{"rt":4945,"stimulus":"\n        <div class=\"response-container\">\n          <div class=\"response-instruction\">\n            <p>rotate the bar by using the left and right arrow keys.</p>\n            <p>when you are determined, press the Enter key.</p>\n          </div>\n          <div class=\"response-circle\">\n            <div class=\"response-fixation\"></div>\n            <div id=\"bar\" class=\"rotating-bar\"></div>\n          </div>\n        </div>\n      ","response":"Enter","trial_type":"html-keyboard-response","trial_index":8,"plugin_version":"2.1.0","time_elapsed":107993,"random_initial_angle":14,"response_angle_css":15,"response_angle_rdk":75,"angular_error_target":7,"angular_error_distractor":-158,"target_direction":68,"target_group":"black","reward_points":8},{"rt":null,"stimulus":"\n          <p style=\"color: #00FF00;\">Your reward: 8 points</p>\n        ","response":null,"trial_type":"html-keyboard-response","trial_index":9,"plugin_version":"2.1.0","time_elapsed":110139},{"rt":null,"stimulus":"<div class=\"fixation\" style=\"font-size: 60px;\">+</div>","response":null,"trial_type":"html-keyboard-response","trial_index":10,"plugin_version":"2.1.0","time_elapsed":111154},{"target_group":"white","target_index":0,"condition_label":"practice","rt":-1,"response":"","correct":false,"choices":"ALL_KEYS","correct_choice":["a"],"trial_duration":2000,"flip_timestamps":[],"response_ends_trial":false,"number_of_apertures":2,"number_of_dots":[100,54],"number_of_sets":1,"coherent_direction":[91,351],"coherence":1,"opposite_coherence":0,"dot_radius":2,"dot_side_length":1,"dot_life":-1,"move_distance":1,"aperture_width":300,"aperture_height":300,"dot_color":["white","black"],"dot_shape":"circle","background_color":"#AAA","RDK_type":3,"aperture_type":2,"reinsert_type":2,"frame_rate":16.512396694214875,"frame_rate_array":[1,19,11,17,16,18,16,17,17,15,17,17,17,16,17,17,16,18,16,16,17,16,17,16,18,16,17,16,17,17,16,17,16,17,17,17,16,17,17,16,18,16,17,16,17,17,17,17,16,16,17,17,17,16,18,16,16,17,16,18,16,16,17,16,17,17,17,17,17,16,16,17,17,16,17,17,16,17,16,17,17,16,17,17,17,17,17,16,16,17,17,16,17,17,17,16,17,16,16,18,16,17,16,18,16,17,17,17,15,17,17,17,16,17,17,16,17,16,17,17,17],"number_of_frames":121,"aperture_center_x":640,"aperture_center_y":360,"fixation_cross":true,"fixation_cross_width":15,"fixation_cross_height":15,"fixation_cross_color":"#111","fixation_cross_thickness":1,"border":true,"border_thickness":2,"border_color":"transparent","canvas_width":1280,"canvas_height":720,"trial_type":"rdk","trial_index":11,"plugin_version":"2.0.0","time_elapsed":113170,"target_direction":91,"distractor_direction":351},{"rt":5204,"stimulus":"\n        <div class=\"response-container\">\n          <div class=\"response-instruction\">\n            <p>rotate the bar by using the left and right arrow keys.</p>\n            <p>when you are determined, press the Enter key.</p>\n          </div>\n          <div class=\"response-circle\">\n            <div class=\"response-fixation\"></div>\n            <div id=\"bar\" class=\"rotating-bar\"></div>\n          </div>\n        </div>\n      ","response":"Enter","trial_type":"html-keyboard-response","trial_index":12,"plugin_version":"2.1.0","time_elapsed":118375,"random_initial_angle":159,"response_angle_css":0,"response_angle_rdk":90,"angular_error_target":-1,"angular_error_distractor":99,"target_direction":91,"target_group":"white","reward_points":9},{"rt":null,"stimulus":"\n          <p style=\"color: #00FF00;\">Your reward: 9 points</p>\n        ","response":null,"trial_type":"html-keyboard-response","trial_index":13,"plugin_version":"2.1.0","time_elapsed":120380},{"rt":null,"stimulus":"<div class=\"fixation\" style=\"font-size: 60px;\">+</div>","response":null,"trial_type":"html-keyboard-response","trial_index":14,"plugin_version":"2.1.0","time_elapsed":121386},{"target_group":"black","target_index":1,"condition_label":"practice","rt":-1,"response":"","correct":false,"choices":"ALL_KEYS","correct_choice":["a"],"trial_duration":2000,"flip_timestamps":[],"response_ends_trial":false,"number_of_apertures":2,"number_of_dots":[94,100],"number_of_sets":1,"coherent_direction":[167,60],"coherence":1,"opposite_coherence":0,"dot_radius":2,"dot_side_length":1,"dot_life":-1,"move_distance":1,"aperture_width":300,"aperture_height":300,"dot_color":["white","black"],"dot_shape":"circle","background_color":"#AAA","RDK_type":3,"aperture_type":2,"reinsert_type":2,"frame_rate":16.520661157024794,"frame_rate_array":[1,20,12,17,17,16,16,18,16,18,16,17,16,17,17,16,17,16,17,18,16,16,16,18,16,16,17,17,17,16,17,17,17,16,17,16,16,18,16,17,16,17,17,16,18,16,17,16,18,16,17,16,17,17,17,16,17,17,16,17,17,16,16,17,17,17,16,18,15,17,18,16,16,18,16,17,16,16,18,16,17,17,17,17,16,16,17,16,16,17,17,16,17,17,17,17,16,18,15,18,16,16,17,17,17,17,17,16,16,17,16,17,18,16,17,16,17,16,17,16,16],"number_of_frames":121,"aperture_center_x":640,"aperture_center_y":360,"fixation_cross":true,"fixation_cross_width":15,"fixation_cross_height":15,"fixation_cross_color":"#111","fixation_cross_thickness":1,"border":true,"border_thickness":2,"border_color":"transparent","canvas_width":1280,"canvas_height":720,"trial_type":"rdk","trial_index":15,"plugin_version":"2.0.0","time_elapsed":123397,"target_direction":60,"distractor_direction":167},{"rt":3889,"stimulus":"\n        <div class=\"response-container\">\n          <div class=\"response-instruction\">\n            <p>rotate the bar by using the left and right arrow keys.</p>\n            <p>when you are determined, press the Enter key.</p>\n          </div>\n          <div class=\"response-circle\">\n            <div class=\"response-fixation\"></div>\n            <div id=\"bar\" class=\"rotating-bar\"></div>\n          </div>\n        </div>\n      ","response":"Enter","trial_type":"html-keyboard-response","trial_index":16,"plugin_version":"2.1.0","time_elapsed":127288,"random_initial_angle":262,"response_angle_css":409,"response_angle_rdk":41,"angular_error_target":-19,"angular_error_distractor":-126,"target_direction":60,"target_group":"black","reward_points":6},{"rt":null,"stimulus":"\n          <p style=\"color: #00FF00;\">Your reward: 6 points</p>\n        ","response":null,"trial_type":"html-keyboard-response","trial_index":17,"plugin_version":"2.1.0","time_elapsed":129294},{"rt":null,"stimulus":"<div class=\"fixation\" style=\"font-size: 60px;\">+</div>","response":null,"trial_type":"html-keyboard-response","trial_index":18,"plugin_version":"2.1.0","time_elapsed":130401},{"target_group":"black","target_index":1,"condition_label":"practice","rt":-1,"response":"","correct":false,"choices":"ALL_KEYS","correct_choice":["a"],"trial_duration":2000,"flip_timestamps":[],"response_ends_trial":false,"number_of_apertures":2,"number_of_dots":[85,100],"number_of_sets":1,"coherent_direction":[194,82],"coherence":1,"opposite_coherence":0,"dot_radius":2,"dot_side_length":1,"dot_life":-1,"move_distance":1,"aperture_width":300,"aperture_height":300,"dot_color":["white","black"],"dot_shape":"circle","background_color":"#AAA","RDK_type":3,"aperture_type":2,"reinsert_type":2,"frame_rate":16.532258064516128,"frame_rate_array":[1,22,11,16,17,17,17,17,16,17,17,17,17,15,17,17,16,17,17,17,16,18,16,16,17,16,17,16,17,17,17,16,17,17,16,17,16,17,17,17,16,17,17,17,16,17,17,17,16,17,16,18,16,17,16,17,17,15,17,16,17,17,17,16,17,17,16,17,18,16,17,16,18,16,17,16,16,17,17,17,16,18,15,18,17,15,17,16,18,16,17,16,17,17,16,16,18,16,17,17,16,18,17,16,16,17,17,16,17,17,16,17,17,17,16,17,16,17,17,17,15,17,16,17],"number_of_frames":124,"aperture_center_x":640,"aperture_center_y":360,"fixation_cross":true,"fixation_cross_width":15,"fixation_cross_height":15,"fixation_cross_color":"#111","fixation_cross_thickness":1,"border":true,"border_thickness":2,"border_color":"transparent","canvas_width":1280,"canvas_height":720,"trial_type":"rdk","trial_index":19,"plugin_version":"2.0.0","time_elapsed":132461,"target_direction":82,"distractor_direction":194},{"rt":4211,"stimulus":"\n        <div class=\"response-container\">\n          <div class=\"response-instruction\">\n            <p>rotate the bar by using the left and right arrow keys.</p>\n            <p>when you are determined, press the Enter key.</p>\n          </div>\n          <div class=\"response-circle\">\n            <div class=\"response-fixation\"></div>\n            <div id=\"bar\" class=\"rotating-bar\"></div>\n          </div>\n        </div>\n      ","response":"Enter","trial_type":"html-keyboard-response","trial_index":20,"plugin_version":"2.1.0","time_elapsed":136673,"random_initial_angle":73,"response_angle_css":6,"response_angle_rdk":84,"angular_error_target":2,"angular_error_distractor":-110,"target_direction":82,"target_group":"black","reward_points":9},{"rt":null,"stimulus":"\n          <p style=\"color: #00FF00;\">Your reward: 9 points</p>\n        ","response":null,"trial_type":"html-keyboard-response","trial_index":21,"plugin_version":"2.1.0","time_elapsed":138679},{"rt":null,"stimulus":"<div class=\"fixation\" style=\"font-size: 60px;\">+</div>","response":null,"trial_type":"html-keyboard-response","trial_index":22,"plugin_version":"2.1.0","time_elapsed":139684},{"target_group":"white","target_index":0,"condition_label":"practice","rt":-1,"response":"","correct":false,"choices":"ALL_KEYS","correct_choice":["a"],"trial_duration":2000,"flip_timestamps":[],"response_ends_trial":false,"number_of_apertures":2,"number_of_dots":[100,66],"number_of_sets":1,"coherent_direction":[295,100],"coherence":1,"opposite_coherence":0,"dot_radius":2,"dot_side_length":1,"dot_life":-1,"move_distance":1,"aperture_width":300,"aperture_height":300,"dot_color":["white","black"],"dot_shape":"circle","background_color":"#AAA","RDK_type":3,"aperture_type":2,"reinsert_type":2,"frame_rate":16.52892561983471,"frame_rate_array":[0,26,7,17,17,17,16,16,18,17,17,16,17,16,16,17,17,17,17,17,16,16,17,16,17,17,16,17,17,17,17,15,17,17,17,17,16,17,17,17,16,17,17,17,16,16,17,17,17,16,17,16,17,16,17,17,16,17,17,18,16,16,17,17,17,15,17,17,17,17,16,17,17,17,16,16,17,17,17,16,17,16,18,16,17,17,15,17,17,17,17,16,16,17,17,16,17,17,18,16,16,17,17,16,16,17,18,16,17,16,17,17,17,16,17,16,17,16,18,16,16],"number_of_frames":121,"aperture_center_x":640,"aperture_center_y":360,"fixation_cross":true,"fixation_cross_width":15,"fixation_cross_height":15,"fixation_cross_color":"#111","fixation_cross_thickness":1,"border":true,"border_thickness":2,"border_color":"transparent","canvas_width":1280,"canvas_height":720,"trial_type":"rdk","trial_index":23,"plugin_version":"2.0.0","time_elapsed":141693,"target_direction":295,"distractor_direction":100},{"rt":3762,"stimulus":"\n        <div class=\"response-container\">\n          <div class=\"response-instruction\">\n            <p>rotate the bar by using the left and right arrow keys.</p>\n            <p>when you are determined, press the Enter key.</p>\n          </div>\n          <div class=\"response-circle\">\n            <div class=\"response-fixation\"></div>\n            <div id=\"bar\" class=\"rotating-bar\"></div>\n          </div>\n        </div>\n      ","response":"Enter","trial_type":"html-keyboard-response","trial_index":24,"plugin_version":"2.1.0","time_elapsed":145456,"random_initial_angle":223,"response_angle_css":145,"response_angle_rdk":305,"angular_error_target":10,"angular_error_distractor":-155,"target_direction":295,"target_group":"white","reward_points":8},{"rt":null,"stimulus":"\n          <p style=\"color: #00FF00;\">Your reward: 8 points</p>\n        ","response":null,"trial_type":"html-keyboard-response","trial_index":25,"plugin_version":"2.1.0","time_elapsed":147464},{"rt":null,"stimulus":"<div class=\"fixation\" style=\"font-size: 60px;\">+</div>","response":null,"trial_type":"html-keyboard-response","trial_index":26,"plugin_version":"2.1.0","time_elapsed":148478},{"target_group":"black","target_index":1,"condition_label":"practice","rt":-1,"response":"","correct":false,"choices":"ALL_KEYS","correct_choice":["a"],"trial_duration":2000,"flip_timestamps":[],"response_ends_trial":false,"number_of_apertures":2,"number_of_dots":[91,100],"number_of_sets":1,"coherent_direction":[81,218],"coherence":1,"opposite_coherence":0,"dot_radius":2,"dot_side_length":1,"dot_life":-1,"move_distance":1,"aperture_width":300,"aperture_height":300,"dot_color":["white","black"],"dot_shape":"circle","background_color":"#AAA","RDK_type":3,"aperture_type":2,"reinsert_type":2,"frame_rate":16.466666666666665,"frame_rate_array":[1,15,7,17,17,17,16,17,17,16,16,17,17,16,17,17,16,17,17,17,16,17,17,16,17,17,17,17,15,17,17,17,16,17,17,17,16,17,17,15,17,18,16,16,17,17,17,16,17,17,17,16,17,17,17,16,17,16,17,17,16,17,17,16,17,16,16,17,17,16,18,16,17,17,17,16,16,18,16,16,17,17,17,17,17,16,16,17,17,17,16,16,17,17,17,16,17,17,17,16,17,17,16,17,17,17,16,17,17,16,16,17,17,17,16,17,17,17,15,17,18,15,17,17,16,17,16,18,17,16,17,16,17,17,16],"number_of_frames":135,"aperture_center_x":640,"aperture_center_y":360,"fixation_cross":true,"fixation_cross_width":15,"fixation_cross_height":15,"fixation_cross_color":"#111","fixation_cross_thickness":1,"border":true,"border_thickness":2,"border_color":"transparent","canvas_width":1280,"canvas_height":720,"trial_type":"rdk","trial_index":27,"plugin_version":"2.0.0","time_elapsed":150707,"target_direction":218,"distractor_direction":81},{"rt":2571,"stimulus":"\n        <div class=\"response-container\">\n          <div class=\"response-instruction\">\n            <p>rotate the bar by using the left and right arrow keys.</p>\n            <p>when you are determined, press the Enter key.</p>\n          </div>\n          <div class=\"response-circle\">\n            <div class=\"response-fixation\"></div>\n            <div id=\"bar\" class=\"rotating-bar\"></div>\n          </div>\n        </div>\n      ","response":"Enter","trial_type":"html-keyboard-response","trial_index":28,"plugin_version":"2.1.0","time_elapsed":153281,"random_initial_angle":177,"response_angle_css":227,"response_angle_rdk":223,"angular_error_target":5,"angular_error_distractor":142,"target_direction":218,"target_group":"black","reward_points":9},{"rt":null,"stimulus":"\n          <p style=\"color: #00FF00;\">Your reward: 9 points</p>\n        ","response":null,"trial_type":"html-keyboard-response","trial_index":29,"plugin_version":"2.1.0","time_elapsed":155283},{"rt":null,"stimulus":"<div class=\"fixation\" style=\"font-size: 60px;\">+</div>","response":null,"trial_type":"html-keyboard-response","trial_index":30,"plugin_version":"2.1.0","time_elapsed":156298},{"target_group":"black","target_index":1,"condition_label":"practice","rt":-1,"response":"","correct":false,"choices":"ALL_KEYS","correct_choice":["a"],"trial_duration":2000,"flip_timestamps":[],"response_ends_trial":false,"number_of_apertures":2,"number_of_dots":[71,100],"number_of_sets":1,"coherent_direction":[72,198],"coherence":1,"opposite_coherence":0,"dot_radius":2,"dot_side_length":1,"dot_life":-1,"move_distance":1,"aperture_width":300,"aperture_height":300,"dot_color":["white","black"],"dot_shape":"circle","background_color":"#AAA","RDK_type":3,"aperture_type":2,"reinsert_type":2,"frame_rate":16.658333333333335,"frame_rate_array":[2,37,9,17,17,17,16,17,16,18,16,17,16,17,17,17,16,17,17,16,16,17,17,16,17,16,17,17,18,16,16,17,18,15,17,17,16,17,17,17,17,16,16,18,17,16,17,16,16,17,16,18,16,17,17,16,17,17,17,16,16,17,16,17,17,17,16,17,17,17,17,15,18,16,16,17,17,17,17,16,16,17,17,17,16,17,17,17,16,16,16,18,15,18,17,16,17,16,18,16,17,17,17,16,17,16,16,17,17,17,17,16,17,17,17,16,17,17,16,17],"number_of_frames":120,"aperture_center_x":640,"aperture_center_y":360,"fixation_cross":true,"fixation_cross_width":15,"fixation_cross_height":15,"fixation_cross_color":"#111","fixation_cross_thickness":1,"border":true,"border_thickness":2,"border_color":"transparent","canvas_width":1280,"canvas_height":720,"trial_type":"rdk","trial_index":31,"plugin_version":"2.0.0","time_elapsed":158306,"target_direction":198,"distractor_direction":72},{"rt":3253,"stimulus":"\n        <div class=\"response-container\">\n          <div class=\"response-instruction\">\n            <p>rotate the bar by using the left and right arrow keys.</p>\n            <p>when you are determined, press the Enter key.</p>\n          </div>\n          <div class=\"response-circle\">\n            <div class=\"response-fixation\"></div>\n            <div id=\"bar\" class=\"rotating-bar\"></div>\n          </div>\n        </div>\n      ","response":"Enter","trial_type":"html-keyboard-response","trial_index":32,"plugin_version":"2.1.0","time_elapsed":161561,"random_initial_angle":122,"response_angle_css":232,"response_angle_rdk":218,"angular_error_target":20,"angular_error_distractor":146,"target_direction":198,"target_group":"black","reward_points":6},{"rt":null,"stimulus":"\n          <p style=\"color: #00FF00;\">Your reward: 6 points</p>\n        ","response":null,"trial_type":"html-keyboard-response","trial_index":33,"plugin_version":"2.1.0","time_elapsed":163567},{"rt":null,"stimulus":"<div class=\"fixation\" style=\"font-size: 60px;\">+</div>","response":null,"trial_type":"html-keyboard-response","trial_index":34,"plugin_version":"2.1.0","time_elapsed":164583},{"target_group":"white","target_index":0,"condition_label":"practice","rt":-1,"response":"","correct":false,"choices":"ALL_KEYS","correct_choice":["a"],"trial_duration":2000,"flip_timestamps":[],"response_ends_trial":false,"number_of_apertures":2,"number_of_dots":[100,50],"number_of_sets":1,"coherent_direction":[296,182],"coherence":1,"opposite_coherence":0,"dot_radius":2,"dot_side_length":1,"dot_life":-1,"move_distance":1,"aperture_width":300,"aperture_height":300,"dot_color":["white","black"],"dot_shape":"circle","background_color":"#AAA","RDK_type":3,"aperture_type":2,"reinsert_type":2,"frame_rate":16.52892561983471,"frame_rate_array":[0,21,13,17,15,17,16,17,17,17,16,17,16,17,17,16,17,17,17,16,17,16,17,17,16,17,17,17,16,16,17,17,16,18,16,17,16,18,16,16,17,17,16,17,17,16,17,17,17,16,17,16,17,17,16,18,16,16,17,17,16,17,17,16,17,16,18,16,17,16,17,16,18,17,16,16,17,18,17,16,16,16,17,17,16,17,17,17,17,16,17,17,17,15,17,17,17,17,16,17,17,16,17,17,17,16,16,17,17,17,16,17,17,17,16,17,17,17,15,17,17],"number_of_frames":121,"aperture_center_x":640,"aperture_center_y":360,"fixation_cross":true,"fixation_cross_width":15,"fixation_cross_height":15,"fixation_cross_color":"#111","fixation_cross_thickness":1,"border":true,"border_thickness":2,"border_color":"transparent","canvas_width":1280,"canvas_height":720,"trial_type":"rdk","trial_index":35,"plugin_version":"2.0.0","time_elapsed":166598,"target_direction":296,"distractor_direction":182},{"rt":3809,"stimulus":"\n        <div class=\"response-container\">\n          <div class=\"response-instruction\">\n            <p>rotate the bar by using the left and right arrow keys.</p>\n            <p>when you are determined, press the Enter key.</p>\n          </div>\n          <div class=\"response-circle\">\n            <div class=\"response-fixation\"></div>\n            <div id=\"bar\" class=\"rotating-bar\"></div>\n          </div>\n        </div>\n      ","response":"Enter","trial_type":"html-keyboard-response","trial_index":36,"plugin_version":"2.1.0","time_elapsed":170409,"random_initial_angle":299,"response_angle_css":150,"response_angle_rdk":300,"angular_error_target":4,"angular_error_distractor":118,"target_direction":296,"target_group":"white","reward_points":9},{"rt":null,"stimulus":"\n          <p style=\"color: #00FF00;\">Your reward: 9 points</p>\n        ","response":null,"trial_type":"html-keyboard-response","trial_index":37,"plugin_version":"2.1.0","time_elapsed":172414},{"rt":null,"stimulus":"<div class=\"fixation\" style=\"font-size: 60px;\">+</div>","response":null,"trial_type":"html-keyboard-response","trial_index":38,"plugin_version":"2.1.0","time_elapsed":173415},{"target_group":"black","target_index":1,"condition_label":"practice","rt":-1,"response":"","correct":false,"choices":"ALL_KEYS","correct_choice":["a"],"trial_duration":2000,"flip_timestamps":[],"response_ends_trial":false,"number_of_apertures":2,"number_of_dots":[61,100],"number_of_sets":1,"coherent_direction":[23,181],"coherence":1,"opposite_coherence":0,"dot_radius":2,"dot_side_length":1,"dot_life":-1,"move_distance":1,"aperture_width":300,"aperture_height":300,"dot_color":["white","black"],"dot_shape":"circle","background_color":"#AAA","RDK_type":3,"aperture_type":2,"reinsert_type":2,"frame_rate":16.520661157024794,"frame_rate_array":[0,21,11,17,16,18,16,17,16,17,16,18,17,16,17,16,18,17,15,17,18,15,17,17,17,16,17,17,16,17,16,17,16,17,17,16,17,17,17,15,18,17,16,17,16,18,16,16,17,16,17,17,17,17,16,17,17,16,17,17,17,17,16,17,16,17,16,17,17,16,17,17,17,16,17,17,17,16,16,17,17,17,17,16,16,18,16,17,17,16,17,16,17,17,17,16,17,16,17,17,16,17,17,17,16,17,17,16,16,18,16,17,16,16,17,17,17,16,17,17,16],"number_of_frames":121,"aperture_center_x":640,"aperture_center_y":360,"fixation_cross":true,"fixation_cross_width":15,"fixation_cross_height":15,"fixation_cross_color":"#111","fixation_cross_thickness":1,"border":true,"border_thickness":2,"border_color":"transparent","canvas_width":1280,"canvas_height":720,"trial_type":"rdk","trial_index":39,"plugin_version":"2.0.0","time_elapsed":175423,"target_direction":181,"distractor_direction":23},{"rt":5511,"stimulus":"\n        <div class=\"response-container\">\n          <div class=\"response-instruction\">\n            <p>rotate the bar by using the left and right arrow keys.</p>\n            <p>when you are determined, press the Enter key.</p>\n          </div>\n          <div class=\"response-circle\">\n            <div class=\"response-fixation\"></div>\n            <div id=\"bar\" class=\"rotating-bar\"></div>\n          </div>\n        </div>\n      ","response":"Enter","trial_type":"html-keyboard-response","trial_index":40,"plugin_version":"2.1.0","time_elapsed":180936,"random_initial_angle":120,"response_angle_css":-92,"response_angle_rdk":182,"angular_error_target":1,"angular_error_distractor":159,"target_direction":181,"target_group":"black","reward_points":9},{"rt":null,"stimulus":"\n          <p style=\"color: #00FF00;\">Your reward: 9 points</p>\n        ","response":null,"trial_type":"html-keyboard-response","trial_index":41,"plugin_version":"2.1.0","time_elapsed":182946},{"rt":null,"stimulus":"<div class=\"fixation\" style=\"font-size: 60px;\">+</div>","response":null,"trial_type":"html-keyboard-response","trial_index":42,"plugin_version":"2.1.0","time_elapsed":183962},{"target_group":"white","target_index":0,"condition_label":"practice","rt":-1,"response":"","correct":false,"choices":"ALL_KEYS","correct_choice":["a"],"trial_duration":2000,"flip_timestamps":[],"response_ends_trial":false,"number_of_apertures":2,"number_of_dots":[100,87],"number_of_sets":1,"coherent_direction":[69,193],"coherence":1,"opposite_coherence":0,"dot_radius":2,"dot_side_length":1,"dot_life":-1,"move_distance":1,"aperture_width":300,"aperture_height":300,"dot_color":["white","black"],"dot_shape":"circle","background_color":"#AAA","RDK_type":3,"aperture_type":2,"reinsert_type":2,"frame_rate":16.536585365853657,"frame_rate_array":[1,23,10,16,17,17,17,16,17,17,15,17,17,18,15,17,17,17,17,16,18,16,16,17,16,17,17,16,17,17,17,17,16,17,17,16,16,17,16,17,18,16,16,17,17,17,17,16,16,17,17,17,16,17,17,17,17,15,18,17,16,16,17,17,17,17,16,17,16,16,17,16,17,16,18,16,16,17,17,17,16,17,17,16,18,16,17,17,17,17,16,16,16,17,17,16,17,17,17,16,17,16,17,17,17,17,17,16,17,17,16,17,16,17,17,17,16,17,17,16,17,16,17],"number_of_frames":123,"aperture_center_x":640,"aperture_center_y":360,"fixation_cross":true,"fixation_cross_width":15,"fixation_cross_height":15,"fixation_cross_color":"#111","fixation_cross_thickness":1,"border":true,"border_thickness":2,"border_color":"transparent","canvas_width":1280,"canvas_height":720,"trial_type":"rdk","trial_index":43,"plugin_version":"2.0.0","time_elapsed":186015,"target_direction":69,"distractor_direction":193},{"rt":2408,"stimulus":"\n        <div class=\"response-container\">\n          <div class=\"response-instruction\">\n            <p>rotate the bar by using the left and right arrow keys.</p>\n            <p>when you are determined, press the Enter key.</p>\n          </div>\n          <div class=\"response-circle\">\n            <div class=\"response-fixation\"></div>\n            <div id=\"bar\" class=\"rotating-bar\"></div>\n          </div>\n        </div>\n      ","response":"Enter","trial_type":"html-keyboard-response","trial_index":44,"plugin_version":"2.1.0","time_elapsed":188423,"random_initial_angle":317,"response_angle_css":237,"response_angle_rdk":213,"angular_error_target":144,"angular_error_distractor":20,"target_direction":69,"target_group":"white","reward_points":0},{"rt":null,"stimulus":"\n          <p style=\"color: #FF3333;\">Your reward: 0 points</p>\n        ","response":null,"trial_type":"html-keyboard-response","trial_index":45,"plugin_version":"2.1.0","time_elapsed":190425},{"rt":null,"stimulus":"<div class=\"fixation\" style=\"font-size: 60px;\">+</div>","response":null,"trial_type":"html-keyboard-response","trial_index":46,"plugin_version":"2.1.0","time_elapsed":191429},{"target_group":"black","target_index":1,"condition_label":"practice","rt":-1,"response":"","correct":false,"choices":"ALL_KEYS","correct_choice":["a"],"trial_duration":2000,"flip_timestamps":[],"response_ends_trial":false,"number_of_apertures":2,"number_of_dots":[56,100],"number_of_sets":1,"coherent_direction":[355,132],"coherence":1,"opposite_coherence":0,"dot_radius":2,"dot_side_length":1,"dot_life":-1,"move_distance":1,"aperture_width":300,"aperture_height":300,"dot_color":["white","black"],"dot_shape":"circle","background_color":"#AAA","RDK_type":3,"aperture_type":2,"reinsert_type":2,"frame_rate":16.520661157024794,"frame_rate_array":[1,23,8,16,17,16,18,16,16,17,17,17,16,16,17,17,17,16,17,16,17,17,16,17,16,18,17,16,17,16,16,18,17,16,16,17,17,17,16,17,16,17,16,17,17,17,16,17,16,18,16,17,17,17,17,16,17,16,17,16,18,16,16,17,16,17,17,18,16,16,18,15,17,17,17,16,17,17,17,17,16,17,15,17,17,17,16,17,17,17,17,15,17,17,16,17,17,17,16,17,18,16,16,17,16,17,16,17,18,16,18,15,17,16,18,17,16,16,17,17,17],"number_of_frames":121,"aperture_center_x":640,"aperture_center_y":360,"fixation_cross":true,"fixation_cross_width":15,"fixation_cross_height":15,"fixation_cross_color":"#111","fixation_cross_thickness":1,"border":true,"border_thickness":2,"border_color":"transparent","canvas_width":1280,"canvas_height":720,"trial_type":"rdk","trial_index":47,"plugin_version":"2.0.0","time_elapsed":193451,"target_direction":132,"distractor_direction":355},{"rt":3459,"stimulus":"\n        <div class=\"response-container\">\n          <div class=\"response-instruction\">\n            <p>rotate the bar by using the left and right arrow keys.</p>\n            <p>when you are determined, press the Enter key.</p>\n          </div>\n          <div class=\"response-circle\">\n            <div class=\"response-fixation\"></div>\n            <div id=\"bar\" class=\"rotating-bar\"></div>\n          </div>\n        </div>\n      ","response":"Enter","trial_type":"html-keyboard-response","trial_index":48,"plugin_version":"2.1.0","time_elapsed":196910,"random_initial_angle":208,"response_angle_css":294,"response_angle_rdk":156,"angular_error_target":24,"angular_error_distractor":161,"target_direction":132,"target_group":"black","reward_points":5},{"rt":null,"stimulus":"\n          <p style=\"color: #00FF00;\">Your reward: 5 points</p>\n        ","response":null,"trial_type":"html-keyboard-response","trial_index":49,"plugin_version":"2.1.0","time_elapsed":198924},{"rt":null,"stimulus":"<div class=\"fixation\" style=\"font-size: 60px;\">+</div>","response":null,"trial_type":"html-keyboard-response","trial_index":50,"plugin_version":"2.1.0","time_elapsed":199939},{"target_group":"white","target_index":0,"condition_label":"practice","rt":-1,"response":"","correct":false,"choices":"ALL_KEYS","correct_choice":["a"],"trial_duration":2000,"flip_timestamps":[],"response_ends_trial":false,"number_of_apertures":2,"number_of_dots":[100,99],"number_of_sets":1,"coherent_direction":[199,295],"coherence":1,"opposite_coherence":0,"dot_radius":2,"dot_side_length":1,"dot_life":-1,"move_distance":1,"aperture_width":300,"aperture_height":300,"dot_color":["white","black"],"dot_shape":"circle","background_color":"#AAA","RDK_type":3,"aperture_type":2,"reinsert_type":2,"frame_rate":16.462809917355372,"frame_rate_array":[1,13,10,17,17,17,16,17,17,17,16,16,17,17,17,16,16,18,16,17,16,17,17,16,17,17,16,17,17,17,16,17,16,18,16,16,17,17,17,16,17,16,17,17,16,17,16,18,16,17,16,17,17,16,17,17,16,17,17,16,17,16,17,17,17,16,17,17,16,18,16,16,18,16,17,16,17,17,17,16,17,17,17,16,17,16,18,15,18,16,17,16,17,17,16,17,17,17,16,16,17,17,16,17,17,17,17,17,16,16,17,18,16,16,17,16,18,15,18,16,17],"number_of_frames":121,"aperture_center_x":640,"aperture_center_y":360,"fixation_cross":true,"fixation_cross_width":15,"fixation_cross_height":15,"fixation_cross_color":"#111","fixation_cross_thickness":1,"border":true,"border_thickness":2,"border_color":"transparent","canvas_width":1280,"canvas_height":720,"trial_type":"rdk","trial_index":51,"plugin_version":"2.0.0","time_elapsed":201947,"target_direction":199,"distractor_direction":295},{"rt":4931,"stimulus":"\n        <div class=\"response-container\">\n          <div class=\"response-instruction\">\n            <p>rotate the bar by using the left and right arrow keys.</p>\n            <p>when you are determined, press the Enter key.</p>\n          </div>\n          <div class=\"response-circle\">\n            <div class=\"response-fixation\"></div>\n            <div id=\"bar\" class=\"rotating-bar\"></div>\n          </div>\n        </div>\n      ","response":"Enter","trial_type":"html-keyboard-response","trial_index":52,"plugin_version":"2.1.0","time_elapsed":206879,"random_initial_angle":303,"response_angle_css":502,"response_angle_rdk":308,"angular_error_target":109,"angular_error_distractor":13,"target_direction":199,"target_group":"white","reward_points":0},{"rt":null,"stimulus":"\n          <p style=\"color: #FF3333;\">Your reward: 0 points</p>\n        ","response":null,"trial_type":"html-keyboard-response","trial_index":53,"plugin_version":"2.1.0","time_elapsed":208881},{"rt":null,"stimulus":"<div class=\"fixation\" style=\"font-size: 60px;\">+</div>","response":null,"trial_type":"html-keyboard-response","trial_index":54,"plugin_version":"2.1.0","time_elapsed":209889},{"target_group":"white","target_index":0,"condition_label":"practice","rt":-1,"response":"","correct":false,"choices":"ALL_KEYS","correct_choice":["a"],"trial_duration":2000,"flip_timestamps":[],"response_ends_trial":false,"number_of_apertures":2,"number_of_dots":[100,77],"number_of_sets":1,"coherent_direction":[247,53],"coherence":1,"opposite_coherence":0,"dot_radius":2,"dot_side_length":1,"dot_life":-1,"move_distance":1,"aperture_width":300,"aperture_height":300,"dot_color":["white","black"],"dot_shape":"circle","background_color":"#AAA","RDK_type":3,"aperture_type":2,"reinsert_type":2,"frame_rate":16.449612403100776,"frame_rate_array":[0,15,7,17,16,17,16,17,16,18,17,16,17,16,17,16,17,17,16,18,16,17,16,17,17,16,17,16,16,18,16,17,16,18,16,16,17,17,17,16,17,16,17,17,16,17,17,16,17,17,16,17,17,17,16,16,17,17,17,16,17,17,17,16,17,16,17,16,17,17,17,16,18,16,16,17,17,16,17,17,17,16,17,17,16,16,17,17,17,17,16,16,18,15,17,17,17,16,18,16,17,17,16,17,17,16,18,17,16,16,17,17,16,17,17,16,16,17,17,17,17,16,17,17,17,16,16,17,17],"number_of_frames":129,"aperture_center_x":640,"aperture_center_y":360,"fixation_cross":true,"fixation_cross_width":15,"fixation_cross_height":15,"fixation_cross_color":"#111","fixation_cross_thickness":1,"border":true,"border_thickness":2,"border_color":"transparent","canvas_width":1280,"canvas_height":720,"trial_type":"rdk","trial_index":55,"plugin_version":"2.0.0","time_elapsed":212017,"target_direction":247,"distractor_direction":53},{"rt":4045,"stimulus":"\n        <div class=\"response-container\">\n          <div class=\"response-instruction\">\n            <p>rotate the bar by using the left and right arrow keys.</p>\n            <p>when you are determined, press the Enter key.</p>\n          </div>\n          <div class=\"response-circle\">\n            <div class=\"response-fixation\"></div>\n            <div id=\"bar\" class=\"rotating-bar\"></div>\n          </div>\n        </div>\n      ","response":"Enter","trial_type":"html-keyboard-response","trial_index":56,"plugin_version":"2.1.0","time_elapsed":216064,"random_initial_angle":52,"response_angle_css":216,"response_angle_rdk":234,"angular_error_target":-13,"angular_error_distractor":-179,"target_direction":247,"target_group":"white","reward_points":7},{"rt":null,"stimulus":"\n          <p style=\"color: #00FF00;\">Your reward: 7 points</p>\n        ","response":null,"trial_type":"html-keyboard-response","trial_index":57,"plugin_version":"2.1.0","time_elapsed":218075},{"rt":null,"stimulus":"<div class=\"fixation\" style=\"font-size: 60px;\">+</div>","response":null,"trial_type":"html-keyboard-response","trial_index":58,"plugin_version":"2.1.0","time_elapsed":219079},{"target_group":"black","target_index":1,"condition_label":"practice","rt":-1,"response":"","correct":false,"choices":"ALL_KEYS","correct_choice":["a"],"trial_duration":2000,"flip_timestamps":[],"response_ends_trial":false,"number_of_apertures":2,"number_of_dots":[74,100],"number_of_sets":1,"coherent_direction":[254,69],"coherence":1,"opposite_coherence":0,"dot_radius":2,"dot_side_length":1,"dot_life":-1,"move_distance":1,"aperture_width":300,"aperture_height":300,"dot_color":["white","black"],"dot_shape":"circle","background_color":"#AAA","RDK_type":3,"aperture_type":2,"reinsert_type":2,"frame_rate":16.515384615384615,"frame_rate_array":[1,22,7,16,17,17,16,17,17,17,16,18,17,16,16,17,17,17,16,16,18,16,16,17,17,17,17,16,16,17,17,15,18,17,17,16,17,16,17,16,18,16,17,16,17,17,17,16,17,16,17,17,16,17,18,16,16,17,16,17,17,16,17,17,17,16,17,16,17,18,16,16,17,16,17,17,17,16,17,17,17,17,16,16,17,16,17,17,17,17,16,16,17,18,16,16,16,17,17,16,17,17,17,16,17,16,17,17,16,18,17,16,16,17,17,17,16,17,17,17,17,16,17,16,17,16,17,17,17,16],"number_of_frames":130,"aperture_center_x":640,"aperture_center_y":360,"fixation_cross":true,"fixation_cross_width":15,"fixation_cross_height":15,"fixation_cross_color":"#111","fixation_cross_thickness":1,"border":true,"border_thickness":2,"border_color":"transparent","canvas_width":1280,"canvas_height":720,"trial_type":"rdk","trial_index":59,"plugin_version":"2.0.0","time_elapsed":221235,"target_direction":69,"distractor_direction":254},{"rt":2543,"stimulus":"\n        <div class=\"response-container\">\n          <div class=\"response-instruction\">\n            <p>rotate the bar by using the left and right arrow keys.</p>\n            <p>when you are determined, press the Enter key.</p>\n          </div>\n          <div class=\"response-circle\">\n            <div class=\"response-fixation\"></div>\n            <div id=\"bar\" class=\"rotating-bar\"></div>\n          </div>\n        </div>\n      ","response":"Enter","trial_type":"html-keyboard-response","trial_index":60,"plugin_version":"2.1.0","time_elapsed":223782,"random_initial_angle":64,"response_angle_css":-3,"response_angle_rdk":93,"angular_error_target":24,"angular_error_distractor":-161,"target_direction":69,"target_group":"black","reward_points":5},{"rt":null,"stimulus":"\n          <p style=\"color: #00FF00;\">Your reward: 5 points</p>\n        ","response":null,"trial_type":"html-keyboard-response","trial_index":61,"plugin_version":"2.1.0","time_elapsed":225795},{"rt":null,"stimulus":"<div class=\"fixation\" style=\"font-size: 60px;\">+</div>","response":null,"trial_type":"html-keyboard-response","trial_index":62,"plugin_version":"2.1.0","time_elapsed":226811},{"target_group":"white","target_index":0,"condition_label":"practice","rt":-1,"response":"","correct":false,"choices":"ALL_KEYS","correct_choice":["a"],"trial_duration":2000,"flip_timestamps":[],"response_ends_trial":false,"number_of_apertures":2,"number_of_dots":[100,62],"number_of_sets":1,"coherent_direction":[157,48],"coherence":1,"opposite_coherence":0,"dot_radius":2,"dot_side_length":1,"dot_life":-1,"move_distance":1,"aperture_width":300,"aperture_height":300,"dot_color":["white","black"],"dot_shape":"circle","background_color":"#AAA","RDK_type":3,"aperture_type":2,"reinsert_type":2,"frame_rate":16.512396694214875,"frame_rate_array":[0,26,5,18,16,16,17,17,17,16,17,16,18,16,16,18,17,16,17,16,17,17,16,16,18,17,16,16,17,17,16,17,17,17,17,16,17,15,18,16,17,16,17,18,16,17,16,17,17,17,17,17,15,17,16,18,16,17,16,17,16,17,17,17,17,16,17,16,17,17,17,16,16,18,17,16,17,16,16,18,16,16,17,17,17,16,17,17,17,15,17,17,17,16,17,17,16,17,17,16,17,17,17,16,16,18,16,17,17,16,17,16,17,16,18,16,17,17,17,16,16],"number_of_frames":121,"aperture_center_x":640,"aperture_center_y":360,"fixation_cross":true,"fixation_cross_width":15,"fixation_cross_height":15,"fixation_cross_color":"#111","fixation_cross_thickness":1,"border":true,"border_thickness":2,"border_color":"transparent","canvas_width":1280,"canvas_height":720,"trial_type":"rdk","trial_index":63,"plugin_version":"2.0.0","time_elapsed":228832,"target_direction":157,"distractor_direction":48},{"rt":3768,"stimulus":"\n        <div class=\"response-container\">\n          <div class=\"response-instruction\">\n            <p>rotate the bar by using the left and right arrow keys.</p>\n            <p>when you are determined, press the Enter key.</p>\n          </div>\n          <div class=\"response-circle\">\n            <div class=\"response-fixation\"></div>\n            <div id=\"bar\" class=\"rotating-bar\"></div>\n          </div>\n        </div>\n      ","response":"Enter","trial_type":"html-keyboard-response","trial_index":64,"plugin_version":"2.1.0","time_elapsed":232605,"random_initial_angle":143,"response_angle_css":299,"response_angle_rdk":151,"angular_error_target":-6,"angular_error_distractor":103,"target_direction":157,"target_group":"white","reward_points":8},{"rt":null,"stimulus":"\n          <p style=\"color: #00FF00;\">Your reward: 8 points</p>\n        ","response":null,"trial_type":"html-keyboard-response","trial_index":65,"plugin_version":"2.1.0","time_elapsed":234619},{"rt":2834,"stimulus":"\n        <div class=\"instructions-container\">\n          <h2>End of Practice</h2>\n          <p>You have completed the practice trials.</p>\n          <p>Press <strong>Enter</strong> key to begin the main experiment.</p>\n        </div>\n      ","response":"Enter","trial_type":"html-keyboard-response","trial_index":66,"plugin_version":"2.1.0","time_elapsed":237454},{"rt":null,"stimulus":"<div class=\"fixation\" style=\"font-size: 60px;\">+</div>","response":null,"trial_type":"html-keyboard-response","trial_index":67,"plugin_version":"2.1.0","time_elapsed":238466},{"target_group":"white","condition_label":"W_H_vs_B_L_rep14","target_direction":175,"distractor_direction":73,"session_rotation":137,"rt":-1,"response":"","correct":false,"choices":"ALL_KEYS","correct_choice":["a"],"trial_duration":2000,"flip_timestamps":[],"response_ends_trial":false,"number_of_apertures":200,"number_of_dots":[1,1,1,1,1,1,1,1,1,1,1,1,1,1,1,1,1,1,1,1,1,1,1,1,1,1,1,1,1,1,1,1,1,1,1,1,1,1,1,1,1,1,1,1,1,1,1,1,1,1,1,1,1,1,1,1,1,1,1,1,1,1,1,1,1,1,1,1,1,1,1,1,1,1,1,1,1,1,1,1,1,1,1,1,1,1,1,1,1,1,1,1,1,1,1,1,1,1,1,1,1,1,1,1,1,1,1,1,1,1,1,1,1,1,1,1,1,1,1,1,1,1,1,1,1,1,1,1,1,1,1,1,1,1,1,1,1,1,1,1,1,1,1,1,1,1,1,1,1,1,1,1,1,1,1,1,1,1,1,1,1,1,1,1,1,1,1,1,1,1,1,1,1,1,1,1,1,1,1,1,1,1,1,1,1,1,1,1,1,1,1,1,1,1,1,1,1,1,1,1],"number_of_sets":1,"coherent_direction":[73,175,73,175,73,175,175,73,73,175,175,73,175,73,73,175,73,175,175,73,73,73,73,175,73,175,175,175,73,73,175,73,175,175,73,175,175,175,175,175,73,175,73,175,175,175,175,175,175,175,73,73,175,73,175,73,175,73,73,73,175,73,175,73,175,73,175,175,175,175,73,175,175,73,175,73,73,73,175,175,73,73,73,73,73,73,73,73,73,73,73,73,73,175,175,73,175,73,73,73,175,175,73,175,73,73,73,73,73,73,73,175,73,175,73,175,73,175,175,73,73,73,73,175,175,73,175,73,175,73,175,175,73,175,175,175,175,73,73,175,175,175,73,73,73,175,73,73,73,73,73,175,175,73,175,175,175,73,73,175,175,175,175,175,73,175,73,175,175,73,73,175,73,175,73,73,175,175,73,175,175,175,175,175,175,175,175,73,73,73,175,73,73,175,73,175,175,175,73,73],"coherence":1,"opposite_coherence":0,"dot_radius":2,"dot_side_length":1,"dot_life":-1,"move_distance":1,"aperture_width":300,"aperture_height":300,"dot_color":["black","white","black","white","black","white","white","black","black","white","white","black","white","black","black","white","black","white","white","black","black","black","black","white","black","white","white","white","black","black","white","black","white","white","black","white","white","white","white","white","black","white","black","white","white","white","white","white","white","white","black","black","white","black","white","black","white","black","black","black","white","black","white","black","white","black","white","white","white","white","black","white","white","black","white","black","black","black","white","white","black","black","black","black","black","black","black","black","black","black","black","black","black","white","white","black","white","black","black","black","white","white","black","white","black","black","black","black","black","black","black","white","black","white","black","white","black","white","white","black","black","black","black","white","white","black","white","black","white","black","white","white","black","white","white","white","white","black","black","white","white","white","black","black","black","white","black","black","black","black","black","white","white","black","white","white","white","black","black","white","white","white","white","white","black","white","black","white","white","black","black","white","black","white","black","black","white","white","black","white","white","white","white","white","white","white","white","black","black","black","white","black","black","white","black","white","white","white","black","black"],"dot_shape":"circle","background_color":"#AAA","RDK_type":3,"aperture_type":2,"reinsert_type":2,"frame_rate":16.733333333333334,"frame_rate_array":[1,33,8,18,17,16,33,17,17,16,17,16,18,15,16,17,18,17,17,15,16,16,17,17,16,19,17,16,16,16,18,17,16,16,18,16,17,17,17,16,15,19,15,17,16,16,18,17,16,16,18,15,17,17,17,18,15,18,15,18,17,17,15,17,17,16,19,16,16,15,18,16,18,16,16,17,16,17,17,16,17,17,17,16,16,18,17,16,17,17,16,16,17,17,18,15,19,15,16,16,19,15,17,16,17,17,17,17,17,16,17,16,17,16,17,16,17,17,16,17],"number_of_frames":120,"aperture_center_x":640,"aperture_center_y":360,"fixation_cross":true,"fixation_cross_width":15,"fixation_cross_height":15,"fixation_cross_color":"#111","fixation_cross_thickness":1,"border":true,"border_thickness":2,"border_color":"transparent","canvas_width":1280,"canvas_height":720,"trial_type":"rdk","trial_index":68,"plugin_version":"2.0.0","time_elapsed":240480},{"rt":3061,"stimulus":"\n        <div class=\"response-container\">\n          <div class=\"response-instruction\">\n            <p>rotate the bar by using the left and right arrow keys.</p>\n            <p>when you are determined, press the Enter key.</p>\n          </div>\n          <div class=\"response-circle\">\n            <div class=\"response-fixation\"></div>\n            <div id=\"bar\" class=\"rotating-bar\"></div>\n          </div>\n        </div>\n      ","response":"Enter","trial_type":"html-keyboard-response","trial_index":69,"plugin_version":"2.1.0","time_elapsed":243543,"random_initial_angle":270,"response_angle_css":365,"response_angle_rdk":85,"angular_error_target":-90,"angular_error_distractor":12,"target_direction":175,"target_group":"white","reward_points":0},{"rt":null,"stimulus":"\n          <p style=\"color: #FF3333;\">Your reward: 0 points</p>\n        ","response":null,"trial_type":"html-keyboard-response","trial_index":70,"plugin_version":"2.1.0","time_elapsed":245556},{"rt":null,"stimulus":"<div class=\"fixation\" style=\"font-size: 60px;\">+</div>","response":null,"trial_type":"html-keyboard-response","trial_index":71,"plugin_version":"2.1.0","time_elapsed":246572},{"target_group":"black","condition_label":"B_H_vs_W_L_rep20","target_direction":256,"distractor_direction":351,"session_rotation":137,"rt":-1,"response":"","correct":false,"choices":"ALL_KEYS","correct_choice":["a"],"trial_duration":2000,"flip_timestamps":[],"response_ends_trial":false,"number_of_apertures":200,"number_of_dots":[1,1,1,1,1,1,1,1,1,1,1,1,1,1,1,1,1,1,1,1,1,1,1,1,1,1,1,1,1,1,1,1,1,1,1,1,1,1,1,1,1,1,1,1,1,1,1,1,1,1,1,1,1,1,1,1,1,1,1,1,1,1,1,1,1,1,1,1,1,1,1,1,1,1,1,1,1,1,1,1,1,1,1,1,1,1,1,1,1,1,1,1,1,1,1,1,1,1,1,1,1,1,1,1,1,1,1,1,1,1,1,1,1,1,1,1,1,1,1,1,1,1,1,1,1,1,1,1,1,1,1,1,1,1,1,1,1,1,1,1,1,1,1,1,1,1,1,1,1,1,1,1,1,1,1,1,1,1,1,1,1,1,1,1,1,1,1,1,1,1,1,1,1,1,1,1,1,1,1,1,1,1,1,1,1,1,1,1,1,1,1,1,1,1,1,1,1,1,1,1],"number_of_sets":1,"coherent_direction":[256,256,256,351,351,256,351,351,256,256,256,351,351,256,256,351,256,351,351,256,351,351,256,351,256,256,351,256,256,351,256,351,256,351,256,256,351,351,256,256,351,351,256,256,256,351,351,256,256,256,256,351,351,256,256,351,351,351,256,351,351,256,351,351,351,351,351,351,351,256,351,351,256,256,351,256,351,256,351,256,351,351,351,256,351,256,256,351,351,351,256,256,256,256,256,256,256,351,256,351,351,256,256,351,351,351,351,351,351,256,256,256,256,256,256,351,256,256,256,256,256,351,351,256,256,351,256,256,351,351,256,256,256,256,351,256,256,351,256,256,351,351,256,256,351,351,351,351,351,256,256,256,351,256,351,256,351,256,256,351,351,256,351,351,351,351,256,351,256,256,351,256,256,256,256,351,351,351,351,256,256,351,256,351,351,351,256,351,351,351,351,351,351,256,351,256,351,256,256,351],"coherence":1,"opposite_coherence":0,"dot_radius":2,"dot_side_length":1,"dot_life":-1,"move_distance":1,"aperture_width":300,"aperture_height":300,"dot_color":["black","black","black","white","white","black","white","white","black","black","black","white","white","black","black","white","black","white","white","black","white","white","black","white","black","black","white","black","black","white","black","white","black","white","black","black","white","white","black","black","white","white","black","black","black","white","white","black","black","black","black","white","white","black","black","white","white","white","black","white","white","black","white","white","white","white","white","white","white","black","white","white","black","black","white","black","white","black","white","black","white","white","white","black","white","black","black","white","white","white","black","black","black","black","black","black","black","white","black","white","white","black","black","white","white","white","white","white","white","black","black","black","black","black","black","white","black","black","black","black","black","white","white","black","black","white","black","black","white","white","black","black","black","black","white","black","black","white","black","black","white","white","black","black","white","white","white","white","white","black","black","black","white","black","white","black","white","black","black","white","white","black","white","white","white","white","black","white","black","black","white","black","black","black","black","white","white","white","white","black","black","white","black","white","white","white","black","white","white","white","white","white","white","black","white","black","white","black","black","white"],"dot_shape":"circle","background_color":"#AAA","RDK_type":3,"aperture_type":2,"reinsert_type":2,"frame_rate":16.545454545454547,"frame_rate_array":[2,24,10,17,16,18,17,16,16,17,16,17,17,17,16,15,17,16,17,17,17,17,16,16,19,16,16,16,17,17,16,17,17,16,17,17,17,16,17,17,16,17,16,17,18,17,15,17,17,16,17,16,17,18,17,16,16,17,17,15,18,18,15,17,16,18,16,16,18,16,16,17,17,16,17,16,17,16,17,18,16,17,17,16,16,17,16,18,17,16,17,17,17,15,18,17,17,15,16,18,16,16,17,17,18,17,14,18,17,16,17,17,17,16,18,16,16,17,15,17,18],"number_of_frames":121,"aperture_center_x":640,"aperture_center_y":360,"fixation_cross":true,"fixation_cross_width":15,"fixation_cross_height":15,"fixation_cross_color":"#111","fixation_cross_thickness":1,"border":true,"border_thickness":2,"border_color":"transparent","canvas_width":1280,"canvas_height":720,"trial_type":"rdk","trial_index":72,"plugin_version":"2.0.0","time_elapsed":248583},{"rt":2550,"stimulus":"\n        <div class=\"response-container\">\n          <div class=\"response-instruction\">\n            <p>rotate the bar by using the left and right arrow keys.</p>\n            <p>when you are determined, press the Enter key.</p>\n          </div>\n          <div class=\"response-circle\">\n            <div class=\"response-fixation\"></div>\n            <div id=\"bar\" class=\"rotating-bar\"></div>\n          </div>\n        </div>\n      ","response":"Enter","trial_type":"html-keyboard-response","trial_index":73,"plugin_version":"2.1.0","time_elapsed":251134,"random_initial_angle":250,"response_angle_css":187,"response_angle_rdk":263,"angular_error_target":7,"angular_error_distractor":-88,"target_direction":256,"target_group":"black","reward_points":8},{"rt":null,"stimulus":"\n          <p style=\"color: #00FF00;\">Your reward: 8 points</p>\n        ","response":null,"trial_type":"html-keyboard-response","trial_index":74,"plugin_version":"2.1.0","time_elapsed":253138},{"rt":null,"stimulus":"<div class=\"fixation\" style=\"font-size: 60px;\">+</div>","response":null,"trial_type":"html-keyboard-response","trial_index":75,"plugin_version":"2.1.0","time_elapsed":254268},{"target_group":"white","condition_label":"W_H_vs_B_L_rep16","target_direction":153,"distractor_direction":54,"session_rotation":137,"rt":-1,"response":"","correct":false,"choices":"ALL_KEYS","correct_choice":["a"],"trial_duration":2000,"flip_timestamps":[],"response_ends_trial":false,"number_of_apertures":200,"number_of_dots":[1,1,1,1,1,1,1,1,1,1,1,1,1,1,1,1,1,1,1,1,1,1,1,1,1,1,1,1,1,1,1,1,1,1,1,1,1,1,1,1,1,1,1,1,1,1,1,1,1,1,1,1,1,1,1,1,1,1,1,1,1,1,1,1,1,1,1,1,1,1,1,1,1,1,1,1,1,1,1,1,1,1,1,1,1,1,1,1,1,1,1,1,1,1,1,1,1,1,1,1,1,1,1,1,1,1,1,1,1,1,1,1,1,1,1,1,1,1,1,1,1,1,1,1,1,1,1,1,1,1,1,1,1,1,1,1,1,1,1,1,1,1,1,1,1,1,1,1,1,1,1,1,1,1,1,1,1,1,1,1,1,1,1,1,1,1,1,1,1,1,1,1,1,1,1,1,1,1,1,1,1,1,1,1,1,1,1,1,1,1,1,1,1,1,1,1,1,1,1,1],"number_of_sets":1,"coherent_direction":[153,54,153,54,54,153,54,153,153,153,153,153,54,54,54,54,153,54,54,153,54,153,54,153,153,54,153,153,54,153,153,54,153,54,54,153,153,54,153,153,153,153,153,153,54,54,54,54,153,153,54,153,54,54,54,54,54,54,54,153,153,54,54,153,153,153,54,54,54,54,54,54,54,54,153,54,54,153,54,153,153,54,153,153,54,54,54,54,153,153,54,54,153,54,153,153,54,153,153,54,54,153,54,54,54,153,153,153,153,153,153,54,153,54,54,153,54,54,54,54,153,54,153,153,153,54,54,153,153,153,54,153,153,54,54,153,54,54,153,54,54,153,54,54,153,153,153,54,54,153,153,54,54,54,153,54,153,153,54,54,153,153,153,153,153,153,153,54,54,153,54,54,153,54,153,54,153,54,54,54,153,153,54,153,153,54,153,54,153,153,153,153,54,153,54,153,54,153,153,54],"coherence":1,"opposite_coherence":0,"dot_radius":2,"dot_side_length":1,"dot_life":-1,"move_distance":1,"aperture_width":300,"aperture_height":300,"dot_color":["white","black","white","black","black","white","black","white","white","white","white","white","black","black","black","black","white","black","black","white","black","white","black","white","white","black","white","white","black","white","white","black","white","black","black","white","white","black","white","white","white","white","white","white","black","black","black","black","white","white","black","white","black","black","black","black","black","black","black","white","white","black","black","white","white","white","black","black","black","black","black","black","black","black","white","black","black","white","black","white","white","black","white","white","black","black","black","black","white","white","black","black","white","black","white","white","black","white","white","black","black","white","black","black","black","white","white","white","white","white","white","black","white","black","black","white","black","black","black","black","white","black","white","white","white","black","black","white","white","white","black","white","white","black","black","white","black","black","white","black","black","white","black","black","white","white","white","black","black","white","white","black","black","black","white","black","white","white","black","black","white","white","white","white","white","white","white","black","black","white","black","black","white","black","white","black","white","black","black","black","white","white","black","white","white","black","white","black","white","white","white","white","black","white","black","white","black","white","white","black"],"dot_shape":"circle","background_color":"#AAA","RDK_type":3,"aperture_type":2,"reinsert_type":2,"frame_rate":16.641666666666666,"frame_rate_array":[4,16,11,18,16,16,34,18,16,16,17,14,18,18,16,16,16,16,18,18,16,17,15,18,15,17,18,15,17,17,17,15,17,17,16,19,16,17,16,17,16,16,18,16,17,16,17,16,17,17,18,15,16,17,18,15,18,16,17,17,16,17,17,16,18,17,16,17,17,15,17,18,16,16,16,18,16,16,18,15,18,16,17,16,17,17,17,16,17,17,18,14,17,17,17,18,15,19,14,17,17,17,18,16,15,18,17,15,17,17,16,19,16,15,16,18,16,17,18,16],"number_of_frames":120,"aperture_center_x":640,"aperture_center_y":360,"fixation_cross":true,"fixation_cross_width":15,"fixation_cross_height":15,"fixation_cross_color":"#111","fixation_cross_thickness":1,"border":true,"border_thickness":2,"border_color":"transparent","canvas_width":1280,"canvas_height":720,"trial_type":"rdk","trial_index":76,"plugin_version":"2.0.0","time_elapsed":256292},{"rt":1696,"stimulus":"\n        <div class=\"response-container\">\n          <div class=\"response-instruction\">\n            <p>rotate the bar by using the left and right arrow keys.</p>\n            <p>when you are determined, press the Enter key.</p>\n          </div>\n          <div class=\"response-circle\">\n            <div class=\"response-fixation\"></div>\n            <div id=\"bar\" class=\"rotating-bar\"></div>\n          </div>\n        </div>\n      ","response":"Enter","trial_type":"html-keyboard-response","trial_index":77,"plugin_version":"2.1.0","time_elapsed":257990,"random_initial_angle":253,"response_angle_css":274,"response_angle_rdk":176,"angular_error_target":23,"angular_error_distractor":122,"target_direction":153,"target_group":"white","reward_points":5},{"rt":null,"stimulus":"\n          <p style=\"color: #00FF00;\">Your reward: 5 points</p>\n        ","response":null,"trial_type":"html-keyboard-response","trial_index":78,"plugin_version":"2.1.0","time_elapsed":260004},{"rt":null,"stimulus":"<div class=\"fixation\" style=\"font-size: 60px;\">+</div>","response":null,"trial_type":"html-keyboard-response","trial_index":79,"plugin_version":"2.1.0","time_elapsed":261019},{"target_group":"white","condition_label":"W_H_vs_B_L_rep3","target_direction":152,"distractor_direction":57,"session_rotation":137,"rt":-1,"response":"","correct":false,"choices":"ALL_KEYS","correct_choice":["a"],"trial_duration":2000,"flip_timestamps":[],"response_ends_trial":false,"number_of_apertures":200,"number_of_dots":[1,1,1,1,1,1,1,1,1,1,1,1,1,1,1,1,1,1,1,1,1,1,1,1,1,1,1,1,1,1,1,1,1,1,1,1,1,1,1,1,1,1,1,1,1,1,1,1,1,1,1,1,1,1,1,1,1,1,1,1,1,1,1,1,1,1,1,1,1,1,1,1,1,1,1,1,1,1,1,1,1,1,1,1,1,1,1,1,1,1,1,1,1,1,1,1,1,1,1,1,1,1,1,1,1,1,1,1,1,1,1,1,1,1,1,1,1,1,1,1,1,1,1,1,1,1,1,1,1,1,1,1,1,1,1,1,1,1,1,1,1,1,1,1,1,1,1,1,1,1,1,1,1,1,1,1,1,1,1,1,1,1,1,1,1,1,1,1,1,1,1,1,1,1,1,1,1,1,1,1,1,1,1,1,1,1,1,1,1,1,1,1,1,1,1,1,1,1,1,1],"number_of_sets":1,"coherent_direction":[152,152,152,152,57,152,57,152,57,57,57,152,152,57,152,152,57,57,152,57,152,57,57,152,152,57,57,57,152,152,152,152,57,152,57,57,152,57,152,57,57,152,152,57,152,152,152,57,152,57,57,152,152,57,152,152,57,152,152,57,152,152,152,152,57,57,152,57,57,152,152,57,57,152,57,152,152,57,152,57,57,152,152,57,152,57,57,57,57,57,152,57,152,152,152,57,152,57,152,152,57,152,57,57,152,57,57,57,152,57,152,57,152,152,57,152,57,57,57,152,57,152,152,152,152,57,57,57,152,152,57,57,57,57,152,57,57,152,57,57,152,57,57,152,152,152,57,152,57,57,57,152,152,152,152,152,57,57,57,57,152,152,152,152,152,152,152,152,152,57,152,57,57,57,152,57,57,152,57,57,57,57,152,57,57,152,57,57,152,152,57,152,152,57,152,57,57,152,57,57],"coherence":1,"opposite_coherence":0,"dot_radius":2,"dot_side_length":1,"dot_life":-1,"move_distance":1,"aperture_width":300,"aperture_height":300,"dot_color":["white","white","white","white","black","white","black","white","black","black","black","white","white","black","white","white","black","black","white","black","white","black","black","white","white","black","black","black","white","white","white","white","black","white","black","black","white","black","white","black","black","white","white","black","white","white","white","black","white","black","black","white","white","black","white","white","black","white","white","black","white","white","white","white","black","black","white","black","black","white","white","black","black","white","black","white","white","black","white","black","black","white","white","black","white","black","black","black","black","black","white","black","white","white","white","black","white","black","white","white","black","white","black","black","white","black","black","black","white","black","white","black","white","white","black","white","black","black","black","white","black","white","white","white","white","black","black","black","white","white","black","black","black","black","white","black","black","white","black","black","white","black","black","white","white","white","black","white","black","black","black","white","white","white","white","white","black","black","black","black","white","white","white","white","white","white","white","white","white","black","white","black","black","black","white","black","black","white","black","black","black","black","white","black","black","white","black","black","white","white","black","white","white","black","white","black","black","white","black","black"],"dot_shape":"circle","background_color":"#AAA","RDK_type":3,"aperture_type":2,"reinsert_type":2,"frame_rate":16.691666666666666,"frame_rate_array":[2,22,11,18,18,15,34,14,18,16,17,16,16,18,16,16,17,17,17,17,16,16,17,17,17,16,17,17,16,18,15,18,17,16,17,17,16,17,17,17,16,16,18,16,17,15,19,16,17,17,16,17,16,17,17,16,18,15,16,17,17,17,17,16,17,17,17,17,15,18,16,17,16,17,17,16,17,17,17,15,17,18,16,18,16,17,16,17,17,17,15,17,17,15,17,18,17,17,16,16,18,17,15,17,17,16,17,16,17,17,15,18,17,16,17,17,16,16,18,18],"number_of_frames":120,"aperture_center_x":640,"aperture_center_y":360,"fixation_cross":true,"fixation_cross_width":15,"fixation_cross_height":15,"fixation_cross_color":"#111","fixation_cross_thickness":1,"border":true,"border_thickness":2,"border_color":"transparent","canvas_width":1280,"canvas_height":720,"trial_type":"rdk","trial_index":80,"plugin_version":"2.0.0","time_elapsed":263039},{"rt":1365,"stimulus":"\n        <div class=\"response-container\">\n          <div class=\"response-instruction\">\n            <p>rotate the bar by using the left and right arrow keys.</p>\n            <p>when you are determined, press the Enter key.</p>\n          </div>\n          <div class=\"response-circle\">\n            <div class=\"response-fixation\"></div>\n            <div id=\"bar\" class=\"rotating-bar\"></div>\n          </div>\n        </div>\n      ","response":"Enter","trial_type":"html-keyboard-response","trial_index":81,"plugin_version":"2.1.0","time_elapsed":264405,"random_initial_angle":27,"response_angle_css":48,"response_angle_rdk":42,"angular_error_target":-110,"angular_error_distractor":-15,"target_direction":152,"target_group":"white","reward_points":0},{"rt":null,"stimulus":"\n          <p style=\"color: #FF3333;\">Your reward: 0 points</p>\n        ","response":null,"trial_type":"html-keyboard-response","trial_index":82,"plugin_version":"2.1.0","time_elapsed":266409},{"rt":null,"stimulus":"<div class=\"fixation\" style=\"font-size: 60px;\">+</div>","response":null,"trial_type":"html-keyboard-response","trial_index":83,"plugin_version":"2.1.0","time_elapsed":267424},{"target_group":"black","condition_label":"B_H_vs_W_L_rep2","target_direction":233,"distractor_direction":324,"session_rotation":137,"rt":-1,"response":"","correct":false,"choices":"ALL_KEYS","correct_choice":["a"],"trial_duration":2000,"flip_timestamps":[],"response_ends_trial":false,"number_of_apertures":200,"number_of_dots":[1,1,1,1,1,1,1,1,1,1,1,1,1,1,1,1,1,1,1,1,1,1,1,1,1,1,1,1,1,1,1,1,1,1,1,1,1,1,1,1,1,1,1,1,1,1,1,1,1,1,1,1,1,1,1,1,1,1,1,1,1,1,1,1,1,1,1,1,1,1,1,1,1,1,1,1,1,1,1,1,1,1,1,1,1,1,1,1,1,1,1,1,1,1,1,1,1,1,1,1,1,1,1,1,1,1,1,1,1,1,1,1,1,1,1,1,1,1,1,1,1,1,1,1,1,1,1,1,1,1,1,1,1,1,1,1,1,1,1,1,1,1,1,1,1,1,1,1,1,1,1,1,1,1,1,1,1,1,1,1,1,1,1,1,1,1,1,1,1,1,1,1,1,1,1,1,1,1,1,1,1,1,1,1,1,1,1,1,1,1,1,1,1,1,1,1,1,1,1,1],"number_of_sets":1,"coherent_direction":[324,324,233,324,233,233,324,324,324,233,324,233,324,324,233,324,324,324,324,233,324,233,233,233,233,233,324,233,233,233,233,324,233,324,324,233,233,324,233,324,233,324,324,324,233,324,233,324,233,324,233,324,233,324,324,233,233,324,324,324,324,233,324,324,324,233,324,233,324,324,324,233,233,233,324,233,324,324,233,233,324,324,324,233,233,324,324,233,324,324,233,233,233,233,233,324,324,233,233,324,233,233,233,324,324,233,233,233,324,233,324,233,233,233,233,233,233,324,233,233,324,233,233,324,324,324,324,324,233,233,324,324,324,324,233,233,324,233,233,233,233,324,324,233,324,233,233,233,324,233,324,233,233,233,233,233,324,233,324,324,324,324,324,324,233,233,233,233,233,324,324,233,324,233,233,233,324,233,233,324,324,324,233,233,324,324,324,233,324,233,324,324,324,324,324,233,233,324,324,324],"coherence":1,"opposite_coherence":0,"dot_radius":2,"dot_side_length":1,"dot_life":-1,"move_distance":1,"aperture_width":300,"aperture_height":300,"dot_color":["white","white","black","white","black","black","white","white","white","black","white","black","white","white","black","white","white","white","white","black","white","black","black","black","black","black","white","black","black","black","black","white","black","white","white","black","black","white","black","white","black","white","white","white","black","white","black","white","black","white","black","white","black","white","white","black","black","white","white","white","white","black","white","white","white","black","white","black","white","white","white","black","black","black","white","black","white","white","black","black","white","white","white","black","black","white","white","black","white","white","black","black","black","black","black","white","white","black","black","white","black","black","black","white","white","black","black","black","white","black","white","black","black","black","black","black","black","white","black","black","white","black","black","white","white","white","white","white","black","black","white","white","white","white","black","black","white","black","black","black","black","white","white","black","white","black","black","black","white","black","white","black","black","black","black","black","white","black","white","white","white","white","white","white","black","black","black","black","black","white","white","black","white","black","black","black","white","black","black","white","white","white","black","black","white","white","white","black","white","black","white","white","white","white","white","black","black","white","white","white"],"dot_shape":"circle","background_color":"#AAA","RDK_type":3,"aperture_type":2,"reinsert_type":2,"frame_rate":16.52892561983471,"frame_rate_array":[2,20,11,17,16,17,16,18,17,14,18,16,17,17,17,15,18,16,17,17,17,17,16,16,17,17,16,18,16,17,16,21,15,15,15,18,16,16,17,17,16,17,16,17,16,17,17,17,18,15,16,18,17,15,17,17,17,16,17,17,18,15,18,17,16,15,18,17,16,17,15,18,17,18,15,17,17,16,16,18,16,17,17,16,16,17,18,16,16,18,16,17,15,17,17,18,17,16,15,18,16,16,18,15,18,17,17,15,17,17,17,16,16,18,16,17,18,17,15,17,18],"number_of_frames":121,"aperture_center_x":640,"aperture_center_y":360,"fixation_cross":true,"fixation_cross_width":15,"fixation_cross_height":15,"fixation_cross_color":"#111","fixation_cross_thickness":1,"border":true,"border_thickness":2,"border_color":"transparent","canvas_width":1280,"canvas_height":720,"trial_type":"rdk","trial_index":84,"plugin_version":"2.0.0","time_elapsed":269431},{"rt":3087,"stimulus":"\n        <div class=\"response-container\">\n          <div class=\"response-instruction\">\n            <p>rotate the bar by using the left and right arrow keys.</p>\n            <p>when you are determined, press the Enter key.</p>\n          </div>\n          <div class=\"response-circle\">\n            <div class=\"response-fixation\"></div>\n            <div id=\"bar\" class=\"rotating-bar\"></div>\n          </div>\n        </div>\n      ","response":"Enter","trial_type":"html-keyboard-response","trial_index":85,"plugin_version":"2.1.0","time_elapsed":272519,"random_initial_angle":126,"response_angle_css":236,"response_angle_rdk":214,"angular_error_target":-19,"angular_error_distractor":-110,"target_direction":233,"target_group":"black","reward_points":6},{"rt":null,"stimulus":"\n          <p style=\"color: #00FF00;\">Your reward: 6 points</p>\n        ","response":null,"trial_type":"html-keyboard-response","trial_index":86,"plugin_version":"2.1.0","time_elapsed":274524},{"rt":null,"stimulus":"<div class=\"fixation\" style=\"font-size: 60px;\">+</div>","response":null,"trial_type":"html-keyboard-response","trial_index":87,"plugin_version":"2.1.0","time_elapsed":275539},{"target_group":"black","condition_label":"B_H_vs_W_L_rep18","target_direction":228,"distractor_direction":0,"session_rotation":137,"rt":-1,"response":"","correct":false,"choices":"ALL_KEYS","correct_choice":["a"],"trial_duration":2000,"flip_timestamps":[],"response_ends_trial":false,"number_of_apertures":200,"number_of_dots":[1,1,1,1,1,1,1,1,1,1,1,1,1,1,1,1,1,1,1,1,1,1,1,1,1,1,1,1,1,1,1,1,1,1,1,1,1,1,1,1,1,1,1,1,1,1,1,1,1,1,1,1,1,1,1,1,1,1,1,1,1,1,1,1,1,1,1,1,1,1,1,1,1,1,1,1,1,1,1,1,1,1,1,1,1,1,1,1,1,1,1,1,1,1,1,1,1,1,1,1,1,1,1,1,1,1,1,1,1,1,1,1,1,1,1,1,1,1,1,1,1,1,1,1,1,1,1,1,1,1,1,1,1,1,1,1,1,1,1,1,1,1,1,1,1,1,1,1,1,1,1,1,1,1,1,1,1,1,1,1,1,1,1,1,1,1,1,1,1,1,1,1,1,1,1,1,1,1,1,1,1,1,1,1,1,1,1,1,1,1,1,1,1,1,1,1,1,1,1,1],"number_of_sets":1,"coherent_direction":[228,228,0,0,228,228,0,228,0,228,0,228,0,228,228,0,0,0,228,0,0,228,0,0,228,228,0,0,228,0,0,0,0,0,228,0,0,0,0,0,0,228,228,0,228,0,228,228,0,0,0,0,228,0,0,228,228,228,228,0,228,228,0,0,228,228,0,228,0,228,0,228,0,228,228,0,228,0,0,0,0,0,0,0,228,0,228,0,0,228,228,228,228,228,0,228,228,228,0,0,228,228,228,228,228,0,228,228,0,228,228,0,228,0,228,0,228,228,0,0,228,0,228,228,228,228,228,228,0,228,0,228,0,228,228,0,0,0,228,0,0,228,228,0,228,0,228,228,0,0,0,0,0,0,228,0,228,228,0,228,0,0,228,228,0,228,0,0,0,228,228,0,0,0,228,228,228,228,0,228,0,0,228,228,228,0,0,228,228,0,0,228,228,0,228,228,0,228,0,228],"coherence":1,"opposite_coherence":0,"dot_radius":2,"dot_side_length":1,"dot_life":-1,"move_distance":1,"aperture_width":300,"aperture_height":300,"dot_color":["black","black","white","white","black","black","white","black","white","black","white","black","white","black","black","white","white","white","black","white","white","black","white","white","black","black","white","white","black","white","white","white","white","white","black","white","white","white","white","white","white","black","black","white","black","white","black","black","white","white","white","white","black","white","white","black","black","black","black","white","black","black","white","white","black","black","white","black","white","black","white","black","white","black","black","white","black","white","white","white","white","white","white","white","black","white","black","white","white","black","black","black","black","black","white","black","black","black","white","white","black","black","black","black","black","white","black","black","white","black","black","white","black","white","black","white","black","black","white","white","black","white","black","black","black","black","black","black","white","black","white","black","white","black","black","white","white","white","black","white","white","black","black","white","black","white","black","black","white","white","white","white","white","white","black","white","black","black","white","black","white","white","black","black","white","black","white","white","white","black","black","white","white","white","black","black","black","black","white","black","white","white","black","black","black","white","white","black","black","white","white","black","black","white","black","black","white","black","white","black"],"dot_shape":"circle","background_color":"#AAA","RDK_type":3,"aperture_type":2,"reinsert_type":2,"frame_rate":16.666666666666668,"frame_rate_array":[4,16,14,17,33,16,18,17,16,17,16,17,17,17,16,15,18,16,16,16,17,18,17,16,17,17,16,17,18,15,16,16,17,17,16,18,16,17,16,17,18,16,16,16,18,17,17,17,16,17,16,17,16,17,17,16,17,17,15,17,18,15,18,16,16,19,16,15,17,16,18,16,17,17,17,16,16,17,17,18,17,15,18,15,17,16,18,17,17,15,17,17,17,17,16,18,15,16,17,17,17,17,16,17,16,17,16,17,18,17,15,17,18,16,17,16,17,16,16,18],"number_of_frames":120,"aperture_center_x":640,"aperture_center_y":360,"fixation_cross":true,"fixation_cross_width":15,"fixation_cross_height":15,"fixation_cross_color":"#111","fixation_cross_thickness":1,"border":true,"border_thickness":2,"border_color":"transparent","canvas_width":1280,"canvas_height":720,"trial_type":"rdk","trial_index":88,"plugin_version":"2.0.0","time_elapsed":277550},{"rt":3102,"stimulus":"\n        <div class=\"response-container\">\n          <div class=\"response-instruction\">\n            <p>rotate the bar by using the left and right arrow keys.</p>\n            <p>when you are determined, press the Enter key.</p>\n          </div>\n          <div class=\"response-circle\">\n            <div class=\"response-fixation\"></div>\n            <div id=\"bar\" class=\"rotating-bar\"></div>\n          </div>\n        </div>\n      ","response":"Enter","trial_type":"html-keyboard-response","trial_index":89,"plugin_version":"2.1.0","time_elapsed":280654,"random_initial_angle":331,"response_angle_css":243,"response_angle_rdk":207,"angular_error_target":-21,"angular_error_distractor":-153,"target_direction":228,"target_group":"black","reward_points":5},{"rt":null,"stimulus":"\n          <p style=\"color: #00FF00;\">Your reward: 5 points</p>\n        ","response":null,"trial_type":"html-keyboard-response","trial_index":90,"plugin_version":"2.1.0","time_elapsed":282699},{"rt":null,"stimulus":"<div class=\"fixation\" style=\"font-size: 60px;\">+</div>","response":null,"trial_type":"html-keyboard-response","trial_index":91,"plugin_version":"2.1.0","time_elapsed":283706},{"target_group":"black","condition_label":"B_H_vs_W_L_rep13","target_direction":227,"distractor_direction":344,"session_rotation":137,"rt":-1,"response":"","correct":false,"choices":"ALL_KEYS","correct_choice":["a"],"trial_duration":2000,"flip_timestamps":[],"response_ends_trial":false,"number_of_apertures":200,"number_of_dots":[1,1,1,1,1,1,1,1,1,1,1,1,1,1,1,1,1,1,1,1,1,1,1,1,1,1,1,1,1,1,1,1,1,1,1,1,1,1,1,1,1,1,1,1,1,1,1,1,1,1,1,1,1,1,1,1,1,1,1,1,1,1,1,1,1,1,1,1,1,1,1,1,1,1,1,1,1,1,1,1,1,1,1,1,1,1,1,1,1,1,1,1,1,1,1,1,1,1,1,1,1,1,1,1,1,1,1,1,1,1,1,1,1,1,1,1,1,1,1,1,1,1,1,1,1,1,1,1,1,1,1,1,1,1,1,1,1,1,1,1,1,1,1,1,1,1,1,1,1,1,1,1,1,1,1,1,1,1,1,1,1,1,1,1,1,1,1,1,1,1,1,1,1,1,1,1,1,1,1,1,1,1,1,1,1,1,1,1,1,1,1,1,1,1,1,1,1,1,1,1],"number_of_sets":1,"coherent_direction":[227,227,227,344,344,227,227,227,227,344,227,344,344,227,344,344,344,344,227,227,344,344,227,344,344,227,227,227,344,344,227,227,344,227,227,344,227,344,227,227,344,227,227,227,227,344,227,344,344,227,344,227,227,344,227,227,344,344,344,227,227,344,344,227,227,344,227,344,344,344,227,227,344,344,344,227,344,344,344,344,227,227,227,227,344,344,344,227,227,344,344,227,344,344,344,344,344,344,344,344,227,344,344,344,227,227,227,227,227,227,344,344,344,344,344,227,227,344,227,227,227,227,227,227,227,227,344,344,227,344,344,344,227,344,344,344,227,227,344,227,344,227,227,227,227,344,344,227,344,227,344,227,227,344,227,344,344,344,344,344,344,344,344,227,344,227,227,227,344,227,344,227,344,344,344,344,227,227,227,227,227,344,344,227,227,227,344,227,227,227,227,344,344,227,227,227,344,344,344,227],"coherence":1,"opposite_coherence":0,"dot_radius":2,"dot_side_length":1,"dot_life":-1,"move_distance":1,"aperture_width":300,"aperture_height":300,"dot_color":["black","black","black","white","white","black","black","black","black","white","black","white","white","black","white","white","white","white","black","black","white","white","black","white","white","black","black","black","white","white","black","black","white","black","black","white","black","white","black","black","white","black","black","black","black","white","black","white","white","black","white","black","black","white","black","black","white","white","white","black","black","white","white","black","black","white","black","white","white","white","black","black","white","white","white","black","white","white","white","white","black","black","black","black","white","white","white","black","black","white","white","black","white","white","white","white","white","white","white","white","black","white","white","white","black","black","black","black","black","black","white","white","white","white","white","black","black","white","black","black","black","black","black","black","black","black","white","white","black","white","white","white","black","white","white","white","black","black","white","black","white","black","black","black","black","white","white","black","white","black","white","black","black","white","black","white","white","white","white","white","white","white","white","black","white","black","black","black","white","black","white","black","white","white","white","white","black","black","black","black","black","white","white","black","black","black","white","black","black","black","black","white","white","black","black","black","white","white","white","black"],"dot_shape":"circle","background_color":"#AAA","RDK_type":3,"aperture_type":2,"reinsert_type":2,"frame_rate":16.747899159663866,"frame_rate_array":[6,26,12,16,17,34,17,16,16,17,16,17,17,18,15,15,17,17,16,19,16,17,16,18,16,15,18,16,16,19,15,17,17,17,16,15,18,16,17,17,16,18,15,18,17,16,16,18,16,17,16,17,17,16,18,15,18,16,16,17,17,17,16,18,16,17,17,17,15,17,18,16,17,16,17,16,17,16,18,17,16,17,17,15,16,17,17,17,16,18,17,15,18,16,17,16,18,16,17,16,18,16,16,16,17,17,18,16,15,17,18,17,15,18,17,16,16,16,18],"number_of_frames":119,"aperture_center_x":640,"aperture_center_y":360,"fixation_cross":true,"fixation_cross_width":15,"fixation_cross_height":15,"fixation_cross_color":"#111","fixation_cross_thickness":1,"border":true,"border_thickness":2,"border_color":"transparent","canvas_width":1280,"canvas_height":720,"trial_type":"rdk","trial_index":92,"plugin_version":"2.0.0","time_elapsed":285718},{"rt":1808,"stimulus":"\n        <div class=\"response-container\">\n          <div class=\"response-instruction\">\n            <p>rotate the bar by using the left and right arrow keys.</p>\n            <p>when you are determined, press the Enter key.</p>\n          </div>\n          <div class=\"response-circle\">\n            <div class=\"response-fixation\"></div>\n            <div id=\"bar\" class=\"rotating-bar\"></div>\n          </div>\n        </div>\n      ","response":"Enter","trial_type":"html-keyboard-response","trial_index":93,"plugin_version":"2.1.0","time_elapsed":287529,"random_initial_angle":259,"response_angle_css":231,"response_angle_rdk":219,"angular_error_target":-8,"angular_error_distractor":-125,"target_direction":227,"target_group":"black","reward_points":8},{"rt":null,"stimulus":"\n          <p style=\"color: #00FF00;\">Your reward: 8 points</p>\n        ","response":null,"trial_type":"html-keyboard-response","trial_index":94,"plugin_version":"2.1.0","time_elapsed":289547},{"rt":null,"stimulus":"<div class=\"fixation\" style=\"font-size: 60px;\">+</div>","response":null,"trial_type":"html-keyboard-response","trial_index":95,"plugin_version":"2.1.0","time_elapsed":290555},{"target_group":"black","condition_label":"B_H_vs_W_L_rep10","target_direction":240,"distractor_direction":350,"session_rotation":137,"rt":-1,"response":"","correct":false,"choices":"ALL_KEYS","correct_choice":["a"],"trial_duration":2000,"flip_timestamps":[],"response_ends_trial":false,"number_of_apertures":200,"number_of_dots":[1,1,1,1,1,1,1,1,1,1,1,1,1,1,1,1,1,1,1,1,1,1,1,1,1,1,1,1,1,1,1,1,1,1,1,1,1,1,1,1,1,1,1,1,1,1,1,1,1,1,1,1,1,1,1,1,1,1,1,1,1,1,1,1,1,1,1,1,1,1,1,1,1,1,1,1,1,1,1,1,1,1,1,1,1,1,1,1,1,1,1,1,1,1,1,1,1,1,1,1,1,1,1,1,1,1,1,1,1,1,1,1,1,1,1,1,1,1,1,1,1,1,1,1,1,1,1,1,1,1,1,1,1,1,1,1,1,1,1,1,1,1,1,1,1,1,1,1,1,1,1,1,1,1,1,1,1,1,1,1,1,1,1,1,1,1,1,1,1,1,1,1,1,1,1,1,1,1,1,1,1,1,1,1,1,1,1,1,1,1,1,1,1,1,1,1,1,1,1,1],"number_of_sets":1,"coherent_direction":[240,350,240,350,240,350,350,240,350,350,350,350,350,240,350,240,240,350,240,350,240,350,350,240,350,240,240,350,350,350,240,350,350,240,240,350,350,350,240,240,240,350,350,240,240,240,240,350,240,240,240,240,240,240,240,240,350,350,350,240,240,350,350,350,350,240,350,350,240,240,350,240,350,240,240,240,350,240,240,350,350,350,240,350,240,350,240,350,350,240,240,350,350,350,240,350,240,350,350,240,240,240,240,240,240,350,240,350,350,240,350,240,240,240,350,240,350,240,350,350,350,240,350,350,350,350,350,240,350,240,350,240,240,240,350,240,350,240,240,350,240,350,240,240,240,240,350,240,350,240,350,240,240,350,240,240,240,240,350,350,350,350,240,240,350,240,350,240,240,350,350,240,240,350,240,240,240,350,350,350,350,240,350,350,350,350,350,350,240,240,350,350,240,350,350,240,240,350,350,240],"coherence":1,"opposite_coherence":0,"dot_radius":2,"dot_side_length":1,"dot_life":-1,"move_distance":1,"aperture_width":300,"aperture_height":300,"dot_color":["black","white","black","white","black","white","white","black","white","white","white","white","white","black","white","black","black","white","black","white","black","white","white","black","white","black","black","white","white","white","black","white","white","black","black","white","white","white","black","black","black","white","white","black","black","black","black","white","black","black","black","black","black","black","black","black","white","white","white","black","black","white","white","white","white","black","white","white","black","black","white","black","white","black","black","black","white","black","black","white","white","white","black","white","black","white","black","white","white","black","black","white","white","white","black","white","black","white","white","black","black","black","black","black","black","white","black","white","white","black","white","black","black","black","white","black","white","black","white","white","white","black","white","white","white","white","white","black","white","black","white","black","black","black","white","black","white","black","black","white","black","white","black","black","black","black","white","black","white","black","white","black","black","white","black","black","black","black","white","white","white","white","black","black","white","black","white","black","black","white","white","black","black","white","black","black","black","white","white","white","white","black","white","white","white","white","white","white","black","black","white","white","black","white","white","black","black","white","white","black"],"dot_shape":"circle","background_color":"#AAA","RDK_type":3,"aperture_type":2,"reinsert_type":2,"frame_rate":16.789915966386555,"frame_rate_array":[3,31,20,12,16,20,14,17,16,33,16,17,18,16,17,16,16,17,16,17,17,16,17,17,17,16,18,16,16,16,17,18,17,16,16,17,17,17,15,18,16,17,17,17,17,16,15,17,17,18,16,16,18,16,16,17,16,17,16,18,16,18,15,18,17,17,15,17,17,17,15,17,17,17,18,16,16,18,15,18,15,18,17,16,17,16,17,17,16,17,16,16,18,16,18,15,16,18,16,17,16,18,16,18,15,17,17,17,16,16,18,18,16,17,15,17,18,16,16],"number_of_frames":119,"aperture_center_x":640,"aperture_center_y":360,"fixation_cross":true,"fixation_cross_width":15,"fixation_cross_height":15,"fixation_cross_color":"#111","fixation_cross_thickness":1,"border":true,"border_thickness":2,"border_color":"transparent","canvas_width":1280,"canvas_height":720,"trial_type":"rdk","trial_index":96,"plugin_version":"2.0.0","time_elapsed":292564},{"rt":4076,"stimulus":"\n        <div class=\"response-container\">\n          <div class=\"response-instruction\">\n            <p>rotate the bar by using the left and right arrow keys.</p>\n            <p>when you are determined, press the Enter key.</p>\n          </div>\n          <div class=\"response-circle\">\n            <div class=\"response-fixation\"></div>\n            <div id=\"bar\" class=\"rotating-bar\"></div>\n          </div>\n        </div>\n      ","response":"Enter","trial_type":"html-keyboard-response","trial_index":97,"plugin_version":"2.1.0","time_elapsed":296639,"random_initial_angle":6,"response_angle_css":-154,"response_angle_rdk":244,"angular_error_target":4,"angular_error_distractor":-106,"target_direction":240,"target_group":"black","reward_points":9},{"rt":null,"stimulus":"\n          <p style=\"color: #00FF00;\">Your reward: 9 points</p>\n        ","response":null,"trial_type":"html-keyboard-response","trial_index":98,"plugin_version":"2.1.0","time_elapsed":298799},{"rt":null,"stimulus":"<div class=\"fixation\" style=\"font-size: 60px;\">+</div>","response":null,"trial_type":"html-keyboard-response","trial_index":99,"plugin_version":"2.1.0","time_elapsed":299808},{"target_group":"black","condition_label":"B_H_vs_W_L_rep8","target_direction":229,"distractor_direction":330,"session_rotation":137,"rt":-1,"response":"","correct":false,"choices":"ALL_KEYS","correct_choice":["a"],"trial_duration":2000,"flip_timestamps":[],"response_ends_trial":false,"number_of_apertures":200,"number_of_dots":[1,1,1,1,1,1,1,1,1,1,1,1,1,1,1,1,1,1,1,1,1,1,1,1,1,1,1,1,1,1,1,1,1,1,1,1,1,1,1,1,1,1,1,1,1,1,1,1,1,1,1,1,1,1,1,1,1,1,1,1,1,1,1,1,1,1,1,1,1,1,1,1,1,1,1,1,1,1,1,1,1,1,1,1,1,1,1,1,1,1,1,1,1,1,1,1,1,1,1,1,1,1,1,1,1,1,1,1,1,1,1,1,1,1,1,1,1,1,1,1,1,1,1,1,1,1,1,1,1,1,1,1,1,1,1,1,1,1,1,1,1,1,1,1,1,1,1,1,1,1,1,1,1,1,1,1,1,1,1,1,1,1,1,1,1,1,1,1,1,1,1,1,1,1,1,1,1,1,1,1,1,1,1,1,1,1,1,1,1,1,1,1,1,1,1,1,1,1,1,1],"number_of_sets":1,"coherent_direction":[229,330,330,229,229,229,330,330,229,229,330,229,330,229,229,229,330,229,330,330,330,330,330,330,229,330,330,229,229,229,330,330,229,330,330,229,330,229,330,229,229,330,229,330,330,330,330,229,330,229,229,330,330,330,229,330,229,229,229,330,330,330,229,330,330,229,229,330,229,330,229,229,330,330,330,229,229,229,330,330,330,229,330,229,330,330,330,330,229,330,229,229,330,229,330,229,330,330,330,229,330,229,330,330,229,229,330,229,330,330,229,229,330,229,229,330,229,330,229,229,330,330,229,330,229,330,330,330,330,229,330,229,330,229,229,229,330,229,229,330,229,229,330,229,330,330,229,229,330,229,229,330,229,330,229,330,330,229,229,229,229,229,229,330,229,229,229,229,229,229,330,229,229,229,330,330,330,229,229,330,229,229,330,229,229,330,330,330,229,229,330,330,330,330,330,330,229,229,229,330],"coherence":1,"opposite_coherence":0,"dot_radius":2,"dot_side_length":1,"dot_life":-1,"move_distance":1,"aperture_width":300,"aperture_height":300,"dot_color":["black","white","white","black","black","black","white","white","black","black","white","black","white","black","black","black","white","black","white","white","white","white","white","white","black","white","white","black","black","black","white","white","black","white","white","black","white","black","white","black","black","white","black","white","white","white","white","black","white","black","black","white","white","white","black","white","black","black","black","white","white","white","black","white","white","black","black","white","black","white","black","black","white","white","white","black","black","black","white","white","white","black","white","black","white","white","white","white","black","white","black","black","white","black","white","black","white","white","white","black","white","black","white","white","black","black","white","black","white","white","black","black","white","black","black","white","black","white","black","black","white","white","black","white","black","white","white","white","white","black","white","black","white","black","black","black","white","black","black","white","black","black","white","black","white","white","black","black","white","black","black","white","black","white","black","white","white","black","black","black","black","black","black","white","black","black","black","black","black","black","white","black","black","black","white","white","white","black","black","white","black","black","white","black","black","white","white","white","black","black","white","white","white","white","white","white","black","black","black","white"],"dot_shape":"circle","background_color":"#AAA","RDK_type":3,"aperture_type":2,"reinsert_type":2,"frame_rate":16.764705882352942,"frame_rate_array":[2,15,13,34,17,15,34,15,17,16,17,18,15,17,17,16,16,19,15,16,17,17,17,18,17,16,17,17,15,16,18,16,16,17,16,17,18,17,17,17,15,18,14,19,17,15,16,18,18,16,15,17,18,16,17,15,18,16,17,16,18,16,17,18,16,15,17,17,18,15,18,16,16,18,17,16,15,17,18,17,15,18,15,19,16,15,18,18,15,16,17,18,17,15,17,18,15,18,15,17,17,16,17,17,16,17,16,18,17,16,16,17,17,18,15,18,16,16,17],"number_of_frames":119,"aperture_center_x":640,"aperture_center_y":360,"fixation_cross":true,"fixation_cross_width":15,"fixation_cross_height":15,"fixation_cross_color":"#111","fixation_cross_thickness":1,"border":true,"border_thickness":2,"border_color":"transparent","canvas_width":1280,"canvas_height":720,"trial_type":"rdk","trial_index":100,"plugin_version":"2.0.0","time_elapsed":301820},{"rt":2267,"stimulus":"\n        <div class=\"response-container\">\n          <div class=\"response-instruction\">\n            <p>rotate the bar by using the left and right arrow keys.</p>\n            <p>when you are determined, press the Enter key.</p>\n          </div>\n          <div class=\"response-circle\">\n            <div class=\"response-fixation\"></div>\n            <div id=\"bar\" class=\"rotating-bar\"></div>\n          </div>\n        </div>\n      ","response":"Enter","trial_type":"html-keyboard-response","trial_index":101,"plugin_version":"2.1.0","time_elapsed":304088,"random_initial_angle":199,"response_angle_css":233,"response_angle_rdk":217,"angular_error_target":-12,"angular_error_distractor":-113,"target_direction":229,"target_group":"black","reward_points":7},{"rt":null,"stimulus":"\n          <p style=\"color: #00FF00;\">Your reward: 7 points</p>\n        ","response":null,"trial_type":"html-keyboard-response","trial_index":102,"plugin_version":"2.1.0","time_elapsed":306105},{"rt":null,"stimulus":"<div class=\"fixation\" style=\"font-size: 60px;\">+</div>","response":null,"trial_type":"html-keyboard-response","trial_index":103,"plugin_version":"2.1.0","time_elapsed":307114},{"target_group":"black","condition_label":"B_H_vs_W_L_rep15","target_direction":243,"distractor_direction":341,"session_rotation":137,"rt":-1,"response":"","correct":false,"choices":"ALL_KEYS","correct_choice":["a"],"trial_duration":2000,"flip_timestamps":[],"response_ends_trial":false,"number_of_apertures":200,"number_of_dots":[1,1,1,1,1,1,1,1,1,1,1,1,1,1,1,1,1,1,1,1,1,1,1,1,1,1,1,1,1,1,1,1,1,1,1,1,1,1,1,1,1,1,1,1,1,1,1,1,1,1,1,1,1,1,1,1,1,1,1,1,1,1,1,1,1,1,1,1,1,1,1,1,1,1,1,1,1,1,1,1,1,1,1,1,1,1,1,1,1,1,1,1,1,1,1,1,1,1,1,1,1,1,1,1,1,1,1,1,1,1,1,1,1,1,1,1,1,1,1,1,1,1,1,1,1,1,1,1,1,1,1,1,1,1,1,1,1,1,1,1,1,1,1,1,1,1,1,1,1,1,1,1,1,1,1,1,1,1,1,1,1,1,1,1,1,1,1,1,1,1,1,1,1,1,1,1,1,1,1,1,1,1,1,1,1,1,1,1,1,1,1,1,1,1,1,1,1,1,1,1],"number_of_sets":1,"coherent_direction":[243,243,341,341,341,243,341,341,341,243,341,243,243,341,243,243,341,243,243,341,341,243,341,341,341,341,341,243,243,341,243,243,341,243,341,341,243,341,341,243,243,341,243,243,341,243,341,341,243,243,243,341,341,341,243,243,243,243,243,341,243,341,341,243,243,243,341,341,341,341,341,243,341,243,243,243,243,243,243,341,341,243,341,243,341,341,243,243,341,341,341,243,243,341,341,341,243,243,341,243,243,243,341,341,243,243,243,243,243,341,243,243,243,341,243,341,341,243,341,243,341,243,341,243,243,243,341,243,243,243,341,243,341,341,341,341,341,341,341,243,341,243,341,243,341,341,341,341,341,243,341,341,243,243,341,341,243,341,243,243,243,243,341,341,243,243,243,341,243,341,243,243,341,341,341,341,243,341,243,341,341,341,341,243,243,341,243,341,243,341,243,243,341,243,243,243,341,341,341,243],"coherence":1,"opposite_coherence":0,"dot_radius":2,"dot_side_length":1,"dot_life":-1,"move_distance":1,"aperture_width":300,"aperture_height":300,"dot_color":["black","black","white","white","white","black","white","white","white","black","white","black","black","white","black","black","white","black","black","white","white","black","white","white","white","white","white","black","black","white","black","black","white","black","white","white","black","white","white","black","black","white","black","black","white","black","white","white","black","black","black","white","white","white","black","black","black","black","black","white","black","white","white","black","black","black","white","white","white","white","white","black","white","black","black","black","black","black","black","white","white","black","white","black","white","white","black","black","white","white","white","black","black","white","white","white","black","black","white","black","black","black","white","white","black","black","black","black","black","white","black","black","black","white","black","white","white","black","white","black","white","black","white","black","black","black","white","black","black","black","white","black","white","white","white","white","white","white","white","black","white","black","white","black","white","white","white","white","white","black","white","white","black","black","white","white","black","white","black","black","black","black","white","white","black","black","black","white","black","white","black","black","white","white","white","white","black","white","black","white","white","white","white","black","black","white","black","white","black","white","black","black","white","black","black","black","white","white","white","black"],"dot_shape":"circle","background_color":"#AAA","RDK_type":3,"aperture_type":2,"reinsert_type":2,"frame_rate":16.553719008264462,"frame_rate_array":[2,22,13,17,17,16,17,18,16,16,17,17,17,16,17,16,17,17,16,18,16,16,17,16,18,15,18,16,17,16,17,18,16,17,16,16,18,16,17,16,18,16,16,17,17,17,16,17,17,16,17,17,17,15,17,17,17,17,16,17,15,17,18,18,15,17,16,17,17,18,16,16,16,17,17,16,16,18,17,17,15,18,17,15,18,16,17,17,16,17,16,18,16,17,17,16,17,17,17,14,18,17,16,17,17,15,18,17,17,15,18,16,16,16,19,16,15,18,18,14,17],"number_of_frames":121,"aperture_center_x":640,"aperture_center_y":360,"fixation_cross":true,"fixation_cross_width":15,"fixation_cross_height":15,"fixation_cross_color":"#111","fixation_cross_thickness":1,"border":true,"border_thickness":2,"border_color":"transparent","canvas_width":1280,"canvas_height":720,"trial_type":"rdk","trial_index":104,"plugin_version":"2.0.0","time_elapsed":309131},{"rt":3883,"stimulus":"\n        <div class=\"response-container\">\n          <div class=\"response-instruction\">\n            <p>rotate the bar by using the left and right arrow keys.</p>\n            <p>when you are determined, press the Enter key.</p>\n          </div>\n          <div class=\"response-circle\">\n            <div class=\"response-fixation\"></div>\n            <div id=\"bar\" class=\"rotating-bar\"></div>\n          </div>\n        </div>\n      ","response":"Enter","trial_type":"html-keyboard-response","trial_index":105,"plugin_version":"2.1.0","time_elapsed":313015,"random_initial_angle":54,"response_angle_css":-142,"response_angle_rdk":232,"angular_error_target":-11,"angular_error_distractor":-109,"target_direction":243,"target_group":"black","reward_points":7},{"rt":null,"stimulus":"\n          <p style=\"color: #00FF00;\">Your reward: 7 points</p>\n        ","response":null,"trial_type":"html-keyboard-response","trial_index":106,"plugin_version":"2.1.0","time_elapsed":315026},{"rt":null,"stimulus":"<div class=\"fixation\" style=\"font-size: 60px;\">+</div>","response":null,"trial_type":"html-keyboard-response","trial_index":107,"plugin_version":"2.1.0","time_elapsed":316036},{"target_group":"black","condition_label":"B_H_vs_W_L_rep17","target_direction":261,"distractor_direction":355,"session_rotation":137,"rt":-1,"response":"","correct":false,"choices":"ALL_KEYS","correct_choice":["a"],"trial_duration":2000,"flip_timestamps":[],"response_ends_trial":false,"number_of_apertures":200,"