[{"rt":1911,"stimulus":"Welcome to the experiment. Press any key to begin.","response":" ","trial_type":"html-keyboard-response","trial_index":0,"plugin_version":"2.1.0","time_elapsed":1920},{"rt":17385,"stimulus":"\n        <div class=\"instructions-container\">\n          <h2>Instructions</h2>\n\n          <p>\n          In this experiment, you will see <strong>two Random Dot Kinematograms (RDKs)</strong> displayed simultaneously.\n          </p>\n\n          <p>\n          An RDK is a visual stimulus consisting of many small dots that move coherently in a single direction. \n          In this experiment, the dots will be either <strong>white</strong> or <strong>black</strong> \n          (see the short demo below for an example of an RDK stimulus).\n          </p>\n\n          <p>\n          On each trial, the two RDKs will move in different directions. \n          Your task is to decide <strong>which RDK appears to contain more dots</strong>.\n          </p>\n\n          <p>\n          The RDK that you judge to have more dots is called the <strong>target RDK</strong>. \n          For example, if the white RDK appears to have more dots than the black RDK, \n          you should report the motion direction of the white RDK.\n          </p>\n\n          <p>\n          After viewing the RDKs, you will rotate a bar to indicate the perceived direction of the target RDK \n          using the <strong>left</strong> and <strong>right arrow keys</strong>. \n          Press <strong>Enter</strong> when you are satisfied with your response.\n          When the bar is held down, the rotation speed increases.\n          </p>\n\n          <p>\n          You will receive points based on the <strong>accuracy of your response</strong>, \n          and your final <strong>bonus reward</strong> may depend on your overall performance. \n          Please try to respond as accurately as possible.\n          </p>\n\n          <p>\n          You will first complete <strong>16 practice trials</strong>. \n          Press the <strong>Enter</strong> key to start the practice phase.\n          </p>\n\n          <canvas id=\"instruction-demo-rdk\" width=\"200\" height=\"200\"style=\"display:block;margin:12px auto; border-radius: 50%;\"></canvas>\n        </div>\n      ","response":"Enter","trial_type":"html-keyboard-response","trial_index":1,"plugin_version":"2.1.0","time_elapsed":19310},{"rt":null,"stimulus":"<div class=\"fixation\" style=\"font-size: 60px;\">+</div>","response":null,"trial_type":"html-keyboard-response","trial_index":2,"plugin_version":"2.1.0","time_elapsed":20318},{"target_group":"black","target_index":1,"condition_label":"practice","rt":-1,"response":"","correct":false,"choices":"ALL_KEYS","correct_choice":["a"],"trial_duration":2000,"flip_timestamps":[],"response_ends_trial":false,"number_of_apertures":2,"number_of_dots":[69,100],"number_of_sets":1,"coherent_direction":[265,356],"coherence":1,"opposite_coherence":0,"dot_radius":2,"dot_side_length":1,"dot_life":-1,"move_distance":1,"aperture_width":300,"aperture_height":300,"dot_color":["white","black"],"dot_shape":"circle","background_color":"#AAA","RDK_type":3,"aperture_type":2,"reinsert_type":2,"frame_rate":16.710743801652892,"frame_rate_array":[1,12,18,15,17,16,17,17,17,16,17,16,17,17,16,17,17,17,17,17,17,17,17,17,16,17,17,17,17,16,17,17,17,17,17,17,17,17,17,17,16,17,17,17,17,17,17,17,17,16,17,17,17,17,17,17,17,17,17,17,17,17,17,17,17,17,17,17,17,17,17,17,17,17,17,17,17,17,17,17,16,17,17,17,17,17,17,17,16,17,17,17,17,17,17,17,17,17,17,17,17,18,16,17,25,8,16,17,17,17,17,17,16,17,17,17,17,17,17,17,17],"number_of_frames":121,"aperture_center_x":640,"aperture_center_y":360,"fixation_cross":true,"fixation_cross_width":15,"fixation_cross_height":15,"fixation_cross_color":"#111","fixation_cross_thickness":1,"border":true,"border_thickness":2,"border_color":"transparent","canvas_width":1280,"canvas_height":720,"trial_type":"rdk","trial_index":3,"plugin_version":"2.0.0","time_elapsed":22323,"phase":"practice","target_direction":356,"distractor_direction":265},{"rt":13689,"stimulus":"\n        <div class=\"response-container\">\n          <div class=\"response-instruction\">\n            <p>rotate the bar by using the left and right arrow keys.</p>\n            <p>when you are determined, press the Enter key.</p>\n          </div>\n          <div class=\"response-circle\">\n            <div class=\"response-fixation\"></div>\n            <div id=\"bar\" class=\"rotating-bar\"></div>\n          </div>\n        </div>\n      ","response":"Enter","trial_type":"html-keyboard-response","trial_index":4,"plugin_version":"2.1.0","time_elapsed":36013,"random_initial_angle":305,"response_angle_css":413,"response_angle_rdk":37,"angular_error_target":41,"angular_error_distractor":132,"target_direction":356,"target_group":"black","reward_points":1},{"rt":null,"stimulus":"\n          <p style=\"color: #FF3333;\">Your reward: 1 points</p>\n        ","response":null,"trial_type":"html-keyboard-response","trial_index":5,"plugin_version":"2.1.0","time_elapsed":38027},{"rt":null,"stimulus":"<div class=\"fixation\" style=\"font-size: 60px;\">+</div>","response":null,"trial_type":"html-keyboard-response","trial_index":6,"plugin_version":"2.1.0","time_elapsed":39042},{"target_group":"black","target_index":1,"condition_label":"practice","rt":-1,"response":"","correct":false,"choices":"ALL_KEYS","correct_choice":["a"],"trial_duration":2000,"flip_timestamps":[],"response_ends_trial":false,"number_of_apertures":2,"number_of_dots":[80,100],"number_of_sets":1,"coherent_direction":[341,251],"coherence":1,"opposite_coherence":0,"dot_radius":2,"dot_side_length":1,"dot_life":-1,"move_distance":1,"aperture_width":300,"aperture_height":300,"dot_color":["white","black"],"dot_shape":"circle","background_color":"#AAA","RDK_type":3,"aperture_type":2,"reinsert_type":2,"frame_rate":16.727272727272727,"frame_rate_array":[3,17,17,17,17,16,17,17,17,17,17,17,17,17,19,15,17,17,16,17,16,17,17,17,16,17,17,16,17,18,16,16,16,17,16,17,17,17,17,17,17,17,16,17,17,17,17,17,17,16,17,17,17,17,16,17,17,17,16,17,17,17,17,17,17,17,17,17,17,16,17,16,17,17,17,17,17,16,17,17,17,17,17,17,17,17,17,17,17,17,16,17,17,17,17,17,17,17,17,17,17,16,17,16,17,17,17,17,17,17,17,17,17,17,16,17,17,17,17,17,17],"number_of_frames":121,"aperture_center_x":640,"aperture_center_y":360,"fixation_cross":true,"fixation_cross_width":15,"fixation_cross_height":15,"fixation_cross_color":"#111","fixation_cross_thickness":1,"border":true,"border_thickness":2,"border_color":"transparent","canvas_width":1280,"canvas_height":720,"trial_type":"rdk","trial_index":7,"plugin_version":"2.0.0","time_elapsed":41048,"phase":"practice","target_direction":251,"distractor_direction":341},{"rt":3458,"stimulus":"\n        <div class=\"response-container\">\n          <div class=\"response-instruction\">\n            <p>rotate the bar by using the left and right arrow keys.</p>\n            <p>when you are determined, press the Enter key.</p>\n          </div>\n          <div class=\"response-circle\">\n            <div class=\"response-fixation\"></div>\n            <div id=\"bar\" class=\"rotating-bar\"></div>\n          </div>\n        </div>\n      ","response":"Enter","trial_type":"html-keyboard-response","trial_index":8,"plugin_version":"2.1.0","time_elapsed":44508,"random_initial_angle":168,"response_angle_css":231,"response_angle_rdk":219,"angular_error_target":-32,"angular_error_distractor":-122,"target_direction":251,"target_group":"black","reward_points":3},{"rt":null,"stimulus":"\n          <p style=\"color: #00FF00;\">Your reward: 3 points</p>\n        ","response":null,"trial_type":"html-keyboard-response","trial_index":9,"plugin_version":"2.1.0","time_elapsed":46525},{"rt":null,"stimulus":"<div class=\"fixation\" style=\"font-size: 60px;\">+</div>","response":null,"trial_type":"html-keyboard-response","trial_index":10,"plugin_version":"2.1.0","time_elapsed":47540},{"target_group":"white","target_index":0,"condition_label":"practice","rt":-1,"response":"","correct":false,"choices":"ALL_KEYS","correct_choice":["a"],"trial_duration":2000,"flip_timestamps":[],"response_ends_trial":false,"number_of_apertures":2,"number_of_dots":[100,94],"number_of_sets":1,"coherent_direction":[310,91],"coherence":1,"opposite_coherence":0,"dot_radius":2,"dot_side_length":1,"dot_life":-1,"move_distance":1,"aperture_width":300,"aperture_height":300,"dot_color":["white","black"],"dot_shape":"circle","background_color":"#AAA","RDK_type":3,"aperture_type":2,"reinsert_type":2,"frame_rate":16.710743801652892,"frame_rate_array":[2,16,17,17,16,17,16,16,17,17,17,16,17,17,17,16,17,17,17,17,17,17,17,16,17,17,16,17,17,17,17,17,17,17,17,17,16,17,17,17,16,17,17,17,17,16,17,17,17,17,17,17,17,17,16,17,17,18,16,17,17,16,17,17,17,17,16,17,17,17,17,17,16,17,17,17,17,17,17,17,17,16,17,17,17,17,17,16,17,17,17,17,17,17,17,17,17,17,17,17,17,17,17,17,17,17,16,17,16,17,17,17,17,17,17,17,16,17,17,17,17],"number_of_frames":121,"aperture_center_x":640,"aperture_center_y":360,"fixation_cross":true,"fixation_cross_width":15,"fixation_cross_height":15,"fixation_cross_color":"#111","fixation_cross_thickness":1,"border":true,"border_thickness":2,"border_color":"transparent","canvas_width":1280,"canvas_height":720,"trial_type":"rdk","trial_index":11,"plugin_version":"2.0.0","time_elapsed":49545,"phase":"practice","target_direction":310,"distractor_direction":91},{"rt":3218,"stimulus":"\n        <div class=\"response-container\">\n          <div class=\"response-instruction\">\n            <p>rotate the bar by using the left and right arrow keys.</p>\n            <p>when you are determined, press the Enter key.</p>\n          </div>\n          <div class=\"response-circle\">\n            <div class=\"response-fixation\"></div>\n            <div id=\"bar\" class=\"rotating-bar\"></div>\n          </div>\n        </div>\n      ","response":"Enter","trial_type":"html-keyboard-response","trial_index":12,"plugin_version":"2.1.0","time_elapsed":52765,"random_initial_angle":42,"response_angle_css":1,"response_angle_rdk":89,"angular_error_target":139,"angular_error_distractor":-2,"target_direction":310,"target_group":"white","reward_points":0},{"rt":null,"stimulus":"\n          <p style=\"color: #FF3333;\">Your reward: 0 points</p>\n        ","response":null,"trial_type":"html-keyboard-response","trial_index":13,"plugin_version":"2.1.0","time_elapsed":54770},{"rt":null,"stimulus":"<div class=\"fixation\" style=\"font-size: 60px;\">+</div>","response":null,"trial_type":"html-keyboard-response","trial_index":14,"plugin_version":"2.1.0","time_elapsed":55786},{"target_group":"black","target_index":1,"condition_label":"practice","rt":-1,"response":"","correct":false,"choices":"ALL_KEYS","correct_choice":["a"],"trial_duration":2000,"flip_timestamps":[],"response_ends_trial":false,"number_of_apertures":2,"number_of_dots":[66,100],"number_of_sets":1,"coherent_direction":[343,182],"coherence":1,"opposite_coherence":0,"dot_radius":2,"dot_side_length":1,"dot_life":-1,"move_distance":1,"aperture_width":300,"aperture_height":300,"dot_color":["white","black"],"dot_shape":"circle","background_color":"#AAA","RDK_type":3,"aperture_type":2,"reinsert_type":2,"frame_rate":18.16216216216216,"frame_rate_array":[2,71,13,17,17,16,17,17,16,17,17,17,16,17,17,16,17,17,17,16,17,17,17,17,16,17,16,17,17,17,17,16,17,17,17,17,17,17,17,17,17,17,16,17,17,17,17,17,17,16,16,17,17,17,134,17,15,17,17,17,17,16,17,16,17,16,17,17,16,17,17,17,16,17,17,17,17,17,17,17,17,17,17,16,17,17,17,17,16,17,17,17,17,17,17,16,17,16,17,17,17,17,17,17,17,17,17,17,16,17,17],"number_of_frames":111,"aperture_center_x":640,"aperture_center_y":360,"fixation_cross":true,"fixation_cross_width":15,"fixation_cross_height":15,"fixation_cross_color":"#111","fixation_cross_thickness":1,"border":true,"border_thickness":2,"border_color":"transparent","canvas_width":1280,"canvas_height":720,"trial_type":"rdk","trial_index":15,"plugin_version":"2.0.0","time_elapsed":57792,"phase":"practice","target_direction":182,"distractor_direction":343},{"rt":4059,"stimulus":"\n        <div class=\"response-container\">\n          <div class=\"response-instruction\">\n            <p>rotate the bar by using the left and right arrow keys.</p>\n            <p>when you are determined, press the Enter key.</p>\n          </div>\n          <div class=\"response-circle\">\n            <div class=\"response-fixation\"></div>\n            <div id=\"bar\" class=\"rotating-bar\"></div>\n          </div>\n        </div>\n      ","response":"Enter","trial_type":"html-keyboard-response","trial_index":16,"plugin_version":"2.1.0","time_elapsed":61854,"random_initial_angle":199,"response_angle_css":277,"response_angle_rdk":173,"angular_error_target":-9,"angular_error_distractor":-170,"target_direction":182,"target_group":"black","reward_points":8},{"rt":null,"stimulus":"\n          <p style=\"color: #00FF00;\">Your reward: 8 points</p>\n        ","response":null,"trial_type":"html-keyboard-response","trial_index":17,"plugin_version":"2.1.0","time_elapsed":63869},{"rt":null,"stimulus":"<div class=\"fixation\" style=\"font-size: 60px;\">+</div>","response":null,"trial_type":"html-keyboard-response","trial_index":18,"plugin_version":"2.1.0","time_elapsed":64883},{"target_group":"white","target_index":0,"condition_label":"practice","rt":-1,"response":"","correct":false,"choices":"ALL_KEYS","correct_choice":["a"],"trial_duration":2000,"flip_timestamps":[],"response_ends_trial":false,"number_of_apertures":2,"number_of_dots":[100,51],"number_of_sets":1,"coherent_direction":[74,190],"coherence":1,"opposite_coherence":0,"dot_radius":2,"dot_side_length":1,"dot_life":-1,"move_distance":1,"aperture_width":300,"aperture_height":300,"dot_color":["white","black"],"dot_shape":"circle","background_color":"#AAA","RDK_type":3,"aperture_type":2,"reinsert_type":2,"frame_rate":17.29310344827586,"frame_rate_array":[1,15,17,17,16,17,17,17,17,17,16,17,16,17,16,17,17,17,17,17,17,17,16,17,16,17,17,16,17,17,17,16,17,17,17,17,17,17,17,17,16,20,16,18,15,17,16,17,109,2,9,16,12,24,15,51,3,14,18,11,16,15,17,17,16,17,17,17,17,16,16,17,17,17,19,16,17,15,17,17,17,16,19,14,18,16,17,16,17,17,16,18,16,17,16,17,17,17,16,16,17,17,16,17,17,17,16,16,17,18,16,16,17,17,16,17],"number_of_frames":116,"aperture_center_x":640,"aperture_center_y":360,"fixation_cross":true,"fixation_cross_width":15,"fixation_cross_height":15,"fixation_cross_color":"#111","fixation_cross_thickness":1,"border":true,"border_thickness":2,"border_color":"transparent","canvas_width":1280,"canvas_height":720,"trial_type":"rdk","trial_index":19,"plugin_version":"2.0.0","time_elapsed":66889,"phase":"practice","target_direction":74,"distractor_direction":190},{"rt":3097,"stimulus":"\n        <div class=\"response-container\">\n          <div class=\"response-instruction\">\n            <p>rotate the bar by using the left and right arrow keys.</p>\n            <p>when you are determined, press the Enter key.</p>\n          </div>\n          <div class=\"response-circle\">\n            <div class=\"response-fixation\"></div>\n            <div id=\"bar\" class=\"rotating-bar\"></div>\n          </div>\n        </div>\n      ","response":"Enter","trial_type":"html-keyboard-response","trial_index":20,"plugin_version":"2.1.0","time_elapsed":69989,"random_initial_angle":149,"response_angle_css":41,"response_angle_rdk":49,"angular_error_target":-25,"angular_error_distractor":-141,"target_direction":74,"target_group":"white","reward_points":5},{"rt":null,"stimulus":"\n          <p style=\"color: #00FF00;\">Your reward: 5 points</p>\n        ","response":null,"trial_type":"html-keyboard-response","trial_index":21,"plugin_version":"2.1.0","time_elapsed":72002},{"rt":null,"stimulus":"<div class=\"fixation\" style=\"font-size: 60px;\">+</div>","response":null,"trial_type":"html-keyboard-response","trial_index":22,"plugin_version":"2.1.0","time_elapsed":73017},{"target_group":"white","target_index":0,"condition_label":"practice","rt":-1,"response":"","correct":false,"choices":"ALL_KEYS","correct_choice":["a"],"trial_duration":2000,"flip_timestamps":[],"response_ends_trial":false,"number_of_apertures":2,"number_of_dots":[100,92],"number_of_sets":1,"coherent_direction":[162,266],"coherence":1,"opposite_coherence":0,"dot_radius":2,"dot_side_length":1,"dot_life":-1,"move_distance":1,"aperture_width":300,"aperture_height":300,"dot_color":["white","black"],"dot_shape":"circle","background_color":"#AAA","RDK_type":3,"aperture_type":2,"reinsert_type":2,"frame_rate":16.808333333333334,"frame_rate_array":[13,16,17,16,17,17,17,16,17,17,17,17,16,17,17,17,17,17,17,17,17,17,16,17,16,17,17,16,16,17,16,17,16,17,17,17,17,17,17,17,17,17,17,17,17,17,16,17,17,17,16,17,17,16,17,17,17,17,17,17,17,17,17,16,17,17,17,17,17,16,17,17,17,17,17,17,17,17,17,17,17,17,17,17,17,17,17,17,17,17,17,17,17,17,17,17,17,17,16,17,17,17,17,16,17,16,17,17,17,17,17,17,17,17,17,17,17,17,16,17],"number_of_frames":120,"aperture_center_x":640,"aperture_center_y":360,"fixation_cross":true,"fixation_cross_width":15,"fixation_cross_height":15,"fixation_cross_color":"#111","fixation_cross_thickness":1,"border":true,"border_thickness":2,"border_color":"transparent","canvas_width":1280,"canvas_height":720,"trial_type":"rdk","trial_index":23,"plugin_version":"2.0.0","time_elapsed":75031,"phase":"practice","target_direction":162,"distractor_direction":266},{"rt":3069,"stimulus":"\n        <div class=\"response-container\">\n          <div class=\"response-instruction\">\n            <p>rotate the bar by using the left and right arrow keys.</p>\n            <p>when you are determined, press the Enter key.</p>\n          </div>\n          <div class=\"response-circle\">\n            <div class=\"response-fixation\"></div>\n            <div id=\"bar\" class=\"rotating-bar\"></div>\n          </div>\n        </div>\n      ","response":"Enter","trial_type":"html-keyboard-response","trial_index":24,"plugin_version":"2.1.0","time_elapsed":78101,"random_initial_angle":6,"response_angle_css":-47,"response_angle_rdk":137,"angular_error_target":-25,"angular_error_distractor":-129,"target_direction":162,"target_group":"white","reward_points":5},{"rt":null,"stimulus":"\n          <p style=\"color: #00FF00;\">Your reward: 5 points</p>\n        ","response":null,"trial_type":"html-keyboard-response","trial_index":25,"plugin_version":"2.1.0","time_elapsed":80116},{"rt":null,"stimulus":"<div class=\"fixation\" style=\"font-size: 60px;\">+</div>","response":null,"trial_type":"html-keyboard-response","trial_index":26,"plugin_version":"2.1.0","time_elapsed":81119},{"target_group":"black","target_index":1,"condition_label":"practice","rt":-1,"response":"","correct":false,"choices":"ALL_KEYS","correct_choice":["a"],"trial_duration":2000,"flip_timestamps":[],"response_ends_trial":false,"number_of_apertures":2,"number_of_dots":[59,100],"number_of_sets":1,"coherent_direction":[216,41],"coherence":1,"opposite_coherence":0,"dot_radius":2,"dot_side_length":1,"dot_life":-1,"move_distance":1,"aperture_width":300,"aperture_height":300,"dot_color":["white","black"],"dot_shape":"circle","background_color":"#AAA","RDK_type":3,"aperture_type":2,"reinsert_type":2,"frame_rate":16.7,"frame_rate_array":[6,17,17,16,17,17,17,17,19,16,16,23,11,17,17,16,20,41,15,1,9,22,11,17,17,17,17,17,17,17,17,18,17,16,18,16,17,14,18,21,13,15,17,17,18,18,14,19,15,18,19,15,16,16,17,19,15,19,16,22,11,16,21,16,14,21,14,17,14,14,18,16,16,19,15,17,20,19,16,14,15,18,20,12,19,17,16,16,18,16,17,15,17,17,17,15,17,16,19,17,15,16,17,18,16,17,19,16,15,17,17,17,17,16,18,18,15,17,16,18],"number_of_frames":120,"aperture_center_x":640,"aperture_center_y":360,"fixation_cross":true,"fixation_cross_width":15,"fixation_cross_height":15,"fixation_cross_color":"#111","fixation_cross_thickness":1,"border":true,"border_thickness":2,"border_color":"transparent","canvas_width":1280,"canvas_height":720,"trial_type":"rdk","trial_index":27,"plugin_version":"2.0.0","time_elapsed":83126,"phase":"practice","target_direction":41,"distractor_direction":216},{"rt":2741,"stimulus":"\n        <div class=\"response-container\">\n          <div class=\"response-instruction\">\n            <p>rotate the bar by using the left and right arrow keys.</p>\n            <p>when you are determined, press the Enter key.</p>\n          </div>\n          <div class=\"response-circle\">\n            <div class=\"response-fixation\"></div>\n            <div id=\"bar\" class=\"rotating-bar\"></div>\n          </div>\n        </div>\n      ","response":"Enter","trial_type":"html-keyboard-response","trial_index":28,"plugin_version":"2.1.0","time_elapsed":85869,"random_initial_angle":291,"response_angle_css":407,"response_angle_rdk":43,"angular_error_target":2,"angular_error_distractor":-173,"target_direction":41,"target_group":"black","reward_points":9},{"rt":null,"stimulus":"\n          <p style=\"color: #00FF00;\">Your reward: 9 points</p>\n        ","response":null,"trial_type":"html-keyboard-response","trial_index":29,"plugin_version":"2.1.0","time_elapsed":87871},{"rt":null,"stimulus":"<div class=\"fixation\" style=\"font-size: 60px;\">+</div>","response":null,"trial_type":"html-keyboard-response","trial_index":30,"plugin_version":"2.1.0","time_elapsed":88885},{"target_group":"white","target_index":0,"condition_label":"practice","rt":-1,"response":"","correct":false,"choices":"ALL_KEYS","correct_choice":["a"],"trial_duration":2000,"flip_timestamps":[],"response_ends_trial":false,"number_of_apertures":2,"number_of_dots":[100,54],"number_of_sets":1,"coherent_direction":[183,29],"coherence":1,"opposite_coherence":0,"dot_radius":2,"dot_side_length":1,"dot_life":-1,"move_distance":1,"aperture_width":300,"aperture_height":300,"dot_color":["white","black"],"dot_shape":"circle","background_color":"#AAA","RDK_type":3,"aperture_type":2,"reinsert_type":2,"frame_rate":16.68595041322314,"frame_rate_array":[4,16,17,16,17,17,17,17,17,17,21,14,15,17,17,16,16,17,17,17,17,17,17,17,17,17,17,17,17,16,17,17,16,17,17,16,17,17,17,16,17,17,17,17,17,17,17,17,17,17,16,17,17,17,17,17,17,18,15,17,18,15,17,17,17,17,17,17,16,17,20,13,17,17,18,18,14,16,17,17,17,17,18,19,16,14,18,17,17,16,16,17,17,18,17,15,18,17,15,17,17,17,16,18,16,18,15,19,17,15,17,17,16,17,16,17,18,15,17,17,17],"number_of_frames":121,"aperture_center_x":640,"aperture_center_y":360,"fixation_cross":true,"fixation_cross_width":15,"fixation_cross_height":15,"fixation_cross_color":"#111","fixation_cross_thickness":1,"border":true,"border_thickness":2,"border_color":"transparent","canvas_width":1280,"canvas_height":720,"trial_type":"rdk","trial_index":31,"plugin_version":"2.0.0","time_elapsed":90894,"phase":"practice","target_direction":183,"distractor_direction":29},{"rt":2773,"stimulus":"\n        <div class=\"response-container\">\n          <div class=\"response-instruction\">\n            <p>rotate the bar by using the left and right arrow keys.</p>\n            <p>when you are determined, press the Enter key.</p>\n          </div>\n          <div class=\"response-circle\">\n            <div class=\"response-fixation\"></div>\n            <div id=\"bar\" class=\"rotating-bar\"></div>\n          </div>\n        </div>\n      ","response":"Enter","trial_type":"html-keyboard-response","trial_index":32,"plugin_version":"2.1.0","time_elapsed":93671,"random_initial_angle":335,"response_angle_css":263,"response_angle_rdk":187,"angular_error_target":4,"angular_error_distractor":158,"target_direction":183,"target_group":"white","reward_points":9},{"rt":null,"stimulus":"\n          <p style=\"color: #00FF00;\">Your reward: 9 points</p>\n        ","response":null,"trial_type":"html-keyboard-response","trial_index":33,"plugin_version":"2.1.0","time_elapsed":95681},{"rt":null,"stimulus":"<div class=\"fixation\" style=\"font-size: 60px;\">+</div>","response":null,"trial_type":"html-keyboard-response","trial_index":34,"plugin_version":"2.1.0","time_elapsed":96697},{"target_group":"black","target_index":1,"condition_label":"practice","rt":-1,"response":"","correct":false,"choices":"ALL_KEYS","correct_choice":["a"],"trial_duration":2000,"flip_timestamps":[],"response_ends_trial":false,"number_of_apertures":2,"number_of_dots":[71,100],"number_of_sets":1,"coherent_direction":[332,87],"coherence":1,"opposite_coherence":0,"dot_radius":2,"dot_side_length":1,"dot_life":-1,"move_distance":1,"aperture_width":300,"aperture_height":300,"dot_color":["white","black"],"dot_shape":"circle","background_color":"#AAA","RDK_type":3,"aperture_type":2,"reinsert_type":2,"frame_rate":16.71900826446281,"frame_rate_array":[5,16,17,18,16,17,17,17,16,17,17,17,17,17,17,17,16,17,17,17,17,17,17,17,16,17,19,14,17,17,17,17,17,17,17,16,17,16,17,17,16,17,17,17,16,17,17,16,17,17,17,17,17,16,17,17,17,17,17,17,17,17,17,17,17,17,16,17,17,17,16,17,17,16,17,16,16,17,16,17,17,17,17,17,17,17,16,17,18,16,17,17,17,17,17,17,17,17,17,16,18,15,17,17,16,17,17,17,17,17,17,17,17,16,23,11,17,17,17,18,16],"number_of_frames":121,"aperture_center_x":640,"aperture_center_y":360,"fixation_cross":true,"fixation_cross_width":15,"fixation_cross_height":15,"fixation_cross_color":"#111","fixation_cross_thickness":1,"border":true,"border_thickness":2,"border_color":"transparent","canvas_width":1280,"canvas_height":720,"trial_type":"rdk","trial_index":35,"plugin_version":"2.0.0","time_elapsed":98707,"phase":"practice","target_direction":87,"distractor_direction":332},{"rt":3247,"stimulus":"\n        <div class=\"response-container\">\n          <div class=\"response-instruction\">\n            <p>rotate the bar by using the left and right arrow keys.</p>\n            <p>when you are determined, press the Enter key.</p>\n          </div>\n          <div class=\"response-circle\">\n            <div class=\"response-fixation\"></div>\n            <div id=\"bar\" class=\"rotating-bar\"></div>\n          </div>\n        </div>\n      ","response":"Enter","trial_type":"html-keyboard-response","trial_index":36,"plugin_version":"2.1.0","time_elapsed":101957,"random_initial_angle":293,"response_angle_css":357,"response_angle_rdk":93,"angular_error_target":6,"angular_error_distractor":121,"target_direction":87,"target_group":"black","reward_points":8},{"rt":null,"stimulus":"\n          <p style=\"color: #00FF00;\">Your reward: 8 points</p>\n        ","response":null,"trial_type":"html-keyboard-response","trial_index":37,"plugin_version":"2.1.0","time_elapsed":103964},{"rt":null,"stimulus":"<div class=\"fixation\" style=\"font-size: 60px;\">+</div>","response":null,"trial_type":"html-keyboard-response","trial_index":38,"plugin_version":"2.1.0","time_elapsed":104974},{"target_group":"black","target_index":1,"condition_label":"practice","rt":-1,"response":"","correct":false,"choices":"ALL_KEYS","correct_choice":["a"],"trial_duration":2000,"flip_timestamps":[],"response_ends_trial":false,"number_of_apertures":2,"number_of_dots":[64,100],"number_of_sets":1,"coherent_direction":[140,259],"coherence":1,"opposite_coherence":0,"dot_radius":2,"dot_side_length":1,"dot_life":-1,"move_distance":1,"aperture_width":300,"aperture_height":300,"dot_color":["white","black"],"dot_shape":"circle","background_color":"#AAA","RDK_type":3,"aperture_type":2,"reinsert_type":2,"frame_rate":16.666666666666668,"frame_rate_array":[5,17,17,16,20,15,16,18,15,16,17,16,20,14,17,16,17,17,19,15,15,17,16,17,17,16,17,17,17,17,17,17,17,17,17,17,16,17,17,19,16,14,17,16,17,17,17,17,16,17,17,17,17,17,16,17,17,17,17,17,16,17,19,15,17,17,16,17,17,16,17,17,16,17,17,17,17,18,16,17,17,18,14,18,16,19,14,20,13,17,17,17,17,17,17,16,17,16,18,16,17,16,17,17,16,17,17,17,17,18,15,17,17,19,15,17,17,17,17,17],"number_of_frames":120,"aperture_center_x":640,"aperture_center_y":360,"fixation_cross":true,"fixation_cross_width":15,"fixation_cross_height":15,"fixation_cross_color":"#111","fixation_cross_thickness":1,"border":true,"border_thickness":2,"border_color":"transparent","canvas_width":1280,"canvas_height":720,"trial_type":"rdk","trial_index":39,"plugin_version":"2.0.0","time_elapsed":106990,"phase":"practice","target_direction":259,"distractor_direction":140},{"rt":2612,"stimulus":"\n        <div class=\"response-container\">\n          <div class=\"response-instruction\">\n            <p>rotate the bar by using the left and right arrow keys.</p>\n            <p>when you are determined, press the Enter key.</p>\n          </div>\n          <div class=\"response-circle\">\n            <div class=\"response-fixation\"></div>\n            <div id=\"bar\" class=\"rotating-bar\"></div>\n          </div>\n        </div>\n      ","response":"Enter","trial_type":"html-keyboard-response","trial_index":40,"plugin_version":"2.1.0","time_elapsed":109605,"random_initial_angle":79,"response_angle_css":180,"response_angle_rdk":270,"angular_error_target":11,"angular_error_distractor":130,"target_direction":259,"target_group":"black","reward_points":7},{"rt":null,"stimulus":"\n          <p style=\"color: #00FF00;\">Your reward: 7 points</p>\n        ","response":null,"trial_type":"html-keyboard-response","trial_index":41,"plugin_version":"2.1.0","time_elapsed":111617},{"rt":null,"stimulus":"<div class=\"fixation\" style=\"font-size: 60px;\">+</div>","response":null,"trial_type":"html-keyboard-response","trial_index":42,"plugin_version":"2.1.0","time_elapsed":112632},{"target_group":"white","target_index":0,"condition_label":"practice","rt":-1,"response":"","correct":false,"choices":"ALL_KEYS","correct_choice":["a"],"trial_duration":2000,"flip_timestamps":[],"response_ends_trial":false,"number_of_apertures":2,"number_of_dots":[100,60],"number_of_sets":1,"coherent_direction":[96,201],"coherence":1,"opposite_coherence":0,"dot_radius":2,"dot_side_length":1,"dot_life":-1,"move_distance":1,"aperture_width":300,"aperture_height":300,"dot_color":["white","black"],"dot_shape":"circle","background_color":"#AAA","RDK_type":3,"aperture_type":2,"reinsert_type":2,"frame_rate":16.75,"frame_rate_array":[11,16,17,28,6,16,17,16,17,17,17,16,17,16,17,17,24,9,17,17,17,17,17,20,16,14,17,18,15,18,16,17,17,16,17,16,17,17,17,17,17,16,17,17,17,17,17,17,17,17,17,17,17,17,17,17,17,17,16,17,16,17,17,17,16,17,16,17,17,17,17,16,17,17,17,17,18,16,18,15,17,17,17,17,17,17,17,20,14,17,16,17,17,17,17,18,15,17,17,16,17,17,16,17,17,18,15,17,17,18,16,16,17,17,17,19,14,17,17,17],"number_of_frames":120,"aperture_center_x":640,"aperture_center_y":360,"fixation_cross":true,"fixation_cross_width":15,"fixation_cross_height":15,"fixation_cross_color":"#111","fixation_cross_thickness":1,"border":true,"border_thickness":2,"border_color":"transparent","canvas_width":1280,"canvas_height":720,"trial_type":"rdk","trial_index":43,"plugin_version":"2.0.0","time_elapsed":114637,"phase":"practice","target_direction":96,"distractor_direction":201},{"rt":3777,"stimulus":"\n        <div class=\"response-container\">\n          <div class=\"response-instruction\">\n            <p>rotate the bar by using the left and right arrow keys.</p>\n            <p>when you are determined, press the Enter key.</p>\n          </div>\n          <div class=\"response-circle\">\n            <div class=\"response-fixation\"></div>\n            <div id=\"bar\" class=\"rotating-bar\"></div>\n          </div>\n        </div>\n      ","response":"Enter","trial_type":"html-keyboard-response","trial_index":44,"plugin_version":"2.1.0","time_elapsed":118431,"random_initial_angle":185,"response_angle_css":359,"response_angle_rdk":91,"angular_error_target":-5,"angular_error_distractor":-110,"target_direction":96,"target_group":"white","reward_points":9},{"rt":null,"stimulus":"\n          <p style=\"color: #00FF00;\">Your reward: 9 points</p>\n        ","response":null,"trial_type":"html-keyboard-response","trial_index":45,"plugin_version":"2.1.0","time_elapsed":120447},{"rt":null,"stimulus":"<div class=\"fixation\" style=\"font-size: 60px;\">+</div>","response":null,"trial_type":"html-keyboard-response","trial_index":46,"plugin_version":"2.1.0","time_elapsed":121461},{"target_group":"white","target_index":0,"condition_label":"practice","rt":-1,"response":"","correct":false,"choices":"ALL_KEYS","correct_choice":["a"],"trial_duration":2000,"flip_timestamps":[],"response_ends_trial":false,"number_of_apertures":2,"number_of_dots":[100,57],"number_of_sets":1,"coherent_direction":[113,313],"coherence":1,"opposite_coherence":0,"dot_radius":2,"dot_side_length":1,"dot_life":-1,"move_distance":1,"aperture_width":300,"aperture_height":300,"dot_color":["white","black"],"dot_shape":"circle","background_color":"#AAA","RDK_type":3,"aperture_type":2,"reinsert_type":2,"frame_rate":16.793388429752067,"frame_rate_array":[7,17,16,17,17,16,17,17,19,15,17,17,17,17,17,17,19,15,19,14,17,17,17,17,17,17,17,17,17,17,17,17,17,17,17,17,16,17,16,17,17,17,17,17,17,17,17,17,17,17,19,14,17,17,17,17,17,17,17,16,17,17,17,17,17,17,17,17,17,17,17,17,17,17,17,17,17,16,17,17,16,17,16,17,17,16,17,17,17,17,17,17,17,17,16,17,17,17,16,17,16,17,17,17,17,20,14,17,19,14,17,17,19,14,18,16,17,16,17,17,19],"number_of_frames":121,"aperture_center_x":640,"aperture_center_y":360,"fixation_cross":true,"fixation_cross_width":15,"fixation_cross_height":15,"fixation_cross_color":"#111","fixation_cross_thickness":1,"border":true,"border_thickness":2,"border_color":"transparent","canvas_width":1280,"canvas_height":720,"trial_type":"rdk","trial_index":47,"plugin_version":"2.0.0","time_elapsed":123481,"phase":"practice","target_direction":113,"distractor_direction":313},{"rt":2714,"stimulus":"\n        <div class=\"response-container\">\n          <div class=\"response-instruction\">\n            <p>rotate the bar by using the left and right arrow keys.</p>\n            <p>when you are determined, press the Enter key.</p>\n          </div>\n          <div class=\"response-circle\">\n            <div class=\"response-fixation\"></div>\n            <div id=\"bar\" class=\"rotating-bar\"></div>\n          </div>\n        </div>\n      ","response":"Enter","trial_type":"html-keyboard-response","trial_index":48,"plugin_version":"2.1.0","time_elapsed":126196,"random_initial_angle":282,"response_angle_css":320,"response_angle_rdk":130,"angular_error_target":17,"angular_error_distractor":177,"target_direction":113,"target_group":"white","reward_points":6},{"rt":null,"stimulus":"\n          <p style=\"color: #00FF00;\">Your reward: 6 points</p>\n        ","response":null,"trial_type":"html-keyboard-response","trial_index":49,"plugin_version":"2.1.0","time_elapsed":128206},{"rt":null,"stimulus":"<div class=\"fixation\" style=\"font-size: 60px;\">+</div>","response":null,"trial_type":"html-keyboard-response","trial_index":50,"plugin_version":"2.1.0","time_elapsed":129221},{"target_group":"white","target_index":0,"condition_label":"practice","rt":-1,"response":"","correct":false,"choices":"ALL_KEYS","correct_choice":["a"],"trial_duration":2000,"flip_timestamps":[],"response_ends_trial":false,"number_of_apertures":2,"number_of_dots":[100,57],"number_of_sets":1,"coherent_direction":[70,255],"coherence":1,"opposite_coherence":0,"dot_radius":2,"dot_side_length":1,"dot_life":-1,"move_distance":1,"aperture_width":300,"aperture_height":300,"dot_color":["white","black"],"dot_shape":"circle","background_color":"#AAA","RDK_type":3,"aperture_type":2,"reinsert_type":2,"frame_rate":16.785123966942148,"frame_rate_array":[1,16,17,17,16,17,17,17,17,17,17,17,17,17,17,17,17,17,17,17,17,17,17,17,17,17,16,17,17,17,16,17,17,16,17,17,17,17,17,17,17,17,17,17,17,17,17,17,17,17,16,17,17,17,17,17,17,17,17,17,17,16,17,17,17,17,17,17,16,17,17,17,17,17,17,17,17,17,17,17,17,17,17,17,17,17,17,17,17,17,17,17,17,17,17,16,17,17,17,17,17,17,17,17,17,17,17,17,17,17,17,17,17,17,17,17,17,16,17,17,17],"number_of_frames":121,"aperture_center_x":640,"aperture_center_y":360,"fixation_cross":true,"fixation_cross_width":15,"fixation_cross_height":15,"fixation_cross_color":"#111","fixation_cross_thickness":1,"border":true,"border_thickness":2,"border_color":"transparent","canvas_width":1280,"canvas_height":720,"trial_type":"rdk","trial_index":51,"plugin_version":"2.0.0","time_elapsed":131223,"phase":"practice","target_direction":70,"distractor_direction":255},{"rt":3276,"stimulus":"\n        <div class=\"response-container\">\n          <div class=\"response-instruction\">\n            <p>rotate the bar by using the left and right arrow keys.</p>\n            <p>when you are determined, press the Enter key.</p>\n          </div>\n          <div class=\"response-circle\">\n            <div class=\"response-fixation\"></div>\n            <div id=\"bar\" class=\"rotating-bar\"></div>\n          </div>\n        </div>\n      ","response":"Enter","trial_type":"html-keyboard-response","trial_index":52,"plugin_version":"2.1.0","time_elapsed":134501,"random_initial_angle":127,"response_angle_css":12,"response_angle_rdk":78,"angular_error_target":8,"angular_error_distractor":-177,"target_direction":70,"target_group":"white","reward_points":8},{"rt":null,"stimulus":"\n          <p style=\"color: #00FF00;\">Your reward: 8 points</p>\n        ","response":null,"trial_type":"html-keyboard-response","trial_index":53,"plugin_version":"2.1.0","time_elapsed":136516},{"rt":null,"stimulus":"<div class=\"fixation\" style=\"font-size: 60px;\">+</div>","response":null,"trial_type":"html-keyboard-response","trial_index":54,"plugin_version":"2.1.0","time_elapsed":137532},{"target_group":"black","target_index":1,"condition_label":"practice","rt":-1,"response":"","correct":false,"choices":"ALL_KEYS","correct_choice":["a"],"trial_duration":2000,"flip_timestamps":[],"response_ends_trial":false,"number_of_apertures":2,"number_of_dots":[52,100],"number_of_sets":1,"coherent_direction":[120,357],"coherence":1,"opposite_coherence":0,"dot_radius":2,"dot_side_length":1,"dot_life":-1,"move_distance":1,"aperture_width":300,"aperture_height":300,"dot_color":["white","black"],"dot_shape":"circle","background_color":"#AAA","RDK_type":3,"aperture_type":2,"reinsert_type":2,"frame_rate":16.760330578512395,"frame_rate_array":[1,17,16,17,17,17,17,17,17,16,17,16,17,17,17,17,17,17,17,17,17,17,17,17,17,18,15,17,17,17,17,17,17,17,16,17,17,17,17,17,17,17,16,17,16,17,17,17,17,16,17,17,17,17,17,17,17,16,17,17,17,17,17,17,17,17,17,17,17,16,17,17,17,17,17,17,17,17,17,17,17,17,16,17,17,17,17,17,17,17,17,17,17,17,16,17,17,17,17,17,17,17,17,17,17,17,17,17,17,17,17,17,16,17,17,17,17,17,17,17,17],"number_of_frames":121,"aperture_center_x":640,"aperture_center_y":360,"fixation_cross":true,"fixation_cross_width":15,"fixation_cross_height":15,"fixation_cross_color":"#111","fixation_cross_thickness":1,"border":true,"border_thickness":2,"border_color":"transparent","canvas_width":1280,"canvas_height":720,"trial_type":"rdk","trial_index":55,"plugin_version":"2.0.0","time_elapsed":139536,"phase":"practice","target_direction":357,"distractor_direction":120},{"rt":1650,"stimulus":"\n        <div class=\"response-container\">\n          <div class=\"response-instruction\">\n            <p>rotate the bar by using the left and right arrow keys.</p>\n            <p>when you are determined, press the Enter key.</p>\n          </div>\n          <div class=\"response-circle\">\n            <div class=\"response-fixation\"></div>\n            <div id=\"bar\" class=\"rotating-bar\"></div>\n          </div>\n        </div>\n      ","response":"Enter","trial_type":"html-keyboard-response","trial_index":56,"plugin_version":"2.1.0","time_elapsed":141189,"random_initial_angle":65,"response_angle_css":91,"response_angle_rdk":359,"angular_error_target":2,"angular_error_distractor":-121,"target_direction":357,"target_group":"black","reward_points":9},{"rt":null,"stimulus":"\n          <p style=\"color: #00FF00;\">Your reward: 9 points</p>\n        ","response":null,"trial_type":"html-keyboard-response","trial_index":57,"plugin_version":"2.1.0","time_elapsed":143192},{"rt":null,"stimulus":"<div class=\"fixation\" style=\"font-size: 60px;\">+</div>","response":null,"trial_type":"html-keyboard-response","trial_index":58,"plugin_version":"2.1.0","time_elapsed":144201},{"target_group":"white","target_index":0,"condition_label":"practice","rt":-1,"response":"","correct":false,"choices":"ALL_KEYS","correct_choice":["a"],"trial_duration":2000,"flip_timestamps":[],"response_ends_trial":false,"number_of_apertures":2,"number_of_dots":[100,91],"number_of_sets":1,"coherent_direction":[14,114],"coherence":1,"opposite_coherence":0,"dot_radius":2,"dot_side_length":1,"dot_life":-1,"move_distance":1,"aperture_width":300,"aperture_height":300,"dot_color":["white","black"],"dot_shape":"circle","background_color":"#AAA","RDK_type":3,"aperture_type":2,"reinsert_type":2,"frame_rate":16.866666666666667,"frame_rate_array":[14,16,17,17,17,17,17,17,17,17,17,17,17,17,17,19,14,17,17,17,17,17,16,17,17,17,17,16,17,17,17,17,17,17,17,17,17,17,17,17,17,18,16,16,16,17,17,17,17,22,12,16,17,17,17,17,17,17,16,16,17,16,17,17,16,17,17,16,17,17,16,17,17,17,17,17,17,17,17,17,17,17,17,17,17,17,17,17,17,17,17,17,17,17,17,17,17,17,17,17,17,17,17,17,17,17,17,17,17,17,17,17,17,17,17,17,17,17,17,17],"number_of_frames":120,"aperture_center_x":640,"aperture_center_y":360,"fixation_cross":true,"fixation_cross_width":15,"fixation_cross_height":15,"fixation_cross_color":"#111","fixation_cross_thickness":1,"border":true,"border_thickness":2,"border_color":"transparent","canvas_width":1280,"canvas_height":720,"trial_type":"rdk","trial_index":59,"plugin_version":"2.0.0","time_elapsed":146205,"phase":"practice","target_direction":14,"distractor_direction":114},{"rt":1359,"stimulus":"\n        <div class=\"response-container\">\n          <div class=\"response-instruction\">\n            <p>rotate the bar by using the left and right arrow keys.</p>\n            <p>when you are determined, press the Enter key.</p>\n          </div>\n          <div class=\"response-circle\">\n            <div class=\"response-fixation\"></div>\n            <div id=\"bar\" class=\"rotating-bar\"></div>\n          </div>\n        </div>\n      ","response":"Enter","trial_type":"html-keyboard-response","trial_index":60,"plugin_version":"2.1.0","time_elapsed":147564,"random_initial_angle":321,"response_angle_css":310,"response_angle_rdk":140,"angular_error_target":126,"angular_error_distractor":26,"target_direction":14,"target_group":"white","reward_points":0},{"rt":null,"stimulus":"\n          <p style=\"color: #FF3333;\">Your reward: 0 points</p>\n        ","response":null,"trial_type":"html-keyboard-response","trial_index":61,"plugin_version":"2.1.0","time_elapsed":149574},{"rt":null,"stimulus":"<div class=\"fixation\" style=\"font-size: 60px;\">+</div>","response":null,"trial_type":"html-keyboard-response","trial_index":62,"plugin_version":"2.1.0","time_elapsed":150592},{"target_group":"black","target_index":1,"condition_label":"practice","rt":-1,"response":"","correct":false,"choices":"ALL_KEYS","correct_choice":["a"],"trial_duration":2000,"flip_timestamps":[],"response_ends_trial":false,"number_of_apertures":2,"number_of_dots":[58,100],"number_of_sets":1,"coherent_direction":[295,85],"coherence":1,"opposite_coherence":0,"dot_radius":2,"dot_side_length":1,"dot_life":-1,"move_distance":1,"aperture_width":300,"aperture_height":300,"dot_color":["white","black"],"dot_shape":"circle","background_color":"#AAA","RDK_type":3,"aperture_type":2,"reinsert_type":2,"frame_rate":16.818181818181817,"frame_rate_array":[6,13,17,17,17,17,17,17,17,17,17,17,17,17,17,17,17,17,16,17,17,17,17,17,17,17,17,17,17,17,17,17,17,17,17,17,17,17,17,17,17,17,17,17,17,17,17,16,17,17,17,17,17,17,17,17,17,17,17,17,17,17,17,17,17,17,17,17,17,17,17,17,17,17,17,17,17,17,17,16,17,17,16,17,17,17,17,17,16,17,17,17,17,17,17,17,17,17,17,17,17,17,17,17,17,17,17,17,17,17,17,16,17,17,17,16,17,17,17,17,17],"number_of_frames":121,"aperture_center_x":640,"aperture_center_y":360,"fixation_cross":true,"fixation_cross_width":15,"fixation_cross_height":15,"fixation_cross_color":"#111","fixation_cross_thickness":1,"border":true,"border_thickness":2,"border_color":"transparent","canvas_width":1280,"canvas_height":720,"trial_type":"rdk","trial_index":63,"plugin_version":"2.0.0","time_elapsed":152597,"phase":"practice","target_direction":85,"distractor_direction":295},{"rt":3262,"stimulus":"\n        <div class=\"response-container\">\n          <div class=\"response-instruction\">\n            <p>rotate the bar by using the left and right arrow keys.</p>\n            <p>when you are determined, press the Enter key.</p>\n          </div>\n          <div class=\"response-circle\">\n            <div class=\"response-fixation\"></div>\n            <div id=\"bar\" class=\"rotating-bar\"></div>\n          </div>\n        </div>\n      ","response":"Enter","trial_type":"html-keyboard-response","trial_index":64,"plugin_version":"2.1.0","time_elapsed":155861,"random_initial_angle":130,"response_angle_css":-10,"response_angle_rdk":100,"angular_error_target":15,"angular_error_distractor":165,"target_direction":85,"target_group":"black","reward_points":7},{"rt":null,"stimulus":"\n          <p style=\"color: #00FF00;\">Your reward: 7 points</p>\n        ","response":null,"trial_type":"html-keyboard-response","trial_index":65,"plugin_version":"2.1.0","time_elapsed":157864},{"rt":10490,"stimulus":"\n        <div class=\"instructions-container\">\n          <h2>End of Practice</h2>\n          <p>You have completed the practice trials.</p>\n          <p>Press <strong>Enter</strong> key to begin the main experiment.</p>\n        </div>\n      ","response":"Enter","trial_type":"html-keyboard-response","trial_index":66,"plugin_version":"2.1.0","time_elapsed":168533},{"rt":null,"stimulus":"<div class=\"fixation\" style=\"font-size: 60px;\">+</div>","response":null,"trial_type":"html-keyboard-response","trial_index":67,"plugin_version":"2.1.0","time_elapsed":169543},{"phase":"learning-awareness","target_group":"white","condition_label":"W_H_vs_B_L_rep24","target_direction":1,"distractor_direction":240,"session_rotation":323,"rt":-1,"response":"","correct":false,"choices":"ALL_KEYS","correct_choice":["a"],"trial_duration":2000,"flip_timestamps":[],"response_ends_trial":false,"number_of_apertures":200,"number_of_dots":[1,1,1,1,1,1,1,1,1,1,1,1,1,1,1,1,1,1,1,1,1,1,1,1,1,1,1,1,1,1,1,1,1,1,1,1,1,1,1,1,1,1,1,1,1,1,1,1,1,1,1,1,1,1,1,1,1,1,1,1,1,1,1,1,1,1,1,1,1,1,1,1,1,1,1,1,1,1,1,1,1,1,1,1,1,1,1,1,1,1,1,1,1,1,1,1,1,1,1,1,1,1,1,1,1,1,1,1,1,1,1,1,1,1,1,1,1,1,1,1,1,1,1,1,1,1,1,1,1,1,1,1,1,1,1,1,1,1,1,1,1,1,1,1,1,1,1,1,1,1,1,1,1,1,1,1,1,1,1,1,1,1,1,1,1,1,1,1,1,1,1,1,1,1,1,1,1,1,1,1,1,1,1,1,1,1,1,1,1,1,1,1,1,1,1,1,1,1,1,1],"number_of_sets":1,"coherent_direction":[1,240,1,240,1,240,1,240,240,1,1,240,240,1,1,240,240,240,1,1,1,1,1,240,1,240,240,1,1,240,1,1,240,1,240,1,1,240,240,1,240,1,240,1,240,1,1,1,240,240,240,240,240,240,1,1,240,240,240,240,1,1,240,1,240,1,240,240,1,1,240,1,240,240,1,1,240,1,240,1,1,240,1,240,1,240,240,240,240,1,1,1,1,240,1,1,240,1,1,240,1,1,1,1,1,1,240,240,1,1,240,240,1,240,1,240,240,1,240,1,1,1,240,1,1,1,240,240,1,240,1,240,240,240,240,240,240,1,1,240,240,1,240,1,240,1,240,240,1,240,240,240,1,1,240,240,1,1,1,1,240,240,1,240,1,1,1,240,1,240,1,1,240,240,1,1,1,240,1,240,1,240,240,240,240,240,240,240,1,1,240,1,240,240,1,240,1,1,240,240],"coherence":1,"opposite_coherence":0,"dot_radius":2,"dot_side_length":1,"dot_life":-1,"move_distance":1,"aperture_width":300,"aperture_height":300,"dot_color":["white","black","white","black","white","black","white","black","black","white","white","black","black","white","white","black","black","black","white","white","white","white","white","black","white","black","black","white","white","black","white","white","black","white","black","white","white","black","black","white","black","white","black","white","black","white","white","white","black","black","black","black","black","black","white","white","black","black","black","black","white","white","black","white","black","white","black","black","white","white","black","white","black","black","white","white","black","white","black","white","white","black","white","black","white","black","black","black","black","white","white","white","white","black","white","white","black","white","white","black","white","white","white","white","white","white","black","black","white","white","black","black","white","black","white","black","black","white","black","white","white","white","black","white","white","white","black","black","white","black","white","black","black","black","black","black","black","white","white","black","black","white","black","white","black","white","black","black","white","black","black","black","white","white","black","black","white","white","white","white","black","black","white","black","white","white","white","black","white","black","white","white","black","black","white","white","white","black","white","black","white","black","black","black","black","black","black","black","white","white","black","white","black","black","white","black","white","white","black","black"],"dot_shape":"circle","background_color":"#AAA","RDK_type":3,"aperture_type":2,"reinsert_type":2,"frame_rate":16.50413223140496,"frame_rate_array":[1,2,19,18,16,17,16,17,18,17,16,15,16,17,16,18,17,17,17,16,17,22,12,17,16,17,17,16,18,19,14,16,17,16,16,17,16,19,15,17,17,17,17,17,17,17,17,16,17,16,17,16,17,17,16,17,17,17,17,16,17,17,16,17,18,16,17,17,16,17,17,16,17,16,17,17,17,16,16,17,16,17,16,17,17,17,16,17,16,17,17,17,17,17,17,16,17,17,17,16,18,16,17,17,16,17,17,17,16,17,18,16,18,16,16,17,17,16,18,17,17],"number_of_frames":121,"aperture_center_x":640,"aperture_center_y":360,"fixation_cross":true,"fixation_cross_width":15,"fixation_cross_height":15,"fixation_cross_color":"#111","fixation_cross_thickness":1,"border":true,"border_thickness":2,"border_color":"transparent","canvas_width":1280,"canvas_height":720,"trial_type":"rdk","trial_index":68,"plugin_version":"2.0.0","time_elapsed":171571},{"rt":2901,"stimulus":"\n        <div class=\"response-container\">\n          <div class=\"response-instruction\">\n            <p>rotate the bar by using the left and right arrow keys.</p>\n            <p>when you are determined, press the Enter key.</p>\n          </div>\n          <div class=\"response-circle\">\n            <div class=\"response-fixation\"></div>\n            <div id=\"bar\" class=\"rotating-bar\"></div>\n          </div>\n        </div>\n      ","response":"Enter","trial_type":"html-keyboard-response","trial_index":69,"plugin_version":"2.1.0","time_elapsed":174477,"random_initial_angle":359,"response_angle_css":232,"response_angle_rdk":218,"angular_error_target":-143,"angular_error_distractor":-22,"target_direction":1,"target_group":"white","reward_points":0},{"rt":null,"stimulus":"\n          <p style=\"color: #FF3333;\">Your reward: 0 points</p>\n        ","response":null,"trial_type":"html-keyboard-response","trial_index":70,"plugin_version":"2.1.0","time_elapsed":176480},{"rt":null,"stimulus":"<div class=\"fixation\" style=\"font-size: 60px;\">+</div>","response":null,"trial_type":"html-keyboard-response","trial_index":71,"plugin_version":"2.1.0","time_elapsed":177496},{"phase":"learning-awareness","target_group":"white","condition_label":"W_H_vs_B_L_rep4","target_direction":334,"distractor_direction":234,"session_rotation":323,"rt":-1,"response":"","correct":false,"choices":"ALL_KEYS","correct_choice":["a"],"trial_duration":2000,"flip_timestamps":[],"response_ends_trial":false,"number_of_apertures":200,"number_of_dots":[1,1,1,1,1,1,1,1,1,1,1,1,1,1,1,1,1,1,1,1,1,1,1,1,1,1,1,1,1,1,1,1,1,1,1,1,1,1,1,1,1,1,1,1,1,1,1,1,1,1,1,1,1,1,1,1,1,1,1,1,1,1,1,1,1,1,1,1,1,1,1,1,1,1,1,1,1,1,1,1,1,1,1,1,1,1,1,1,1,1,1,1,1,1,1,1,1,1,1,1,1,1,1,1,1,1,1,1,1,1,1,1,1,1,1,1,1,1,1,1,1,1,1,1,1,1,1,1,1,1,1,1,1,1,1,1,1,1,1,1,1,1,1,1,1,1,1,1,1,1,1,1,1,1,1,1,1,1,1,1,1,1,1,1,1,1,1,1,1,1,1,1,1,1,1,1,1,1,1,1,1,1,1,1,1,1,1,1,1,1,1,1,1,1,1,1,1,1,1,1],"number_of_sets":1,"coherent_direction":[234,334,334,234,334,334,234,234,234,334,334,234,334,334,234,234,334,334,334,234,234,334,234,334,234,234,334,234,234,334,234,234,234,334,334,334,334,234,234,234,234,334,234,234,334,334,334,234,334,234,234,234,334,234,334,234,334,334,334,334,334,234,234,334,234,334,234,234,334,334,234,334,334,334,334,334,234,334,334,334,334,234,334,234,234,234,334,334,334,234,334,234,234,234,234,234,234,334,234,234,334,234,334,334,234,334,334,234,234,234,234,234,234,234,334,334,234,234,334,234,334,334,234,234,334,334,334,234,334,334,334,234,334,234,234,334,234,334,234,234,234,234,334,334,234,234,334,234,234,334,334,234,234,334,234,234,234,234,234,334,234,334,334,234,234,334,334,334,234,334,334,334,234,334,334,234,334,334,334,334,234,334,334,334,234,234,334,234,334,334,334,334,234,334,234,334,234,234,234,234],"coherence":1,"opposite_coherence":0,"dot_radius":2,"dot_side_length":1,"dot_life":-1,"move_distance":1,"aperture_width":300,"aperture_height":300,"dot_color":["black","white","white","black","white","white","black","black","black","white","white","black","white","white","black","black","white","white","white","black","black","white","black","white","black","black","white","black","black","white","black","black","black","white","white","white","white","black","black","black","black","white","black","black","white","white","white","black","white","black","black","black","white","black","white","black","white","white","white","white","white","black","black","white","black","white","black","black","white","white","black","white","white","white","white","white","black","white","white","white","white","black","white","black","black","black","white","white","white","black","white","black","black","black","black","black","black","white","black","black","white","black","white","white","black","white","white","black","black","black","black","black","black","black","white","white","black","black","white","black","white","white","black","black","white","white","white","black","white","white","white","black","white","black","black","white","black","white","black","black","black","black","white","white","black","black","white","black","black","white","white","black","black","white","black","black","black","black","black","white","black","white","white","black","black","white","white","white","black","white","white","white","black","white","white","black","white","white","white","white","black","white","white","white","black","black","white","black","white","white","white","white","black","white","black","white","black","black","black","black"],"dot_shape":"circle","background_color":"#AAA","RDK_type":3,"aperture_type":2,"reinsert_type":2,"frame_rate":16.59504132231405,"frame_rate_array":[3,17,17,18,15,17,17,16,17,17,17,17,16,17,16,17,17,17,17,16,16,17,16,17,17,17,17,17,17,17,16,16,17,18,16,17,17,17,17,18,16,16,18,16,17,17,16,17,17,16,19,15,18,16,17,16,16,16,17,18,16,16,17,16,18,16,16,17,17,18,17,17,15,16,18,15,18,16,16,18,16,16,16,18,17,17,16,18,16,16,17,17,17,15,16,17,16,17,16,17,17,17,17,16,17,16,18,16,17,16,18,17,16,18,16,16,18,16,17,16,17],"number_of_frames":121,"aperture_center_x":640,"aperture_center_y":360,"fixation_cross":true,"fixation_cross_width":15,"fixation_cross_height":15,"fixation_cross_color":"#111","fixation_cross_thickness":1,"border":true,"border_thickness":2,"border_color":"transparent","canvas_width":1280,"canvas_height":720,"trial_type":"rdk","trial_index":72,"plugin_version":"2.0.0","time_elapsed":179503},{"rt":2195,"stimulus":"\n        <div class=\"response-container\">\n          <div class=\"response-instruction\">\n            <p>rotate the bar by using the left and right arrow keys.</p>\n            <p>when you are determined, press the Enter key.</p>\n          </div>\n          <div class=\"response-circle\">\n            <div class=\"response-fixation\"></div>\n            <div id=\"bar\" class=\"rotating-bar\"></div>\n          </div>\n        </div>\n      ","response":"Enter","trial_type":"html-keyboard-response","trial_index":73,"plugin_version":"2.1.0","time_elapsed":181701,"random_initial_angle":137,"response_angle_css":212,"response_angle_rdk":238,"angular_error_target":-96,"angular_error_distractor":4,"target_direction":334,"target_group":"white","reward_points":0},{"rt":null,"stimulus":"\n          <p style=\"color: #FF3333;\">Your reward: 0 points</p>\n        ","response":null,"trial_type":"html-keyboard-response","trial_index":74,"plugin_version":"2.1.0","time_elapsed":183716},{"rt":null,"stimulus":"<div class=\"fixation\" style=\"font-size: 60px;\">+</div>","response":null,"trial_type":"html-keyboard-response","trial_index":75,"plugin_version":"2.1.0","time_elapsed":184728},{"phase":"learning-awareness","target_group":"black","condition_label":"B_H_vs_W_L_rep4","target_direction":64,"distractor_direction":158,"session_rotation":323,"rt":-1,"response":"","correct":false,"choices":"ALL_KEYS","correct_choice":["a"],"trial_duration":2000,"flip_timestamps":[],"response_ends_trial":false,"number_of_apertures":200,"number_of_dots":[1,1,1,1,1,1,1,1,1,1,1,1,1,1,1,1,1,1,1,1,1,1,1,1,1,1,1,1,1,1,1,1,1,1,1,1,1,1,1,1,1,1,1,1,1,1,1,1,1,1,1,1,1,1,1,1,1,1,1,1,1,1,1,1,1,1,1,1,1,1,1,1,1,1,1,1,1,1,1,1,1,1,1,1,1,1,1,1,1,1,1,1,1,1,1,1,1,1,1,1,1,1,1,1,1,1,1,1,1,1,1,1,1,1,1,1,1,1,1,1,1,1,1,1,1,1,1,1,1,1,1,1,1,1,1,1,1,1,1,1,1,1,1,1,1,1,1,1,1,1,1,1,1,1,1,1,1,1,1,1,1,1,1,1,1,1,1,1,1,1,1,1,1,1,1,1,1,1,1,1,1,1,1,1,1,1,1,1,1,1,1,1,1,1,1,1,1,1,1,1],"number_of_sets":1,"coherent_direction":[158,64,158,158,64,64,158,64,64,64,158,158,64,64,158,64,64,64,64,158,64,158,158,64,158,158,64,158,158,158,64,158,64,64,158,64,64,158,64,158,64,158,158,64,64,158,158,64,158,64,64,158,158,158,64,64,64,158,64,158,158,64,158,64,158,158,158,64,64,158,158,158,158,64,158,64,158,64,64,64,158,158,64,64,158,158,64,64,64,64,158,64,158,158,158,158,158,158,158,158,158,158,64,158,64,64,158,64,64,64,64,64,158,64,158,64,64,64,64,64,64,158,158,158,64,64,158,64,158,158,64,64,64,158,64,158,64,64,64,64,64,64,158,64,64,158,158,158,158,158,64,64,158,64,158,158,64,158,64,64,64,158,64,64,158,64,64,158,64,158,158,158,64,158,64,64,64,158,64,64,158,158,158,158,158,158,158,158,158,158,64,64,158,64,64,158,158,158,158,64],"coherence":1,"opposite_coherence":0,"dot_radius":2,"dot_side_length":1,"dot_life":-1,"move_distance":1,"aperture_width":300,"aperture_height":300,"dot_color":["white","black","white","white","black","black","white","black","black","black","white","white","black","black","white","black","black","black","black","white","black","white","white","black","white","white","black","white","white","white","black","white","black","black","white","black","black","white","black","white","black","white","white","black","black","white","white","black","white","black","black","white","white","white","black","black","black","white","black","white","white","black","white","black","white","white","white","black","black","white","white","white","white","black","white","black","white","black","black","black","white","white","black","black","white","white","black","black","black","black","white","black","white","white","white","white","white","white","white","white","white","white","black","white","black","black","white","black","black","black","black","black","white","black","white","black","black","black","black","black","black","white","white","white","black","black","white","black","white","white","black","black","black","white","black","white","black","black","black","black","black","black","white","black","black","white","white","white","white","white","black","black","white","black","white","white","black","white","black","black","black","white","black","black","white","black","black","white","black","white","white","white","black","white","black","black","black","white","black","black","white","white","white","white","white","white","white","white","white","white","black","black","white","black","black","white","white","white","white","black"],"dot_shape":"circle","background_color":"#AAA","RDK_type":3,"aperture_type":2,"reinsert_type":2,"frame_rate":16.611570247933884,"frame_rate_array":[2,14,17,16,18,15,19,15,19,15,18,16,16,17,16,16,17,16,18,15,17,17,17,17,17,17,17,16,17,16,17,17,16,16,17,18,16,17,17,18,16,17,16,17,17,17,17,16,17,16,17,16,17,17,17,17,17,17,17,17,16,16,16,17,16,16,18,17,17,17,18,16,17,16,17,17,17,17,17,17,17,17,17,17,16,17,17,17,17,16,17,16,17,17,16,17,17,17,17,17,17,17,16,17,17,17,16,17,17,16,17,17,16,18,17,17,16,16,17,17,17],"number_of_frames":121,"aperture_center_x":640,"aperture_center_y":360,"fixation_cross":true,"fixation_cross_width":15,"fixation_cross_height":15,"fixation_cross_color":"#111","fixation_cross_thickness":1,"border":true,"border_thickness":2,"border_color":"transparent","canvas_width":1280,"canvas_height":720,"trial_type":"rdk","trial_index":76,"plugin_version":"2.0.0","time_elapsed":186751},{"rt":3140,"stimulus":"\n        <div class=\"response-container\">\n          <div class=\"response-instruction\">\n            <p>rotate the bar by using the left and right arrow keys.</p>\n            <p>when you are determined, press the Enter key.</p>\n          </div>\n          <div class=\"response-circle\">\n            <div class=\"response-fixation\"></div>\n            <div id=\"bar\" class=\"rotating-bar\"></div>\n          </div>\n        </div>\n      ","response":"Enter","trial_type":"html-keyboard-response","trial_index":77,"plugin_version":"2.1.0","time_elapsed":189892,"random_initial_angle":108,"response_angle_css":-73,"response_angle_rdk":163,"angular_error_target":99,"angular_error_distractor":5,"target_direction":64,"target_group":"black","reward_points":0},{"rt":null,"stimulus":"\n          <p style=\"color: #FF3333;\">Your reward: 0 points</p>\n        ","response":null,"trial_type":"html-keyboard-response","trial_index":78,"plugin_version":"2.1.0","time_elapsed":191900},{"rt":null,"stimulus":"<div class=\"fixation\" style=\"font-size: 60px;\">+</div>","response":null,"trial_type":"html-keyboard-response","trial_index":79,"plugin_version":"2.1.0","time_elapsed":192905},{"phase":"learning-awareness","target_group":"black","condition_label":"B_H_vs_W_L_rep17","target_direction":66,"distractor_direction":177,"session_rotation":323,"rt":-1,"response":"","correct":false,"choices":"ALL_KEYS","correct_choice":["a"],"trial_duration":2000,"flip_timestamps":[],"response_ends_trial":false,"number_of_apertures":200,"number_of_dots":[1,1,1,1,1,1,1,1,1,1,1,1,1,1,1,1,1,1,1,1,1,1,1,1,1,1,1,1,1,1,1,1,1,1,1,1,1,1,1,1,1,1,1,1,1,1,1,1,1,1,1,1,1,1,1,1,1,1,1,1,1,1,1,1,1,1,1,1,1,1,1,1,1,1,1,1,1,1,1,1,1,1,1,1,1,1,1,1,1,1,1,1,1,1,1,1,1,1,1,1,1,1,1,1,1,1,1,1,1,1,1,1,1,1,1,1,1,1,1,1,1,1,1,1,1,1,1,1,1,1,1,1,1,1,1,1,1,1,1,1,1,1,1,1,1,1,1,1,1,1,1,1,1,1,1,1,1,1,1,1,1,1,1,1,1,1,1,1,1,1,1,1,1,1,1,1,1,1,1,1,1,1,1,1,1,1,1,1,1,1,1,1,1,1,1,1,1,1,1,1],"number_of_sets":1,"coherent_direction":[66,66,66,177,66,177,177,66,177,177,177,177,177,66,177,66,66,66,177,177,66,177,177,177,177,177,66,66,66,177,177,177,66,66,177,66,66,66,66,177,177,66,177,177,66,177,177,177,177,66,66,177,177,66,177,177,177,177,177,177,177,177,177,177,177,177,66,66,66,66,177,66,66,66,66,177,177,66,66,66,177,66,177,177,66,177,66,66,66,177,177,177,177,177,66,177,66,66,177,177,177,177,66,177,66,66,66,177,66,177,66,177,66,177,177,66,66,66,66,177,66,66,177,66,66,66,177,177,66,66,66,177,66,66,177,177,66,66,66,66,66,177,66,66,66,177,66,177,177,66,177,177,66,66,66,177,66,66,177,177,177,177,177,66,177,66,177,66,66,66,66,66,66,66,66,66,177,177,177,177,66,177,66,66,177,177,66,66,177,66,177,177,177,177,66,66,66,177,66,177],"coherence":1,"opposite_coherence":0,"dot_radius":2,"dot_side_length":1,"dot_life":-1,"move_distance":1,"aperture_width":300,"aperture_height":300,"dot_color":["black","black","black","white","black","white","white","black","white","white","white","white","white","black","white","black","black","black","white","white","black","white","white","white","white","white","black","black","black","white","white","white","black","black","white","black","black","black","black","white","white","black","white","white","black","white","white","white","white","black","black","white","white","black","white","white","white","white","white","white","white","white","white","white","white","white","black","black","black","black","white","black","black","black","black","white","white","black","black","black","white","black","white","white","black","white","black","black","black","white","white","white","white","white","black","white","black","black","white","white","white","white","black","white","black","black","black","white","black","white","black","white","black","white","white","black","black","black","black","white","black","black","white","black","black","black","white","white","black","black","black","white","black","black","white","white","black","black","black","black","black","white","black","black","black","white","black","white","white","black","white","white","black","black","black","white","black","black","white","white","white","white","white","black","white","black","white","black","black","black","black","black","black","black","black","black","white","white","white","white","black","white","black","black","white","white","black","black","white","black","white","white","white","white","black","black","black","white","black","white"],"dot_shape":"circle","background_color":"#AAA","RDK_type":3,"aperture_type":2,"reinsert_type":2,"frame_rate":16.641666666666666,"frame_rate_array":[5,17,17,17,16,17,18,17,18,16,16,17,17,17,17,17,17,16,17,16,18,15,18,16,17,18,16,15,17,18,17,17,16,16,17,19,16,16,18,15,18,17,17,16,16,16,18,16,17,17,16,16,18,17,16,17,17,16,18,16,17,18,15,18,16,17,17,16,16,17,18,17,16,16,17,16,18,17,16,17,16,16,18,16,17,16,18,16,17,17,15,18,16,17,16,17,18,16,16,18,17,15,17,17,17,16,17,17,16,17,16,17,17,17,17,17,17,16,18,15],"number_of_frames":120,"aperture_center_x":640,"aperture_center_y":360,"fixation_cross":true,"fixation_cross_width":15,"fixation_cross_height":15,"fixation_cross_color":"#111","fixation_cross_thickness":1,"border":true,"border_thickness":2,"border_color":"transparent","canvas_width":1280,"canvas_height":720,"trial_type":"rdk","trial_index":80,"plugin_version":"2.0.0","time_elapsed":194907},{"rt":4161,"stimulus":"\n        <div class=\"response-container\">\n          <div class=\"response-instruction\">\n            <p>rotate the bar by using the left and right arrow keys.</p>\n            <p>when you are determined, press the Enter key.</p>\n          </div>\n          <div class=\"response-circle\">\n            <div class=\"response-fixation\"></div>\n            <div id=\"bar\" class=\"rotating-bar\"></div>\n          </div>\n        </div>\n      ","response":"Enter","trial_type":"html-keyboard-response","trial_index":81,"plugin_version":"2.1.0","time_elapsed":199069,"random_initial_angle":64,"response_angle_css":277,"response_angle_rdk":173,"angular_error_target":107,"angular_error_distractor":-4,"target_direction":66,"target_group":"black","reward_points":0},{"rt":null,"stimulus":"\n          <p style=\"color: #FF3333;\">Your reward: 0 points</p>\n        ","response":null,"trial_type":"html-keyboard-response","trial_index":82,"plugin_version":"2.1.0","time_elapsed":201082},{"rt":null,"stimulus":"<div class=\"fixation\" style=\"font-size: 60px;\">+</div>","response":null,"trial_type":"html-keyboard-response","trial_index":83,"plugin_version":"2.1.0","time_elapsed":202097},{"phase":"learning-awareness","target_group":"white","condition_label":"W_H_vs_B_L_rep20","target_direction":6,"distractor_direction":270,"session_rotation":323,"rt":-1,"response":"","correct":false,"choices":"ALL_KEYS","correct_choice":["a"],"trial_duration":2000,"flip_timestamps":[],"response_ends_trial":false,"number_of_apertures":200,"number_of_dots":[1,1,1,1,1,1,1,1,1,1,1,1,1,1,1,1,1,1,1,1,1,1,1,1,1,1,1,1,1,1,1,1,1,1,1,1,1,1,1,1,1,1,1,1,1,1,1,1,1,1,1,1,1,1,1,1,1,1,1,1,1,1,1,1,1,1,1,1,1,1,1,1,1,1,1,1,1,1,1,1,1,1,1,1,1,1,1,1,1,1,1,1,1,1,1,1,1,1,1,1,1,1,1,1,1,1,1,1,1,1,1,1,1,1,1,1,1,1,1,1,1,1,1,1,1,1,1,1,1,1,1,1,1,1,1,1,1,1,1,1,1,1,1,1,1,1,1,1,1,1,1,1,1,1,1,1,1,1,1,1,1,1,1,1,1,1,1,1,1,1,1,1,1,1,1,1,1,1,1,1,1,1,1,1,1,1,1,1,1,1,1,1,1,1,1,1,1,1,1,1],"number_of_sets":1,"coherent_direction":[270,6,6,6,270,270,6,6,6,270,270,6,6,6,6,6,6,270,270,6,270,270,270,6,6,270,6,6,270,270,270,270,6,6,270,270,270,6,270,6,6,270,270,6,6,270,6,6,270,6,6,270,6,270,270,270,6,6,6,6,6,270,270,6,270,6,6,270,6,6,6,6,270,270,6,270,6,270,270,6,270,6,270,270,270,6,6,6,6,6,270,270,270,6,6,270,6,270,270,6,6,270,270,6,6,270,6,6,270,270,270,6,270,6,6,6,6,6,270,6,6,270,270,270,270,6,6,270,270,6,270,270,6,270,270,6,270,270,6,6,270,6,6,6,6,6,270,6,6,270,270,6,270,6,6,270,270,6,270,270,6,270,270,270,6,270,270,270,270,6,270,6,270,270,6,270,6,6,270,270,6,6,270,270,6,270,270,270,270,6,6,6,270,6,270,270,270,6,270,270],"coherence":1,"opposite_coherence":0,"dot_radius":2,"dot_side_length":1,"dot_life":-1,"move_distance":1,"aperture_width":300,"aperture_height":300,"dot_color":["black","white","white","white","black","black","white","white","white","black","black","white","white","white","white","white","white","black","black","white","black","black","black","white","white","black","white","white","black","black","black","black","white","white","black","black","black","white","black","white","white","black","black","white","white","black","white","white","black","white","white","black","white","black","black","black","white","white","white","white","white","black","black","white","black","white","white","black","white","white","white","white","black","black","white","black","white","black","black","white","black","white","black","black","black","white","white","white","white","white","black","black","black","white","white","black","white","black","black","white","white","black","black","white","white","black","white","white","black","black","black","white","black","white","white","white","white","white","black","white","white","black","black","black","black","white","white","black","black","white","black","black","white","black","black","white","black","black","white","white","black","white","white","white","white","white","black","white","white","black","black","white","black","white","white","black","black","white","black","black","white","black","black","black","white","black","black","black","black","white","black","white","black","black","white","black","white","white","black","black","white","white","black","black","white","black","black","black","black","white","white","white","black","white","black","black","black","white","black","black"],"dot_shape":"circle","background_color":"#AAA","RDK_type":3,"aperture_type":2,"reinsert_type":2,"frame_rate":16.66115702479339,"frame_rate_array":[6,17,17,17,17,17,22,10,17,17,17,17,17,17,16,17,17,17,17,17,16,17,16,17,17,17,17,16,17,16,17,17,17,17,16,16,16,17,17,16,17,16,17,17,17,17,16,16,17,18,16,17,16,17,17,16,18,16,16,17,17,17,17,17,17,18,18,19,14,16,16,17,17,17,17,17,17,16,17,18,15,18,16,17,17,16,17,17,17,16,17,17,16,17,16,17,18,16,16,16,17,17,17,16,17,17,17,17,17,18,16,16,17,18,16,17,17,17,16,16,17],"number_of_frames":121,"aperture_center_x":640,"aperture_center_y":360,"fixation_cross":true,"fixation_cross_width":15,"fixation_cross_height":15,"fixation_cross_color":"#111","fixation_cross_thickness":1,"border":true,"border_thickness":2,"border_color":"transparent","canvas_width":1280,"canvas_height":720,"trial_type":"rdk","trial_index":84,"plugin_version":"2.0.0","time_elapsed":204108},{"rt":2198,"stimulus":"\n        <div class=\"response-container\">\n          <div class=\"response-instruction\">\n            <p>rotate the bar by using the left and right arrow keys.</p>\n            <p>when you are determined, press the Enter key.</p>\n          </div>\n          <div class=\"response-circle\">\n            <div class=\"response-fixation\"></div>\n            <div id=\"bar\" class=\"rotating-bar\"></div>\n          </div>\n        </div>\n      ","response":"Enter","trial_type":"html-keyboard-response","trial_index":85,"plugin_version":"2.1.0","time_elapsed":206308,"random_initial_angle":282,"response_angle_css":181,"response_angle_rdk":269,"angular_error_target":-97,"angular_error_distractor":-1,"target_direction":6,"target_group":"white","reward_points":0},{"rt":null,"stimulus":"\n          <p style=\"color: #FF3333;\">Your reward: 0 points</p>\n        ","response":null,"trial_type":"html-keyboard-response","trial_index":86,"plugin_version":"2.1.0","time_elapsed":208314},{"rt":null,"stimulus":"<div class=\"fixation\" style=\"font-size: 60px;\">+</div>","response":null,"trial_type":"html-keyboard-response","trial_index":87,"plugin_version":"2.1.0","time_elapsed":209328},{"phase":"learning-awareness","target_group":"white","condition_label":"W_H_vs_B_L_rep2","target_direction":343,"distractor_direction":246,"session_rotation":323,"rt":-1,"response":"","correct":false,"choices":"ALL_KEYS","correct_choice":["a"],"trial_duration":2000,"flip_timestamps":[],"response_ends_trial":false,"number_of_apertures":200,"number_of_dots":[1,1,1,1,1,1,1,1,1,1,1,1,1,1,1,1,1,1,1,1,1,1,1,1,1,1,1,1,1,1,1,1,1,1,1,1,1,1,1,1,1,1,1,1,1,1,1,1,1,1,1,1,1,1,1,1,1,1,1,1,1,1,1,1,1,1,1,1,1,1,1,1,1,1,1,1,1,1,1,1,1,1,1,1,1,1,1,1,1,1,1,1,1,1,1,1,1,1,1,1,1,1,1,1,1,1,1,1,1,1,1,1,1,1,1,1,1,1,1,1,1,1,1,1,1,1,1,1,1,1,1,1,1,1,1,1,1,1,1,1,1,1,1,1,1,1,1,1,1,1,1,1,1,1,1,1,1,1,1,1,1,1,1,1,1,1,1,1,1,1,1,1,1,1,1,1,1,1,1,1,1,1,1,1,1,1,1,1,1,1,1,1,1,1,1,1,1,1,1,1],"number_of_sets":1,"coherent_direction":[343,343,246,246,246,343,343,343,246,343,343,246,343,246,246,343,246,246,246,343,343,246,246,343,246,343,343,343,343,343,343,343,343,343,343,246,343,246,343,343,246,246,246,343,343,246,246,246,343,343,246,343,343,343,246,343,246,246,343,343,246,343,343,246,246,246,246,343,246,343,246,343,246,246,246,246,343,246,343,246,246,246,246,246,246,343,246,246,343,343,246,246,343,246,343,246,343,246,343,343,246,343,246,343,343,246,246,343,343,343,343,343,343,343,343,343,343,343,246,246,246,343,246,343,343,343,246,343,246,246,246,343,246,246,343,343,246,246,246,343,246,343,246,246,343,246,246,246,246,246,246,343,343,246,343,246,343,343,246,343,246,343,343,246,343,246,343,246,246,343,343,343,343,246,343,246,343,246,246,343,343,343,246,246,343,246,246,343,343,343,246,246,246,246,246,246,246,246,343,343],"coherence":1,"opposite_coherence":0,"dot_radius":2,"dot_side_length":1,"dot_life":-1,"move_distance":1,"aperture_width":300,"aperture_height":300,"dot_color":["white","white","black","black","black","white","white","white","black","white","white","black","white","black","black","white","black","black","black","white","white","black","black","white","black","white","white","white","white","white","white","white","white","white","white","black","white","black","white","white","black","black","black","white","white","black","black","black","white","white","black","white","white","white","black","white","black","black","white","white","black","white","white","black","black","black","black","white","black","white","black","white","black","black","black","black","white","black","white","black","black","black","black","black","black","white","black","black","white","white","black","black","white","black","white","black","white","black","white","white","black","white","black","white","white","black","black","white","white","white","white","white","white","white","white","white","white","white","black","black","black","white","black","white","white","white","black","white","black","black","black","white","black","black","white","white","black","black","black","white","black","white","black","black","white","black","black","black","black","black","black","white","white","black","white","black","white","white","black","white","black","white","white","black","white","black","white","black","black","white","white","white","white","black","white","black","white","black","black","white","white","white","black","black","white","black","black","white","white","white","black","black","black","black","black","black","black","black","white","white"],"dot_shape":"circle","background_color":"#AAA","RDK_type":3,"aperture_type":2,"reinsert_type":2,"frame_rate":16.781512605042018,"frame_rate_array":[21,15,16,16,18,16,17,18,16,17,18,16,17,17,17,17,16,17,16,17,17,17,16,18,16,18,16,17,16,17,17,17,17,17,17,17,17,19,15,16,16,17,17,16,17,17,17,17,16,17,16,17,17,17,17,17,16,17,18,16,17,17,17,17,16,17,17,17,17,17,16,17,16,16,17,17,16,17,16,17,16,17,17,17,16,18,16,16,17,18,15,17,17,16,17,17,17,16,17,17,17,17,16,17,17,16,17,17,16,17,17,17,17,18,16,17,16,17,17],"number_of_frames":119,"aperture_center_x":640,"aperture_center_y":360,"fixation_cross":true,"fixation_cross_width":15,"fixation_cross_height":15,"fixation_cross_color":"#111","fixation_cross_thickness":1,"border":true,"border_thickness":2,"border_color":"transparent","canvas_width":1280,"canvas_height":720,"trial_type":"rdk","trial_index":88,"plugin_version":"2.0.0","time_elapsed":211372},{"rt":1880,"stimulus":"\n        <div class=\"response-container\">\n          <div class=\"response-instruction\">\n            <p>rotate the bar by using the left and right arrow keys.</p>\n            <p>when you are determined, press the Enter key.</p>\n          </div>\n          <div class=\"response-circle\">\n            <div class=\"response-fixation\"></div>\n            <div id=\"bar\" class=\"rotating-bar\"></div>\n          </div>\n        </div>\n      ","response":"Enter","trial_type":"html-keyboard-response","trial_index":89,"plugin_version":"2.1.0","time_elapsed":213253,"random_initial_angle":263,"response_angle_css":213,"response_angle_rdk":237,"angular_error_target":-106,"angular_error_distractor":-9,"target_direction":343,"target_group":"white","reward_points":0},{"rt":null,"stimulus":"\n          <p style=\"color: #FF3333;\">Your reward: 0 points</p>\n        ","response":null,"trial_type":"html-keyboard-response","trial_index":90,"plugin_version":"2.1.0","time_elapsed":215265},{"rt":null,"stimulus":"<div class=\"fixation\" style=\"font-size: 60px;\">+</div>","response":null,"trial_type":"html-keyboard-response","trial_index":91,"plugin_version":"2.1.0","time_elapsed":216268},{"phase":"learning-awareness","target_group":"black","condition_label":"B_H_vs_W_L_rep8","target_direction":70,"distractor_direction":170,"session_rotation":323,"rt":-1,"response":"","correct":false,"choices":"ALL_KEYS","correct_choice":["a"],"trial_duration":2000,"flip_timestamps":[],"response_ends_trial":false,"number_of_apertures":200,"number_of_dots":[1,1,1,1,1,1,1,1,1,1,1,1,1,1,1,1,1,1,1,1,1,1,1,1,1,1,1,1,1,1,1,1,1,1,1,1,1,1,1,1,1,1,1,1,1,1,1,1,1,1,1,1,1,1,1,1,1,1,1,1,1,1,1,1,1,1,1,1,1,1,1,1,1,1,1,1,1,1,1,1,1,1,1,1,1,1,1,1,1,1,1,1,1,1,1,1,1,1,1,1,1,1,1,1,1,1,1,1,1,1,1,1,1,1,1,1,1,1,1,1,1,1,1,1,1,1,1,1,1,1,1,1,1,1,1,1,1,1,1,1,1,1,1,1,1,1,1,1,1,1,1,1,1,1,1,1,1,1,1,1,1,1,1,1,1,1,1,1,1,1,1,1,1,1,1,1,1,1,1,1,1,1,1,1,1,1,1,1,1,1,1,1,1,1,1,1,1,1,1,1],"number_of_sets":1,"coherent_direction":[70,170,70,70,70,70,70,170,170,170,70,170,70,170,70,70,170,70,170,170,70,170,70,170,70,170,170,170,170,70,70,170,170,70,70,170,70,70,70,170,70,170,70,70,170,70,170,70,170,70,170,170,170,170,170,70,170,170,170,70,70,70,170,170,70,170,170,70,70,70,170,170,170,70,170,70,170,170,170,170,170,170,170,70,70,70,70,70,170,70,170,170,70,70,170,70,70,70,170,170,70,70,70,170,70,70,170,170,170,170,170,70,170,70,70,170,170,170,170,70,70,170,70,170,170,170,70,70,170,170,70,70,70,170,170,70,70,170,70,70,170,70,170,70,170,70,70,70,170,170,70,70,170,170,170,170,170,170,170,70,170,70,170,70,70,70,170,170,170,170,170,70,70,170,70,70,70,70,70,170,170,70,170,70,170,170,170,170,70,70,70,70,70,70,70,70,70,70,170,70],"coherence":1,"opposite_coherence":0,"dot_radius":2,"dot_side_length":1,"dot_life":-1,"move_distance":1,"aperture_width":300,"aperture_height":300,"dot_color":["black","white","black","black","black","black","black","white","white","white","black","white","black","white","black","black","white","black","white","white","black","white","black","white","black","white","white","white","white","black","black","white","white","black","black","white","black","black","black","white","black","white","black","black","white","black","white","black","white","black","white","white","white","white","white","black","white","white","white","black","black","black","white","white","black","white","white","black","black","black","white","white","white","black","white","black","white","white","white","white","white","white","white","black","black","black","black","black","white","black","white","white","black","black","white","black","black","black","white","white","black","black","black","white","black","black","white","white","white","white","white","black","white","black","black","white","white","white","white","black","black","white","black","white","white","white","black","black","white","white","black","black","black","white","white","black","black","white","black","black","white","black","white","black","white","black","black","black","white","white","black","black","white","white","white","white","white","white","white","black","white","black","white","black","black","black","white","white","white","white","white","black","black","white","black","black","black","black","black","white","white","black","white","black","white","white","white","white","black","black","black","black","black","black","black","black","black","black","white","black"],"dot_shape":"circle","background_color":"#AAA","RDK_type":3,"aperture_type":2,"reinsert_type":2,"frame_rate":16.7,"frame_rate_array":[11,17,16,16,16,17,17,17,16,17,17,17,16,17,17,17,17,17,16,16,17,17,17,16,17,16,17,17,17,16,17,17,17,16,16,17,17,17,17,17,17,16,17,17,17,17,17,16,17,17,16,17,17,17,17,17,17,17,17,16,17,18,17,16,17,17,17,16,16,15,18,17,18,16,17,16,17,17,17,16,16,16,16,17,17,17,16,17,16,18,17,17,16,21,14,16,18,16,17,17,17,16,18,17,17,17,16,17,15,17,18,17,17,17,16,17,17,17,17,16],"number_of_frames":120,"aperture_center_x":640,"aperture_center_y":360,"fixation_cross":true,"fixation_cross_width":15,"fixation_cross_height":15,"fixation_cross_color":"#111","fixation_cross_thickness":1,"border":true,"border_thickness":2,"border_color":"transparent","canvas_width":1280,"canvas_height":720,"trial_type":"rdk","trial_index":92,"plugin_version":"2.0.0","time_elapsed":218272},{"rt":3291,"stimulus":"\n        <div class=\"response-container\">\n          <div class=\"response-instruction\">\n            <p>rotate the bar by using the left and right arrow keys.</p>\n            <p>when you are determined, press the Enter key.</p>\n          </div>\n          <div class=\"response-circle\">\n            <div class=\"response-fixation\"></div>\n            <div id=\"bar\" class=\"rotating-bar\"></div>\n          </div>\n        </div>\n      ","response":"Enter","trial_type":"html-keyboard-response","trial_index":93,"plugin_version":"2.1.0","time_elapsed":221565,"random_initial_angle":5,"response_angle_css":-82,"response_angle_rdk":172,"angular_error_target":102,"angular_error_distractor":2,"target_direction":70,"target_group":"black","reward_points":0},{"rt":null,"stimulus":"\n          <p style=\"color: #FF3333;\">Your reward: 0 points</p>\n        ","response":null,"trial_type":"html-keyboard-response","trial_index":94,"plugin_version":"2.1.0","time_elapsed":223581},{"rt":null,"stimulus":"<div class=\"fixation\" style=\"font-size: 60px;\">+</div>","response":null,"trial_type":"html-keyboard-response","trial_index":95,"plugin_version":"2.1.0","time_elapsed":224594},{"phase":"learning-awareness","target_group":"white","condition_label":"W_H_vs_B_L_rep17","target_direction":359,"distractor_direction":241,"session_rotation":323,"rt":-1,"response":"","correct":false,"choices":"ALL_KEYS","correct_choice":["a"],"trial_duration":2000,"flip_timestamps":[],"response_ends_trial":false,"number_of_apertures":200,"number_of_dots":[1,1,1,1,1,1,1,1,1,1,1,1,1,1,1,1,1,1,1,1,1,1,1,1,1,1,1,1,1,1,1,1,1,1,1,1,1,1,1,1,1,1,1,1,1,1,1,1,1,1,1,1,1,1,1,1,1,1,1,1,1,1,1,1,1,1,1,1,1,1,1,1,1,1,1,1,1,1,1,1,1,1,1,1,1,1,1,1,1,1,1,1,1,1,1,1,1,1,1,1,1,1,1,1,1,1,1,1,1,1,1,1,1,1,1,1,1,1,1,1,1,1,1,1,1,1,1,1,1,1,1,1,1,1,1,1,1,1,1,1,1,1,1,1,1,1,1,1,1,1,1,1,1,1,1,1,1,1,1,1,1,1,1,1,1,1,1,1,1,1,1,1,1,1,1,1,1,1,1,1,1,1,1,1,1,1,1,1,1,1,1,1,1,1,1,1,1,1,1,1],"number_of_sets":1,"coherent_direction":[241,241,359,241,241,359,359,359,359,241,359,241,241,241,241,359,359,359,359,241,359,241,241,359,241,241,359,359,241,359,359,241,241,359,359,359,241,359,241,241,359,359,241,359,241,359,241,359,241,359,241,359,359,359,359,241,241,241,359,359,359,359,359,359,241,359,359,241,359,359,241,241,359,241,359,241,241,359,241,241,359,241,359,241,241,241,241,241,359,359,359,359,359,241,241,359,241,359,359,359,359,359,241,359,241,241,359,241,241,359,241,241,241,359,359,359,241,241,241,359,241,359,241,359,241,241,359,241,359,359,241,359,241,241,359,359,241,359,241,241,241,359,241,359,359,241,359,241,359,241,359,359,241,359,359,241,359,241,359,359,241,359,241,241,359,359,359,241,241,241,241,241,241,241,359,241,241,241,241,359,241,241,359,359,359,241,359,359,359,241,241,359,359,359,359,241,241,241,241,241],"coherence":1,"opposite_coherence":0,"dot_radius":2,"dot_side_length":1,"dot_life":-1,"move_distance":1,"aperture_width":300,"aperture_height":300,"dot_color":["black","black","white","black","black","white","white","white","white","black","white","black","black","black","black","white","white","white","white","black","white","black","black","white","black","black","white","white","black","white","white","black","black","white","white","white","black","white","black","black","white","white","black","white","black","white","black","white","black","white","black","white","white","white","white","black","black","black","white","white","white","white","white","white","black","white","white","black","white","white","black","black","white","black","white","black","black","white","black","black","white","black","white","black","black","black","black","black","white","white","white","white","white","black","black","white","black","white","white","white","white","white","black","white","black","black","white","black","black","white","black","black","black","white","white","white","black","black","black","white","black","white","black","white","black","black","white","black","white","white","black","white","black","black","white","white","black","white","black","black","black","white","black","white","white","black","white","black","white","black","white","white","black","white","white","black","white","black","white","white","black","white","black","black","white","white","white","black","black","black","black","black","black","black","white","black","black","black","black","white","black","black","white","white","white","black","white","white","white","black","black","white","white","white","white","black","black","black","black","black"],"dot_shape":"circle","background_color":"#AAA","RDK_type":3,"aperture_type":2,"reinsert_type":2,"frame_rate":16.619834710743802,"frame_rate_array":[1,15,17,17,16,17,17,17,17,16,17,17,16,17,17,16,17,17,17,17,17,17,17,17,16,17,17,16,17,16,17,17,17,17,17,16,17,17,17,16,17,17,17,16,17,16,17,17,16,17,17,17,17,17,16,17,16,17,17,17,17,17,16,17,16,17,17,16,16,17,17,17,17,17,17,16,17,17,17,17,17,17,18,15,17,17,17,17,17,16,17,17,17,17,16,17,17,16,17,17,17,16,17,23,10,17,17,16,17,17,17,17,16,17,17,17,17,17,17,16,17],"number_of_frames":121,"aperture_center_x":640,"aperture_center_y":360,"fixation_cross":true,"fixation_cross_width":15,"fixation_cross_height":15,"fixation_cross_color":"#111","fixation_cross_thickness":1,"border":true,"border_thickness":2,"border_color":"transparent","canvas_width":1280,"canvas_height":720,"trial_type":"rdk","trial_index":96,"plugin_version":"2.0.0","time_elapsed":226599},{"rt":2400,"stimulus":"\n        <div class=\"response-container\">\n          <div class=\"response-instruction\">\n            <p>rotate the bar by using the left and right arrow keys.</p>\n            <p>when you are determined, press the Enter key.</p>\n          </div>\n          <div class=\"response-circle\">\n            <div class=\"response-fixation\"></div>\n            <div id=\"bar\" class=\"rotating-bar\"></div>\n          </div>\n        </div>\n      ","response":"Enter","trial_type":"html-keyboard-response","trial_index":97,"plugin_version":"2.1.0","time_elapsed":229000,"random_initial_angle":314,"response_angle_css":211,"response_angle_rdk":239,"angular_error_target":-120,"angular_error_distractor":-2,"target_direction":359,"target_group":"white","reward_points":0},{"rt":null,"stimulus":"\n          <p style=\"color: #FF3333;\">Your reward: 0 points</p>\n        ","response":null,"trial_type":"html-keyboard-response","trial_index":98,"plugin_version":"2.1.0","time_elapsed":231003},{"rt":null,"stimulus":"<div class=\"fixation\" style=\"font-size: 60px;\">+</div>","response":null,"trial_type":"html-keyboard-response","trial_index":99,"plugin_version":"2.1.0","time_elapsed":232018},{"phase":"learning-awareness","target_group":"white","condition_label":"W_H_vs_B_L_rep1","target_direction":337,"distractor_direction":247,"session_rotation":323,"rt":-1,"response":"","correct":false,"choices":"ALL_KEYS","correct_choice":["a"],"trial_duration":2000,"flip_timestamps":[],"response_ends_trial":false,"number_of_apertures":200,"number_of_dots":[1,1,1,1,1,1,1,1,1,1,1,1,1,1,1,1,1,1,1,1,1,1,1,1,1,1,1,1,1,1,1,1,1,1,1,1,1,1,1,1,1,1,1,1,1,1,1,1,1,1,1,1,1,1,1,1,1,1,1,1,1,1,1,1,1,1,1,1,1,1,1,1,1,1,1,1,1,1,1,1,1,1,1,1,1,1,1,1,1,1,1,1,1,1,1,1,1,1,1,1,1,1,1,1,1,1,1,1,1,1,1,1,1,1,1,1,1,1,1,1,1,1,1,1,1,1,1,1,1,1,1,1,1,1,1,1,1,1,1,1,1,1,1,1,1,1,1,1,1,1,1,1,1,1,1,1,1,1,1,1,1,1,1,1,1,1,1,1,1,1,1,1,1,1,1,1,1,1,1,1,1,1,1,1,1,1,1,1,1,1,1,1,1,1,1,1,1,1,1,1],"number_of_sets":1,"coherent_direction":[337,337,247,247,247,337,337,247,247,337,247,337,337,337,247,337,247,247,247,337,337,247,337,337,337,337,337,337,247,247,337,247,337,247,247,247,247,247,337,337,337,337,337,247,337,247,247,247,337,247,247,337,247,247,247,337,337,337,337,247,247,337,337,337,247,247,337,337,247,337,337,337,247,247,247,247,247,247,247,337,337,337,337,337,247,337,247,337,247,337,337,247,247,247,337,247,337,247,337,247,337,247,247,247,337,337,247,337,337,247,247,247,247,337,337,337,247,247,247,247,337,247,337,337,247,337,247,247,337,247,247,247,337,247,337,337,337,337,337,337,247,247,337,247,337,337,247,337,247,247,337,247,337,337,337,247,247,247,247,247,337,247,247,247,337,247,247,247,337,247,247,247,337,247,337,337,247,247,247,247,247,337,337,337,337,337,337,337,337,247,247,337,337,337,337,337,337,337,247,247],"coherence":1,"opposite_coherence":0,"dot_radius":2,"dot_side_length":1,"dot_life":-1,"move_distance":1,"aperture_width":300,"aperture_height":300,"dot_color":["white","white","black","black","black","white","white","black","black","white","black","white","white","white","black","white","black","black","black","white","white","black","white","white","white","white","white","white","black","black","white","black","white","black","black","black","black","black","white","white","white","white","white","black","white","black","black","black","white","black","black","white","black","black","black","white","white","white","white","black","black","white","white","white","black","black","white","white","black","white","white","white","black","black","black","black","black","black","black","white","white","white","white","white","black","white","black","white","black","white","white","black","black","black","white","black","white","black","white","black","white","black","black","black","white","white","black","white","white","black","black","black","black","white","white","white","black","black","black","black","white","black","white","white","black","white","black","black","white","black","black","black","white","black","white","white","white","white","white","white","black","black","white","black","white","white","black","white","black","black","white","black","white","white","white","black","black","black","black","black","white","black","black","black","white","black","black","black","white","black","black","black","white","black","white","white","black","black","black","black","black","white","white","white","white","white","white","white","white","black","black","white","white","white","white","white","white","white","black","black"],"dot_shape":"circle","background_color":"#AAA","RDK_type":3,"aperture_type":2,"reinsert_type":2,"frame_rate":16.666666666666668,"frame_rate_array":[3,12,16,17,16,17,17,17,15,16,17,16,17,16,16,17,16,18,16,16,18,17,17,16,17,17,17,16,16,17,17,16,17,17,16,16,16,18,16,17,17,17,16,17,17,17,17,16,17,17,16,18,16,17,17,18,15,16,17,18,17,16,15,17,17,17,17,16,17,16,17,15,18,16,32,19,19,14,17,15,18,17,16,17,17,16,17,17,17,16,18,16,16,18,16,17,17,17,18,15,17,17,16,18,17,15,17,18,16,18,17,16,16,17,16,17,15,18,17,18],"number_of_frames":120,"aperture_center_x":640,"aperture_center_y":360,"fixation_cross":true,"fixation_cross_width":15,"fixation_cross_height":15,"fixation_cross_color":"#111","fixation_cross_thickness":1,"border":true,"border_thickness":2,"border_color":"transparent","canvas_width":1280,"canvas_height":720,"trial_type":"rdk","trial_index":100,"plugin_version":"2.0.0","time_elapsed":234032},{"rt":3746,"stimulus":"\n        <div class=\"response-container\">\n          <div class=\"response-instruction\">\n            <p>rotate the bar by using the left and right arrow keys.</p>\n            <p>when you are determined, press the Enter key.</p>\n          </div>\n          <div class=\"response-circle\">\n            <div class=\"response-fixation\"></div>\n            <div id=\"bar\" class=\"rotating-bar\"></div>\n          </div>\n        </div>\n      ","response":"Enter","trial_type":"html-keyboard-response","trial_index":101,"plugin_version":"2.1.0","time_elapsed":237780,"random_initial_angle":44,"response_angle_css":-144,"response_angle_rdk":234,"angular_error_target":-103,"angular_error_distractor":-13,"target_direction":337,"target_group":"white","reward_points":0},{"rt":null,"stimulus":"\n          <p style=\"color: #FF3333;\">Your reward: 0 points</p>\n        ","response":null,"trial_type":"html-keyboard-response","trial_index":102,"plugin_version":"2.1.0","time_elapsed":239785},{"rt":null,"stimulus":"<div class=\"fixation\" style=\"font-size: 60px;\">+</div>","response":null,"trial_type":"html-keyboard-response","trial_index":103,"plugin_version":"2.1.0","time_elapsed":240800},{"phase":"learning-awareness","target_group":"white","condition_label":"W_H_vs_B_L_rep13","target_direction":5,"distractor_direction":245,"session_rotation":323,"rt":-1,"response":"","correct":false,"choices":"ALL_KEYS","correct_choice":["a"],"trial_duration":2000,"flip_timestamps":[],"response_ends_trial":false,"number_of_apertures":200,"number_of_dots":[1,1,1,1,1,1,1,1,1,1,1,1,1,1,1,1,1,1,1,1,1,1,1,1,1,1,1,1,1,1,1,1,1,1,1,1,1,1,1,1,1,1,1,1,1,1,1,1,1,1,1,1,1,1,1,1,1,1,1,1,1,1,1,1,1,1,1,1,1,1,1,1,1,1,1,1,1,1,1,1,1,1,1,1,1,1,1,1,1,1,1,1,1,1,1,1,1,1,1,1,1,1,1,1,1,1,1,1,1,1,1,1,1,1,1,1,1,1,1,1,1,1,1,1,1,1,1,1,1,1,1,1,1,1,1,1,1,1,1,1,1,1,1,1,1,1,1,1,1,1,1,1,1,1,1,1,1,1,1,1,1,1,1,1,1,1,1,1,1,1,1,1,1,1,1,1,1,1,1,1,1,1,1,1,1,1,1,1,1,1,1,1,1,1,1,1,1,1,1,1],"number_of_sets":1,"coherent_direction":[245,245,245,5,5,5,245,245,245,5,5,245,245,5,5,245,245,5,245,5,5,5,245,245,5,5,245,5,5,5,5,5,5,5,245,245,5,245,5,245,245,5,245,245,5,5,5,5,5,5,5,245,5,245,5,5,245,245,5,5,245,245,5,245,245,5,245,5,5,5,5,245,245,245,5,5,5,5,5,245,5,245,5,5,245,245,245,5,245,5,245,245,5,245,245,5,5,245,5,245,5,245,245,245,5,5,5,5,5,245,5,5,245,245,5,5,245,245,5,245,5,245,5,245,245,5,245,245,245,5,5,5,245,245,5,245,5,5,5,245,245,245,5,5,245,5,245,5,5,245,245,245,5,245,5,245,245,5,5,245,245,245,5,5,5,245,5,245,245,245,245,5,245,245,5,5,245,245,245,245,5,5,5,5,245,245,245,245,245,245,5,5,5,245,245,245,5,245,245,245],"coherence":1,"opposite_coherence":0,"dot_radius":2,"dot_side_length":1,"dot_life":-1,"move_distance":1,"aperture_width":300,"aperture_height":300,"dot_color":["black","black","black","white","white","white","black","black","black","white","white","black","black","white","white","black","black","white","black","white","white","white","black","black","white","white","black","white","white","white","white","white","white","white","black","black","white","black","white","black","black","white","black","black","white","white","white","white","white","white","white","black","white","black","white","white","black","black","white","white","black","black","white","black","black","white","black","white","white","white","white","black","black","black","white","white","white","white","white","black","white","black","white","white","black","black","black","white","black","white","black","black","white","black","black","white","white","black","white","black","white","black","black","black","white","white","white","white","white","black","white","white","black","black","white","white","black","black","white","black","white","black","white","black","black","white","black","black","black","white","white","white","black","black","white","black","white","white","white","black","black","black","white","white","black","white","black","white","white","black","black","black","white","black","white","black","black","white","white","black","black","black","white","white","white","black","white","black","black","black","black","white","black","black","white","white","black","black","black","black","white","white","white","white","black","black","black","black","black","black","white","white","white","black","black","black","white","black","black","black"],"dot_shape":"circle","background_color":"#AAA","RDK_type":3,"aperture_type":2,"reinsert_type":2,"frame_rate":16.58677685950413,"frame_rate_array":[3,14,17,17,17,17,17,17,17,17,16,17,17,17,17,17,17,16,16,17,17,20,13,25,10,21,17,16,25,9,20,11,19,13,19,15,20,13,18,21,15,12,20,16,14,17,17,17,17,16,17,17,16,17,17,17,17,16,17,16,17,17,17,16,17,17,16,17,17,16,17,17,17,16,17,17,16,17,18,16,18,15,17,17,17,17,16,17,16,18,18,15,17,16,17,17,17,15,16,17,16,16,16,18,17,16,19,14,18,17,16,17,17,17,17,16,17,19,14,16,16],"number_of_frames":121,"aperture_center_x":640,"aperture_center_y":360,"fixation_cross":true,"fixation_cross_width":15,"fixation_cross_height":15,"fixation_cross_color":"#111","fixation_cross_thickness":1,"border":true,"border_thickness":2,"border_color":"transparent","canvas_width":1280,"canvas_height":720,"trial_type":"rdk","trial_index":104,"plugin_version":"2.0.0","time_elapsed":242808},{"rt":3843,"stimulus":"\n        <div class=\"response-container\">\n          <div class=\"response-instruction\">\n            <p>rotate the bar by using the left and right arrow keys.</p>\n            <p>when you are determined, press the Enter key.</p>\n          </div>\n          <div class=\"response-circle\">\n            <div class=\"response-fixation\"></div>\n            <div id=\"bar\" class=\"rotating-bar\"></div>\n          </div>\n        </div>\n      ","response":"Enter","trial_type":"html-keyboard-response","trial_index":105,"plugin_version":"2.1.0","time_elapsed":246653,"random_initial_angle":227,"response_angle_css":421,"response_angle_rdk":29,"angular_error_target":24,"angular_error_distractor":144,"target_direction":5,"target_group":"white","reward_points":5},{"rt":null,"stimulus":"\n          <p style=\"color: #00FF00;\">Your reward: 5 points</p>\n        ","response":null,"trial_type":"html-keyboard-response","trial_index":106,"plugin_version":"2.1.0","time_elapsed":248669},{"rt":null,"stimulus":"<div class=\"fixation\" style=\"font-size: 60px;\">+</div>","response":null,"trial_type":"html-keyboard-response","trial_index":107,"plugin_version":"2.1.0","time_elapsed":249681},{"phase":"learning-awareness","target_group":"black","condition_label":"B_H_vs_W_L_rep2","target_direction":68,"distractor_direction":185,"session_rotation":323,"rt":-1,"response":"","correct":false,"choices":"ALL_KEYS","correct_choice":["a"],"trial_duration":2000,"flip_timestamps":[]