[{"rt":2808,"stimulus":"Welcome to the experiment. Press any key to begin.","response":"j","trial_type":"html-keyboard-response","trial_index":0,"plugin_version":"2.1.0","time_elapsed":2814},{"rt":55383,"stimulus":"\n        <div class=\"instructions-container\">\n          <h2>Instructions</h2>\n\n          <p>\n          In this experiment, you will see <strong>two Random Dot Kinematograms (RDKs)</strong> displayed simultaneously.\n          </p>\n\n          <p>\n          An RDK is a visual stimulus consisting of many small dots that move coherently in a single direction. \n          In this experiment, the dots will be either <strong>white</strong> or <strong>black</strong> \n          (see the short demo below for an example of an RDK stimulus).\n          </p>\n\n          <p>\n          On each trial, the two RDKs will move in different directions. \n          Your task is to decide <strong>which RDK appears to contain more dots</strong>.\n          </p>\n\n          <p>\n          The RDK that you judge to have more dots is called the <strong>target RDK</strong>. \n          For example, if the white RDK appears to have more dots than the black RDK, \n          you should report the motion direction of the white RDK.\n          </p>\n\n          <p>\n          After viewing the RDKs, you will rotate a bar to indicate the perceived direction of the target RDK \n          using the <strong>left</strong> and <strong>right arrow keys</strong>. \n          Press <strong>Enter</strong> when you are satisfied with your response.\n          When the bar is held down, the rotation speed increases.\n          </p>\n\n          <p>\n          You will receive points based on the <strong>accuracy of your response</strong>, \n          and your final <strong>bonus reward</strong> may depend on your overall performance. \n          Please try to respond as accurately as possible.\n          </p>\n\n          <p>\n          You will first complete <strong>16 practice trials</strong>. \n          Press the <strong>Enter</strong> key to start the practice phase.\n          </p>\n\n          <canvas id=\"instruction-demo-rdk\" width=\"200\" height=\"200\"style=\"display:block;margin:12px auto; border-radius: 50%;\"></canvas>\n        </div>\n      ","response":"Enter","trial_type":"html-keyboard-response","trial_index":1,"plugin_version":"2.1.0","time_elapsed":58203},{"rt":null,"stimulus":"<div class=\"fixation\" style=\"font-size: 60px;\">+</div>","response":null,"trial_type":"html-keyboard-response","trial_index":2,"plugin_version":"2.1.0","time_elapsed":59207},{"target_group":"white","target_index":0,"condition_label":"practice","rt":-1,"response":"","correct":false,"choices":"ALL_KEYS","correct_choice":["a"],"trial_duration":2000,"flip_timestamps":[],"response_ends_trial":false,"number_of_apertures":2,"number_of_dots":[100,79],"number_of_sets":1,"coherent_direction":[210,352],"coherence":1,"opposite_coherence":0,"dot_radius":2,"dot_side_length":1,"dot_life":-1,"move_distance":1,"aperture_width":300,"aperture_height":300,"dot_color":["white","black"],"dot_shape":"circle","background_color":"#AAA","RDK_type":3,"aperture_type":2,"reinsert_type":2,"frame_rate":16.619834710743802,"frame_rate_array":[9,21,7,17,16,17,19,16,17,18,16,16,18,16,16,18,17,15,19,16,16,17,17,17,19,15,15,17,16,17,18,16,17,19,15,16,17,18,15,17,17,16,17,18,16,16,17,16,17,18,16,16,17,17,17,16,17,18,16,17,16,17,17,17,16,17,17,17,16,16,16,16,17,17,17,17,17,18,17,16,16,18,16,17,16,17,17,16,17,18,16,16,17,15,16,17,16,17,18,18,16,18,15,17,17,15,17,17,16,16,18,16,18,16,17,17,17,17,16,17,17],"number_of_frames":121,"aperture_center_x":683,"aperture_center_y":384,"fixation_cross":true,"fixation_cross_width":15,"fixation_cross_height":15,"fixation_cross_color":"#111","fixation_cross_thickness":1,"border":true,"border_thickness":2,"border_color":"transparent","canvas_width":1366,"canvas_height":768,"trial_type":"rdk","trial_index":3,"plugin_version":"2.0.0","time_elapsed":61242,"phase":"practice","target_direction":210,"distractor_direction":352},{"rt":10283,"stimulus":"\n        <div class=\"response-container\">\n          <div class=\"response-instruction\">\n            <p>rotate the bar by using the left and right arrow keys.</p>\n            <p>when you are determined, press the Enter key.</p>\n          </div>\n          <div class=\"response-circle\">\n            <div class=\"response-fixation\"></div>\n            <div id=\"bar\" class=\"rotating-bar\"></div>\n          </div>\n        </div>\n      ","response":"Enter","trial_type":"html-keyboard-response","trial_index":4,"plugin_version":"2.1.0","time_elapsed":71528,"random_initial_angle":108,"response_angle_css":-49,"response_angle_rdk":139,"angular_error_target":-71,"angular_error_distractor":147,"target_direction":210,"target_group":"white","reward_points":0},{"rt":null,"stimulus":"\n          <p style=\"color: #FF3333;\">Your reward: 0 points</p>\n        ","response":null,"trial_type":"html-keyboard-response","trial_index":5,"plugin_version":"2.1.0","time_elapsed":73543},{"rt":null,"stimulus":"<div class=\"fixation\" style=\"font-size: 60px;\">+</div>","response":null,"trial_type":"html-keyboard-response","trial_index":6,"plugin_version":"2.1.0","time_elapsed":74558},{"target_group":"black","target_index":1,"condition_label":"practice","rt":-1,"response":"","correct":false,"choices":"ALL_KEYS","correct_choice":["a"],"trial_duration":2000,"flip_timestamps":[],"response_ends_trial":false,"number_of_apertures":2,"number_of_dots":[84,100],"number_of_sets":1,"coherent_direction":[120,212],"coherence":1,"opposite_coherence":0,"dot_radius":2,"dot_side_length":1,"dot_life":-1,"move_distance":1,"aperture_width":300,"aperture_height":300,"dot_color":["white","black"],"dot_shape":"circle","background_color":"#AAA","RDK_type":3,"aperture_type":2,"reinsert_type":2,"frame_rate":16.683333333333334,"frame_rate_array":[10,16,16,17,17,17,17,17,18,17,16,17,16,17,17,17,17,16,17,17,17,17,17,16,17,17,16,17,16,17,17,18,16,17,16,16,17,17,17,17,17,16,17,16,17,17,17,17,16,16,16,17,16,18,16,17,17,17,17,17,17,16,17,16,17,17,17,17,16,17,17,17,17,17,17,17,16,17,16,17,17,16,17,17,16,17,17,17,17,16,17,17,16,17,17,16,17,16,17,17,16,16,17,17,17,17,17,17,16,17,17,17,17,16,16,17,17,17,17,17],"number_of_frames":120,"aperture_center_x":683,"aperture_center_y":384,"fixation_cross":true,"fixation_cross_width":15,"fixation_cross_height":15,"fixation_cross_color":"#111","fixation_cross_thickness":1,"border":true,"border_thickness":2,"border_color":"transparent","canvas_width":1366,"canvas_height":768,"trial_type":"rdk","trial_index":7,"plugin_version":"2.0.0","time_elapsed":76572,"phase":"practice","target_direction":212,"distractor_direction":120},{"rt":8211,"stimulus":"\n        <div class=\"response-container\">\n          <div class=\"response-instruction\">\n            <p>rotate the bar by using the left and right arrow keys.</p>\n            <p>when you are determined, press the Enter key.</p>\n          </div>\n          <div class=\"response-circle\">\n            <div class=\"response-fixation\"></div>\n            <div id=\"bar\" class=\"rotating-bar\"></div>\n          </div>\n        </div>\n      ","response":"Enter","trial_type":"html-keyboard-response","trial_index":8,"plugin_version":"2.1.0","time_elapsed":84784,"random_initial_angle":16,"response_angle_css":220,"response_angle_rdk":230,"angular_error_target":18,"angular_error_distractor":110,"target_direction":212,"target_group":"black","reward_points":6},{"rt":null,"stimulus":"\n          <p style=\"color: #00FF00;\">Your reward: 6 points</p>\n        ","response":null,"trial_type":"html-keyboard-response","trial_index":9,"plugin_version":"2.1.0","time_elapsed":86792},{"rt":null,"stimulus":"<div class=\"fixation\" style=\"font-size: 60px;\">+</div>","response":null,"trial_type":"html-keyboard-response","trial_index":10,"plugin_version":"2.1.0","time_elapsed":87808},{"target_group":"white","target_index":0,"condition_label":"practice","rt":-1,"response":"","correct":false,"choices":"ALL_KEYS","correct_choice":["a"],"trial_duration":2000,"flip_timestamps":[],"response_ends_trial":false,"number_of_apertures":2,"number_of_dots":[100,71],"number_of_sets":1,"coherent_direction":[308,53],"coherence":1,"opposite_coherence":0,"dot_radius":2,"dot_side_length":1,"dot_life":-1,"move_distance":1,"aperture_width":300,"aperture_height":300,"dot_color":["white","black"],"dot_shape":"circle","background_color":"#AAA","RDK_type":3,"aperture_type":2,"reinsert_type":2,"frame_rate":16.68595041322314,"frame_rate_array":[4,9,17,17,17,17,17,17,17,17,17,17,17,18,17,17,15,17,17,16,17,18,16,16,16,17,16,17,17,17,17,17,17,17,17,17,17,17,17,17,17,17,17,17,17,17,17,17,17,17,17,17,17,17,17,17,17,17,17,17,17,17,17,16,17,17,17,17,17,17,17,17,18,17,17,17,16,17,16,17,16,17,17,17,17,17,17,16,17,17,16,16,16,16,17,17,17,17,17,17,17,17,17,17,17,16,17,17,17,17,17,17,16,16,16,17,17,17,17,17,17],"number_of_frames":121,"aperture_center_x":683,"aperture_center_y":384,"fixation_cross":true,"fixation_cross_width":15,"fixation_cross_height":15,"fixation_cross_color":"#111","fixation_cross_thickness":1,"border":true,"border_thickness":2,"border_color":"transparent","canvas_width":1366,"canvas_height":768,"trial_type":"rdk","trial_index":11,"plugin_version":"2.0.0","time_elapsed":89826,"phase":"practice","target_direction":308,"distractor_direction":53},{"rt":6712,"stimulus":"\n        <div class=\"response-container\">\n          <div class=\"response-instruction\">\n            <p>rotate the bar by using the left and right arrow keys.</p>\n            <p>when you are determined, press the Enter key.</p>\n          </div>\n          <div class=\"response-circle\">\n            <div class=\"response-fixation\"></div>\n            <div id=\"bar\" class=\"rotating-bar\"></div>\n          </div>\n        </div>\n      ","response":"Enter","trial_type":"html-keyboard-response","trial_index":12,"plugin_version":"2.1.0","time_elapsed":96540,"random_initial_angle":342,"response_angle_css":488,"response_angle_rdk":322,"angular_error_target":14,"angular_error_distractor":-91,"target_direction":308,"target_group":"white","reward_points":7},{"rt":null,"stimulus":"\n          <p style=\"color: #00FF00;\">Your reward: 7 points</p>\n        ","response":null,"trial_type":"html-keyboard-response","trial_index":13,"plugin_version":"2.1.0","time_elapsed":98542},{"rt":null,"stimulus":"<div class=\"fixation\" style=\"font-size: 60px;\">+</div>","response":null,"trial_type":"html-keyboard-response","trial_index":14,"plugin_version":"2.1.0","time_elapsed":99559},{"target_group":"white","target_index":0,"condition_label":"practice","rt":-1,"response":"","correct":false,"choices":"ALL_KEYS","correct_choice":["a"],"trial_duration":2000,"flip_timestamps":[],"response_ends_trial":false,"number_of_apertures":2,"number_of_dots":[100,100],"number_of_sets":1,"coherent_direction":[40,302],"coherence":1,"opposite_coherence":0,"dot_radius":2,"dot_side_length":1,"dot_life":-1,"move_distance":1,"aperture_width":300,"aperture_height":300,"dot_color":["white","black"],"dot_shape":"circle","background_color":"#AAA","RDK_type":3,"aperture_type":2,"reinsert_type":2,"frame_rate":16.644628099173552,"frame_rate_array":[3,17,17,17,17,17,17,17,16,17,16,17,17,17,16,16,16,17,17,17,17,17,17,16,17,17,17,17,16,16,17,17,17,17,17,17,17,17,17,17,17,17,16,17,17,17,16,16,16,17,17,17,17,17,16,17,17,16,17,17,17,16,17,17,17,17,17,16,17,16,17,17,17,17,17,17,17,17,16,17,16,16,17,17,16,17,16,17,17,17,17,17,17,16,16,17,17,17,17,16,17,17,17,17,17,16,17,16,17,17,17,17,17,16,16,17,17,17,17,17,17],"number_of_frames":121,"aperture_center_x":683,"aperture_center_y":384,"fixation_cross":true,"fixation_cross_width":15,"fixation_cross_height":15,"fixation_cross_color":"#111","fixation_cross_thickness":1,"border":true,"border_thickness":2,"border_color":"transparent","canvas_width":1366,"canvas_height":768,"trial_type":"rdk","trial_index":15,"plugin_version":"2.0.0","time_elapsed":101566,"phase":"practice","target_direction":40,"distractor_direction":302},{"rt":6812,"stimulus":"\n        <div class=\"response-container\">\n          <div class=\"response-instruction\">\n            <p>rotate the bar by using the left and right arrow keys.</p>\n            <p>when you are determined, press the Enter key.</p>\n          </div>\n          <div class=\"response-circle\">\n            <div class=\"response-fixation\"></div>\n            <div id=\"bar\" class=\"rotating-bar\"></div>\n          </div>\n        </div>\n      ","response":"Enter","trial_type":"html-keyboard-response","trial_index":16,"plugin_version":"2.1.0","time_elapsed":108380,"random_initial_angle":188,"response_angle_css":398,"response_angle_rdk":52,"angular_error_target":12,"angular_error_distractor":110,"target_direction":40,"target_group":"white","reward_points":7},{"rt":null,"stimulus":"\n          <p style=\"color: #00FF00;\">Your reward: 7 points</p>\n        ","response":null,"trial_type":"html-keyboard-response","trial_index":17,"plugin_version":"2.1.0","time_elapsed":110402},{"rt":null,"stimulus":"<div class=\"fixation\" style=\"font-size: 60px;\">+</div>","response":null,"trial_type":"html-keyboard-response","trial_index":18,"plugin_version":"2.1.0","time_elapsed":111418},{"target_group":"black","target_index":1,"condition_label":"practice","rt":-1,"response":"","correct":false,"choices":"ALL_KEYS","correct_choice":["a"],"trial_duration":2000,"flip_timestamps":[],"response_ends_trial":false,"number_of_apertures":2,"number_of_dots":[64,100],"number_of_sets":1,"coherent_direction":[232,27],"coherence":1,"opposite_coherence":0,"dot_radius":2,"dot_side_length":1,"dot_life":-1,"move_distance":1,"aperture_width":300,"aperture_height":300,"dot_color":["white","black"],"dot_shape":"circle","background_color":"#AAA","RDK_type":3,"aperture_type":2,"reinsert_type":2,"frame_rate":16.66115702479339,"frame_rate_array":[2,14,17,17,17,17,17,17,17,17,17,16,17,16,16,17,17,17,17,17,17,17,17,16,17,17,17,17,16,16,16,17,17,16,17,17,17,17,18,16,17,17,17,17,17,17,16,16,17,17,17,17,17,17,17,17,17,17,17,17,17,17,17,17,17,16,17,17,17,16,17,17,17,17,17,17,17,16,17,16,16,17,17,17,17,17,17,17,17,17,17,17,16,17,17,16,16,17,17,18,17,16,17,17,17,17,17,16,17,17,16,18,14,16,17,17,17,17,17,17,17],"number_of_frames":121,"aperture_center_x":683,"aperture_center_y":384,"fixation_cross":true,"fixation_cross_width":15,"fixation_cross_height":15,"fixation_cross_color":"#111","fixation_cross_thickness":1,"border":true,"border_thickness":2,"border_color":"transparent","canvas_width":1366,"canvas_height":768,"trial_type":"rdk","trial_index":19,"plugin_version":"2.0.0","time_elapsed":113435,"phase":"practice","target_direction":27,"distractor_direction":232},{"rt":4271,"stimulus":"\n        <div class=\"response-container\">\n          <div class=\"response-instruction\">\n            <p>rotate the bar by using the left and right arrow keys.</p>\n            <p>when you are determined, press the Enter key.</p>\n          </div>\n          <div class=\"response-circle\">\n            <div class=\"response-fixation\"></div>\n            <div id=\"bar\" class=\"rotating-bar\"></div>\n          </div>\n        </div>\n      ","response":"Enter","trial_type":"html-keyboard-response","trial_index":20,"plugin_version":"2.1.0","time_elapsed":117707,"random_initial_angle":241,"response_angle_css":401,"response_angle_rdk":49,"angular_error_target":22,"angular_error_distractor":177,"target_direction":27,"target_group":"black","reward_points":5},{"rt":null,"stimulus":"\n          <p style=\"color: #00FF00;\">Your reward: 5 points</p>\n        ","response":null,"trial_type":"html-keyboard-response","trial_index":21,"plugin_version":"2.1.0","time_elapsed":119714},{"rt":null,"stimulus":"<div class=\"fixation\" style=\"font-size: 60px;\">+</div>","response":null,"trial_type":"html-keyboard-response","trial_index":22,"plugin_version":"2.1.0","time_elapsed":120730},{"target_group":"black","target_index":1,"condition_label":"practice","rt":-1,"response":"","correct":false,"choices":"ALL_KEYS","correct_choice":["a"],"trial_duration":2000,"flip_timestamps":[],"response_ends_trial":false,"number_of_apertures":2,"number_of_dots":[98,100],"number_of_sets":1,"coherent_direction":[69,215],"coherence":1,"opposite_coherence":0,"dot_radius":2,"dot_side_length":1,"dot_life":-1,"move_distance":1,"aperture_width":300,"aperture_height":300,"dot_color":["white","black"],"dot_shape":"circle","background_color":"#AAA","RDK_type":3,"aperture_type":2,"reinsert_type":2,"frame_rate":16.816666666666666,"frame_rate_array":[11,17,17,17,17,17,17,17,17,17,17,17,16,17,17,17,17,17,16,17,17,17,17,17,17,17,16,17,17,17,17,17,16,17,17,17,17,17,17,17,17,16,17,17,17,17,17,17,16,17,17,17,17,17,17,17,17,18,16,17,17,17,17,17,16,16,16,17,17,17,17,17,17,17,17,17,17,17,17,16,17,17,17,17,17,17,17,16,16,17,17,17,17,17,17,17,17,16,17,17,17,17,17,17,17,16,17,17,17,16,16,17,17,17,17,17,17,17,17,17],"number_of_frames":120,"aperture_center_x":683,"aperture_center_y":384,"fixation_cross":true,"fixation_cross_width":15,"fixation_cross_height":15,"fixation_cross_color":"#111","fixation_cross_thickness":1,"border":true,"border_thickness":2,"border_color":"transparent","canvas_width":1366,"canvas_height":768,"trial_type":"rdk","trial_index":23,"plugin_version":"2.0.0","time_elapsed":122743,"phase":"practice","target_direction":215,"distractor_direction":69},{"rt":3588,"stimulus":"\n        <div class=\"response-container\">\n          <div class=\"response-instruction\">\n            <p>rotate the bar by using the left and right arrow keys.</p>\n            <p>when you are determined, press the Enter key.</p>\n          </div>\n          <div class=\"response-circle\">\n            <div class=\"response-fixation\"></div>\n            <div id=\"bar\" class=\"rotating-bar\"></div>\n          </div>\n        </div>\n      ","response":"Enter","trial_type":"html-keyboard-response","trial_index":24,"plugin_version":"2.1.0","time_elapsed":126332,"random_initial_angle":138,"response_angle_css":221,"response_angle_rdk":229,"angular_error_target":14,"angular_error_distractor":160,"target_direction":215,"target_group":"black","reward_points":7},{"rt":null,"stimulus":"\n          <p style=\"color: #00FF00;\">Your reward: 7 points</p>\n        ","response":null,"trial_type":"html-keyboard-response","trial_index":25,"plugin_version":"2.1.0","time_elapsed":128338},{"rt":null,"stimulus":"<div class=\"fixation\" style=\"font-size: 60px;\">+</div>","response":null,"trial_type":"html-keyboard-response","trial_index":26,"plugin_version":"2.1.0","time_elapsed":129349},{"target_group":"black","target_index":1,"condition_label":"practice","rt":-1,"response":"","correct":false,"choices":"ALL_KEYS","correct_choice":["a"],"trial_duration":2000,"flip_timestamps":[],"response_ends_trial":false,"number_of_apertures":2,"number_of_dots":[60,100],"number_of_sets":1,"coherent_direction":[66,291],"coherence":1,"opposite_coherence":0,"dot_radius":2,"dot_side_length":1,"dot_life":-1,"move_distance":1,"aperture_width":300,"aperture_height":300,"dot_color":["white","black"],"dot_shape":"circle","background_color":"#AAA","RDK_type":3,"aperture_type":2,"reinsert_type":2,"frame_rate":16.725,"frame_rate_array":[3,16,17,17,17,17,17,17,17,17,16,17,16,17,17,16,17,16,16,17,17,16,17,17,17,16,17,16,17,16,17,17,17,17,17,17,17,17,16,17,17,17,16,17,17,16,16,16,17,17,17,17,17,17,17,17,17,17,17,17,17,16,17,17,17,17,17,17,17,17,17,17,17,17,17,17,17,17,17,17,17,17,16,17,17,17,17,17,17,17,17,17,17,17,17,17,17,17,17,17,17,17,18,17,17,16,16,17,17,17,17,17,17,17,17,17,17,17,17,16],"number_of_frames":120,"aperture_center_x":683,"aperture_center_y":384,"fixation_cross":true,"fixation_cross_width":15,"fixation_cross_height":15,"fixation_cross_color":"#111","fixation_cross_thickness":1,"border":true,"border_thickness":2,"border_color":"transparent","canvas_width":1366,"canvas_height":768,"trial_type":"rdk","trial_index":27,"plugin_version":"2.0.0","time_elapsed":131351,"phase":"practice","target_direction":291,"distractor_direction":66},{"rt":3713,"stimulus":"\n        <div class=\"response-container\">\n          <div class=\"response-instruction\">\n            <p>rotate the bar by using the left and right arrow keys.</p>\n            <p>when you are determined, press the Enter key.</p>\n          </div>\n          <div class=\"response-circle\">\n            <div class=\"response-fixation\"></div>\n            <div id=\"bar\" class=\"rotating-bar\"></div>\n          </div>\n        </div>\n      ","response":"Enter","trial_type":"html-keyboard-response","trial_index":28,"plugin_version":"2.1.0","time_elapsed":135066,"random_initial_angle":17,"response_angle_css":149,"response_angle_rdk":301,"angular_error_target":10,"angular_error_distractor":-125,"target_direction":291,"target_group":"black","reward_points":8},{"rt":null,"stimulus":"\n          <p style=\"color: #00FF00;\">Your reward: 8 points</p>\n        ","response":null,"trial_type":"html-keyboard-response","trial_index":29,"plugin_version":"2.1.0","time_elapsed":137073},{"rt":null,"stimulus":"<div class=\"fixation\" style=\"font-size: 60px;\">+</div>","response":null,"trial_type":"html-keyboard-response","trial_index":30,"plugin_version":"2.1.0","time_elapsed":138089},{"target_group":"black","target_index":1,"condition_label":"practice","rt":-1,"response":"","correct":false,"choices":"ALL_KEYS","correct_choice":["a"],"trial_duration":2000,"flip_timestamps":[],"response_ends_trial":false,"number_of_apertures":2,"number_of_dots":[67,100],"number_of_sets":1,"coherent_direction":[201,8],"coherence":1,"opposite_coherence":0,"dot_radius":2,"dot_side_length":1,"dot_life":-1,"move_distance":1,"aperture_width":300,"aperture_height":300,"dot_color":["white","black"],"dot_shape":"circle","background_color":"#AAA","RDK_type":3,"aperture_type":2,"reinsert_type":2,"frame_rate":16.71900826446281,"frame_rate_array":[3,17,17,17,17,17,16,17,17,17,18,16,17,17,16,17,17,17,17,17,17,16,17,17,17,16,17,16,17,17,17,16,17,17,17,16,17,16,16,17,17,17,17,17,17,17,17,17,17,17,17,17,17,17,17,17,17,17,17,16,17,17,17,17,17,17,17,17,17,16,17,17,17,17,17,17,17,17,17,16,17,16,17,17,17,17,17,16,17,17,17,17,17,17,17,16,17,17,17,17,16,17,16,16,17,17,17,17,17,17,17,17,17,17,17,17,16,17,17,17,16],"number_of_frames":121,"aperture_center_x":683,"aperture_center_y":384,"fixation_cross":true,"fixation_cross_width":15,"fixation_cross_height":15,"fixation_cross_color":"#111","fixation_cross_thickness":1,"border":true,"border_thickness":2,"border_color":"transparent","canvas_width":1366,"canvas_height":768,"trial_type":"rdk","trial_index":31,"plugin_version":"2.0.0","time_elapsed":140095,"phase":"practice","target_direction":8,"distractor_direction":201},{"rt":2682,"stimulus":"\n        <div class=\"response-container\">\n          <div class=\"response-instruction\">\n            <p>rotate the bar by using the left and right arrow keys.</p>\n            <p>when you are determined, press the Enter key.</p>\n          </div>\n          <div class=\"response-circle\">\n            <div class=\"response-fixation\"></div>\n            <div id=\"bar\" class=\"rotating-bar\"></div>\n          </div>\n        </div>\n      ","response":"Enter","trial_type":"html-keyboard-response","trial_index":32,"plugin_version":"2.1.0","time_elapsed":142779,"random_initial_angle":48,"response_angle_css":73,"response_angle_rdk":17,"angular_error_target":9,"angular_error_distractor":176,"target_direction":8,"target_group":"black","reward_points":8},{"rt":null,"stimulus":"\n          <p style=\"color: #00FF00;\">Your reward: 8 points</p>\n        ","response":null,"trial_type":"html-keyboard-response","trial_index":33,"plugin_version":"2.1.0","time_elapsed":144792},{"rt":null,"stimulus":"<div class=\"fixation\" style=\"font-size: 60px;\">+</div>","response":null,"trial_type":"html-keyboard-response","trial_index":34,"plugin_version":"2.1.0","time_elapsed":145808},{"target_group":"white","target_index":0,"condition_label":"practice","rt":-1,"response":"","correct":false,"choices":"ALL_KEYS","correct_choice":["a"],"trial_duration":2000,"flip_timestamps":[],"response_ends_trial":false,"number_of_apertures":2,"number_of_dots":[100,79],"number_of_sets":1,"coherent_direction":[295,108],"coherence":1,"opposite_coherence":0,"dot_radius":2,"dot_side_length":1,"dot_life":-1,"move_distance":1,"aperture_width":300,"aperture_height":300,"dot_color":["white","black"],"dot_shape":"circle","background_color":"#AAA","RDK_type":3,"aperture_type":2,"reinsert_type":2,"frame_rate":16.683333333333334,"frame_rate_array":[10,16,17,17,17,17,16,17,17,17,16,17,16,17,17,17,17,16,17,16,17,17,16,16,17,17,18,16,17,17,16,17,16,17,16,17,17,16,17,16,17,16,17,17,17,16,17,17,17,17,17,17,16,17,17,16,17,17,17,17,17,16,17,17,17,17,17,17,16,17,16,17,17,17,16,17,17,16,17,16,17,16,17,16,17,16,17,17,16,17,17,17,17,17,17,17,17,17,17,17,17,17,17,17,17,16,17,17,17,17,17,17,16,17,16,17,16,17,17,17],"number_of_frames":120,"aperture_center_x":683,"aperture_center_y":384,"fixation_cross":true,"fixation_cross_width":15,"fixation_cross_height":15,"fixation_cross_color":"#111","fixation_cross_thickness":1,"border":true,"border_thickness":2,"border_color":"transparent","canvas_width":1366,"canvas_height":768,"trial_type":"rdk","trial_index":35,"plugin_version":"2.0.0","time_elapsed":147819,"phase":"practice","target_direction":295,"distractor_direction":108},{"rt":4882,"stimulus":"\n        <div class=\"response-container\">\n          <div class=\"response-instruction\">\n            <p>rotate the bar by using the left and right arrow keys.</p>\n            <p>when you are determined, press the Enter key.</p>\n          </div>\n          <div class=\"response-circle\">\n            <div class=\"response-fixation\"></div>\n            <div id=\"bar\" class=\"rotating-bar\"></div>\n          </div>\n        </div>\n      ","response":"Enter","trial_type":"html-keyboard-response","trial_index":36,"plugin_version":"2.1.0","time_elapsed":152703,"random_initial_angle":263,"response_angle_css":297,"response_angle_rdk":153,"angular_error_target":-142,"angular_error_distractor":45,"target_direction":295,"target_group":"white","reward_points":0},{"rt":null,"stimulus":"\n          <p style=\"color: #FF3333;\">Your reward: 0 points</p>\n        ","response":null,"trial_type":"html-keyboard-response","trial_index":37,"plugin_version":"2.1.0","time_elapsed":154714},{"rt":null,"stimulus":"<div class=\"fixation\" style=\"font-size: 60px;\">+</div>","response":null,"trial_type":"html-keyboard-response","trial_index":38,"plugin_version":"2.1.0","time_elapsed":155719},{"target_group":"white","target_index":0,"condition_label":"practice","rt":-1,"response":"","correct":false,"choices":"ALL_KEYS","correct_choice":["a"],"trial_duration":2000,"flip_timestamps":[],"response_ends_trial":false,"number_of_apertures":2,"number_of_dots":[100,63],"number_of_sets":1,"coherent_direction":[25,126],"coherence":1,"opposite_coherence":0,"dot_radius":2,"dot_side_length":1,"dot_life":-1,"move_distance":1,"aperture_width":300,"aperture_height":300,"dot_color":["white","black"],"dot_shape":"circle","background_color":"#AAA","RDK_type":3,"aperture_type":2,"reinsert_type":2,"frame_rate":16.708333333333332,"frame_rate_array":[6,17,17,17,16,17,16,17,16,17,16,17,17,17,17,17,17,17,17,17,17,17,17,17,17,16,16,17,17,17,17,17,17,17,17,16,17,16,17,16,17,16,17,17,17,17,17,16,17,17,17,17,17,16,17,16,17,17,17,17,17,16,17,17,16,17,17,17,17,17,17,16,17,16,17,17,17,17,17,17,17,17,17,17,17,16,17,17,17,17,17,17,17,17,17,16,17,17,17,17,17,17,17,16,17,17,16,17,17,17,17,17,17,16,17,17,16,17,17,16],"number_of_frames":120,"aperture_center_x":683,"aperture_center_y":384,"fixation_cross":true,"fixation_cross_width":15,"fixation_cross_height":15,"fixation_cross_color":"#111","fixation_cross_thickness":1,"border":true,"border_thickness":2,"border_color":"transparent","canvas_width":1366,"canvas_height":768,"trial_type":"rdk","trial_index":39,"plugin_version":"2.0.0","time_elapsed":157726,"phase":"practice","target_direction":25,"distractor_direction":126},{"rt":2435,"stimulus":"\n        <div class=\"response-container\">\n          <div class=\"response-instruction\">\n            <p>rotate the bar by using the left and right arrow keys.</p>\n            <p>when you are determined, press the Enter key.</p>\n          </div>\n          <div class=\"response-circle\">\n            <div class=\"response-fixation\"></div>\n            <div id=\"bar\" class=\"rotating-bar\"></div>\n          </div>\n        </div>\n      ","response":"Enter","trial_type":"html-keyboard-response","trial_index":40,"plugin_version":"2.1.0","time_elapsed":160163,"random_initial_angle":45,"response_angle_css":74,"response_angle_rdk":16,"angular_error_target":-9,"angular_error_distractor":-110,"target_direction":25,"target_group":"white","reward_points":8},{"rt":null,"stimulus":"\n          <p style=\"color: #00FF00;\">Your reward: 8 points</p>\n        ","response":null,"trial_type":"html-keyboard-response","trial_index":41,"plugin_version":"2.1.0","time_elapsed":162167},{"rt":null,"stimulus":"<div class=\"fixation\" style=\"font-size: 60px;\">+</div>","response":null,"trial_type":"html-keyboard-response","trial_index":42,"plugin_version":"2.1.0","time_elapsed":163182},{"target_group":"black","target_index":1,"condition_label":"practice","rt":-1,"response":"","correct":false,"choices":"ALL_KEYS","correct_choice":["a"],"trial_duration":2000,"flip_timestamps":[],"response_ends_trial":false,"number_of_apertures":2,"number_of_dots":[64,100],"number_of_sets":1,"coherent_direction":[281,24],"coherence":1,"opposite_coherence":0,"dot_radius":2,"dot_side_length":1,"dot_life":-1,"move_distance":1,"aperture_width":300,"aperture_height":300,"dot_color":["white","black"],"dot_shape":"circle","background_color":"#AAA","RDK_type":3,"aperture_type":2,"reinsert_type":2,"frame_rate":16.658333333333335,"frame_rate_array":[3,16,17,16,17,17,17,17,17,16,16,16,17,17,17,17,16,17,17,17,17,16,17,17,18,16,16,17,17,16,17,17,17,17,17,15,17,17,16,17,16,17,17,17,16,17,17,16,17,17,17,17,17,17,17,17,17,17,18,16,17,17,17,17,17,16,16,17,17,17,17,17,17,17,17,16,16,17,17,17,17,17,17,17,17,17,17,17,17,17,17,17,16,17,17,17,17,17,16,16,17,17,17,17,16,17,17,16,17,17,17,17,16,17,17,16,16,17,17,17],"number_of_frames":120,"aperture_center_x":683,"aperture_center_y":384,"fixation_cross":true,"fixation_cross_width":15,"fixation_cross_height":15,"fixation_cross_color":"#111","fixation_cross_thickness":1,"border":true,"border_thickness":2,"border_color":"transparent","canvas_width":1366,"canvas_height":768,"trial_type":"rdk","trial_index":43,"plugin_version":"2.0.0","time_elapsed":165185,"phase":"practice","target_direction":24,"distractor_direction":281},{"rt":2777,"stimulus":"\n        <div class=\"response-container\">\n          <div class=\"response-instruction\">\n            <p>rotate the bar by using the left and right arrow keys.</p>\n            <p>when you are determined, press the Enter key.</p>\n          </div>\n          <div class=\"response-circle\">\n            <div class=\"response-fixation\"></div>\n            <div id=\"bar\" class=\"rotating-bar\"></div>\n          </div>\n        </div>\n      ","response":"Enter","trial_type":"html-keyboard-response","trial_index":44,"plugin_version":"2.1.0","time_elapsed":167963,"random_initial_angle":304,"response_angle_css":403,"response_angle_rdk":47,"angular_error_target":23,"angular_error_distractor":126,"target_direction":24,"target_group":"black","reward_points":5},{"rt":null,"stimulus":"\n          <p style=\"color: #00FF00;\">Your reward: 5 points</p>\n        ","response":null,"trial_type":"html-keyboard-response","trial_index":45,"plugin_version":"2.1.0","time_elapsed":169979},{"rt":null,"stimulus":"<div class=\"fixation\" style=\"font-size: 60px;\">+</div>","response":null,"trial_type":"html-keyboard-response","trial_index":46,"plugin_version":"2.1.0","time_elapsed":170985},{"target_group":"white","target_index":0,"condition_label":"practice","rt":-1,"response":"","correct":false,"choices":"ALL_KEYS","correct_choice":["a"],"trial_duration":2000,"flip_timestamps":[],"response_ends_trial":false,"number_of_apertures":2,"number_of_dots":[100,68],"number_of_sets":1,"coherent_direction":[107,348],"coherence":1,"opposite_coherence":0,"dot_radius":2,"dot_side_length":1,"dot_life":-1,"move_distance":1,"aperture_width":300,"aperture_height":300,"dot_color":["white","black"],"dot_shape":"circle","background_color":"#AAA","RDK_type":3,"aperture_type":2,"reinsert_type":2,"frame_rate":16.702479338842974,"frame_rate_array":[9,17,17,17,17,17,17,16,17,17,17,16,16,17,17,17,17,16,17,17,17,17,17,16,17,17,17,17,16,17,17,17,17,17,17,17,16,17,16,17,17,16,17,16,16,17,17,17,17,17,17,17,17,16,17,17,16,17,17,16,16,17,17,17,17,17,17,17,17,17,17,17,17,17,17,16,17,17,17,17,17,17,17,17,16,17,16,17,17,17,17,16,17,17,17,16,17,16,17,16,16,16,17,17,17,17,17,16,17,17,17,17,16,17,17,16,17,17,17,17,16],"number_of_frames":121,"aperture_center_x":683,"aperture_center_y":384,"fixation_cross":true,"fixation_cross_width":15,"fixation_cross_height":15,"fixation_cross_color":"#111","fixation_cross_thickness":1,"border":true,"border_thickness":2,"border_color":"transparent","canvas_width":1366,"canvas_height":768,"trial_type":"rdk","trial_index":47,"plugin_version":"2.0.0","time_elapsed":172996,"phase":"practice","target_direction":107,"distractor_direction":348},{"rt":3859,"stimulus":"\n        <div class=\"response-container\">\n          <div class=\"response-instruction\">\n            <p>rotate the bar by using the left and right arrow keys.</p>\n            <p>when you are determined, press the Enter key.</p>\n          </div>\n          <div class=\"response-circle\">\n            <div class=\"response-fixation\"></div>\n            <div id=\"bar\" class=\"rotating-bar\"></div>\n          </div>\n        </div>\n      ","response":"Enter","trial_type":"html-keyboard-response","trial_index":48,"plugin_version":"2.1.0","time_elapsed":176856,"random_initial_angle":107,"response_angle_css":302,"response_angle_rdk":148,"angular_error_target":41,"angular_error_distractor":160,"target_direction":107,"target_group":"white","reward_points":1},{"rt":null,"stimulus":"\n          <p style=\"color: #FF3333;\">Your reward: 1 points</p>\n        ","response":null,"trial_type":"html-keyboard-response","trial_index":49,"plugin_version":"2.1.0","time_elapsed":178870},{"rt":null,"stimulus":"<div class=\"fixation\" style=\"font-size: 60px;\">+</div>","response":null,"trial_type":"html-keyboard-response","trial_index":50,"plugin_version":"2.1.0","time_elapsed":179886},{"target_group":"white","target_index":0,"condition_label":"practice","rt":-1,"response":"","correct":false,"choices":"ALL_KEYS","correct_choice":["a"],"trial_duration":2000,"flip_timestamps":[],"response_ends_trial":false,"number_of_apertures":2,"number_of_dots":[100,82],"number_of_sets":1,"coherent_direction":[123,13],"coherence":1,"opposite_coherence":0,"dot_radius":2,"dot_side_length":1,"dot_life":-1,"move_distance":1,"aperture_width":300,"aperture_height":300,"dot_color":["white","black"],"dot_shape":"circle","background_color":"#AAA","RDK_type":3,"aperture_type":2,"reinsert_type":2,"frame_rate":16.791666666666668,"frame_rate_array":[15,16,17,17,17,17,17,18,16,17,17,17,17,16,17,17,17,17,16,16,17,17,17,17,17,17,17,16,16,17,16,17,16,17,17,18,16,16,17,17,17,17,17,17,17,17,17,16,17,17,16,17,17,17,17,17,17,17,17,17,17,16,17,16,17,17,17,16,17,17,17,17,17,17,17,17,17,17,16,17,16,17,17,17,17,17,16,17,17,17,17,17,17,17,17,17,16,16,17,17,16,17,16,16,17,17,17,17,17,17,17,17,17,17,17,17,17,17,16,17],"number_of_frames":120,"aperture_center_x":683,"aperture_center_y":384,"fixation_cross":true,"fixation_cross_width":15,"fixation_cross_height":15,"fixation_cross_color":"#111","fixation_cross_thickness":1,"border":true,"border_thickness":2,"border_color":"transparent","canvas_width":1366,"canvas_height":768,"trial_type":"rdk","trial_index":51,"plugin_version":"2.0.0","time_elapsed":181902,"phase":"practice","target_direction":123,"distractor_direction":13},{"rt":3687,"stimulus":"\n        <div class=\"response-container\">\n          <div class=\"response-instruction\">\n            <p>rotate the bar by using the left and right arrow keys.</p>\n            <p>when you are determined, press the Enter key.</p>\n          </div>\n          <div class=\"response-circle\">\n            <div class=\"response-fixation\"></div>\n            <div id=\"bar\" class=\"rotating-bar\"></div>\n          </div>\n        </div>\n      ","response":"Enter","trial_type":"html-keyboard-response","trial_index":52,"plugin_version":"2.1.0","time_elapsed":185591,"random_initial_angle":252,"response_angle_css":426,"response_angle_rdk":24,"angular_error_target":-99,"angular_error_distractor":11,"target_direction":123,"target_group":"white","reward_points":0},{"rt":null,"stimulus":"\n          <p style=\"color: #FF3333;\">Your reward: 0 points</p>\n        ","response":null,"trial_type":"html-keyboard-response","trial_index":53,"plugin_version":"2.1.0","time_elapsed":187594},{"rt":null,"stimulus":"<div class=\"fixation\" style=\"font-size: 60px;\">+</div>","response":null,"trial_type":"html-keyboard-response","trial_index":54,"plugin_version":"2.1.0","time_elapsed":188605},{"target_group":"white","target_index":0,"condition_label":"practice","rt":-1,"response":"","correct":false,"choices":"ALL_KEYS","correct_choice":["a"],"trial_duration":2000,"flip_timestamps":[],"response_ends_trial":false,"number_of_apertures":2,"number_of_dots":[100,85],"number_of_sets":1,"coherent_direction":[334,120],"coherence":1,"opposite_coherence":0,"dot_radius":2,"dot_side_length":1,"dot_life":-1,"move_distance":1,"aperture_width":300,"aperture_height":300,"dot_color":["white","black"],"dot_shape":"circle","background_color":"#AAA","RDK_type":3,"aperture_type":2,"reinsert_type":2,"frame_rate":16.633333333333333,"frame_rate_array":[5,15,17,17,17,17,16,16,17,16,17,17,16,17,17,17,16,17,17,17,17,16,17,17,17,17,16,17,17,17,17,17,16,16,16,17,17,17,17,17,17,17,16,17,17,16,17,17,17,16,17,17,16,17,16,17,17,16,17,17,17,17,17,17,17,17,17,16,17,18,16,17,17,17,16,17,17,16,16,17,16,17,17,17,16,17,17,17,17,16,17,17,16,17,17,17,17,16,16,17,16,17,17,17,17,17,17,17,17,16,17,16,16,17,17,17,17,17,17,17],"number_of_frames":120,"aperture_center_x":683,"aperture_center_y":384,"fixation_cross":true,"fixation_cross_width":15,"fixation_cross_height":15,"fixation_cross_color":"#111","fixation_cross_thickness":1,"border":true,"border_thickness":2,"border_color":"transparent","canvas_width":1366,"canvas_height":768,"trial_type":"rdk","trial_index":55,"plugin_version":"2.0.0","time_elapsed":190611,"phase":"practice","target_direction":334,"distractor_direction":120},{"rt":2464,"stimulus":"\n        <div class=\"response-container\">\n          <div class=\"response-instruction\">\n            <p>rotate the bar by using the left and right arrow keys.</p>\n            <p>when you are determined, press the Enter key.</p>\n          </div>\n          <div class=\"response-circle\">\n            <div class=\"response-fixation\"></div>\n            <div id=\"bar\" class=\"rotating-bar\"></div>\n          </div>\n        </div>\n      ","response":"Enter","trial_type":"html-keyboard-response","trial_index":56,"plugin_version":"2.1.0","time_elapsed":193076,"random_initial_angle":253,"response_angle_css":313,"response_angle_rdk":137,"angular_error_target":163,"angular_error_distractor":17,"target_direction":334,"target_group":"white","reward_points":0},{"rt":null,"stimulus":"\n          <p style=\"color: #FF3333;\">Your reward: 0 points</p>\n        ","response":null,"trial_type":"html-keyboard-response","trial_index":57,"plugin_version":"2.1.0","time_elapsed":195089},{"rt":null,"stimulus":"<div class=\"fixation\" style=\"font-size: 60px;\">+</div>","response":null,"trial_type":"html-keyboard-response","trial_index":58,"plugin_version":"2.1.0","time_elapsed":196105},{"target_group":"white","target_index":0,"condition_label":"practice","rt":-1,"response":"","correct":false,"choices":"ALL_KEYS","correct_choice":["a"],"trial_duration":2000,"flip_timestamps":[],"response_ends_trial":false,"number_of_apertures":2,"number_of_dots":[100,61],"number_of_sets":1,"coherent_direction":[78,232],"coherence":1,"opposite_coherence":0,"dot_radius":2,"dot_side_length":1,"dot_life":-1,"move_distance":1,"aperture_width":300,"aperture_height":300,"dot_color":["white","black"],"dot_shape":"circle","background_color":"#AAA","RDK_type":3,"aperture_type":2,"reinsert_type":2,"frame_rate":16.816666666666666,"frame_rate_array":[14,16,17,16,17,17,17,17,17,16,16,17,17,17,17,17,17,17,17,17,17,16,17,17,17,17,17,16,17,16,17,17,17,17,17,17,17,17,17,17,17,17,17,17,17,17,17,17,17,17,17,16,17,17,17,17,16,17,17,17,17,17,17,17,17,17,17,17,17,17,17,17,17,16,16,16,17,17,17,17,17,17,17,17,17,17,17,17,17,17,17,17,17,16,17,16,16,17,17,17,17,17,17,17,16,17,16,17,16,17,17,17,17,17,17,17,17,17,17,16],"number_of_frames":120,"aperture_center_x":683,"aperture_center_y":384,"fixation_cross":true,"fixation_cross_width":15,"fixation_cross_height":15,"fixation_cross_color":"#111","fixation_cross_thickness":1,"border":true,"border_thickness":2,"border_color":"transparent","canvas_width":1366,"canvas_height":768,"trial_type":"rdk","trial_index":59,"plugin_version":"2.0.0","time_elapsed":198120,"phase":"practice","target_direction":78,"distractor_direction":232},{"rt":3761,"stimulus":"\n        <div class=\"response-container\">\n          <div class=\"response-instruction\">\n            <p>rotate the bar by using the left and right arrow keys.</p>\n            <p>when you are determined, press the Enter key.</p>\n          </div>\n          <div class=\"response-circle\">\n            <div class=\"response-fixation\"></div>\n            <div id=\"bar\" class=\"rotating-bar\"></div>\n          </div>\n        </div>\n      ","response":"Enter","trial_type":"html-keyboard-response","trial_index":60,"plugin_version":"2.1.0","time_elapsed":201882,"random_initial_angle":78,"response_angle_css":49,"response_angle_rdk":41,"angular_error_target":-37,"angular_error_distractor":169,"target_direction":78,"target_group":"white","reward_points":2},{"rt":null,"stimulus":"\n          <p style=\"color: #FF3333;\">Your reward: 2 points</p>\n        ","response":null,"trial_type":"html-keyboard-response","trial_index":61,"plugin_version":"2.1.0","time_elapsed":203885},{"rt":null,"stimulus":"<div class=\"fixation\" style=\"font-size: 60px;\">+</div>","response":null,"trial_type":"html-keyboard-response","trial_index":62,"plugin_version":"2.1.0","time_elapsed":204902},{"target_group":"black","target_index":1,"condition_label":"practice","rt":-1,"response":"","correct":false,"choices":"ALL_KEYS","correct_choice":["a"],"trial_duration":2000,"flip_timestamps":[],"response_ends_trial":false,"number_of_apertures":2,"number_of_dots":[99,100],"number_of_sets":1,"coherent_direction":[234,336],"coherence":1,"opposite_coherence":0,"dot_radius":2,"dot_side_length":1,"dot_life":-1,"move_distance":1,"aperture_width":300,"aperture_height":300,"dot_color":["white","black"],"dot_shape":"circle","background_color":"#AAA","RDK_type":3,"aperture_type":2,"reinsert_type":2,"frame_rate":16.702479338842974,"frame_rate_array":[6,17,18,16,17,17,17,17,17,17,16,17,17,17,17,17,17,17,17,17,16,16,17,17,17,17,17,17,17,17,17,16,17,17,16,16,17,17,17,17,17,17,17,17,17,17,16,17,17,16,17,17,17,16,17,16,17,16,17,17,17,16,17,17,16,17,17,16,17,17,17,17,17,17,17,16,17,17,16,17,17,17,17,17,16,16,16,17,17,17,17,17,17,17,17,16,17,17,17,17,16,16,17,17,17,17,17,17,17,16,17,17,16,17,17,17,17,17,17,17,16],"number_of_frames":121,"aperture_center_x":683,"aperture_center_y":384,"fixation_cross":true,"fixation_cross_width":15,"fixation_cross_height":15,"fixation_cross_color":"#111","fixation_cross_thickness":1,"border":true,"border_thickness":2,"border_color":"transparent","canvas_width":1366,"canvas_height":768,"trial_type":"rdk","trial_index":63,"plugin_version":"2.0.0","time_elapsed":206912,"phase":"practice","target_direction":336,"distractor_direction":234},{"rt":3219,"stimulus":"\n        <div class=\"response-container\">\n          <div class=\"response-instruction\">\n            <p>rotate the bar by using the left and right arrow keys.</p>\n            <p>when you are determined, press the Enter key.</p>\n          </div>\n          <div class=\"response-circle\">\n            <div class=\"response-fixation\"></div>\n            <div id=\"bar\" class=\"rotating-bar\"></div>\n          </div>\n        </div>\n      ","response":"Enter","trial_type":"html-keyboard-response","trial_index":64,"plugin_version":"2.1.0","time_elapsed":210133,"random_initial_angle":102,"response_angle_css":71,"response_angle_rdk":19,"angular_error_target":43,"angular_error_distractor":145,"target_direction":336,"target_group":"black","reward_points":1},{"rt":null,"stimulus":"\n          <p style=\"color: #FF3333;\">Your reward: 1 points</p>\n        ","response":null,"trial_type":"html-keyboard-response","trial_index":65,"plugin_version":"2.1.0","time_elapsed":212135},{"rt":2181,"stimulus":"\n        <div class=\"instructions-container\">\n          <h2>End of Practice</h2>\n          <p>You have completed the practice trials.</p>\n          <p>Press <strong>Enter</strong> key to begin the main experiment.</p>\n        </div>\n      ","response":"Enter","trial_type":"html-keyboard-response","trial_index":66,"plugin_version":"2.1.0","time_elapsed":214318},{"rt":null,"stimulus":"<div class=\"fixation\" style=\"font-size: 60px;\">+</div>","response":null,"trial_type":"html-keyboard-response","trial_index":67,"plugin_version":"2.1.0","time_elapsed":215332},{"phase":"learning-awareness","target_group":"black","condition_label":"B_H_vs_W_L_rep12","target_direction":328,"distractor_direction":60,"session_rotation":212,"rt":-1,"response":"","correct":false,"choices":"ALL_KEYS","correct_choice":["a"],"trial_duration":2000,"flip_timestamps":[],"response_ends_trial":false,"number_of_apertures":200,"number_of_dots":[1,1,1,1,1,1,1,1,1,1,1,1,1,1,1,1,1,1,1,1,1,1,1,1,1,1,1,1,1,1,1,1,1,1,1,1,1,1,1,1,1,1,1,1,1,1,1,1,1,1,1,1,1,1,1,1,1,1,1,1,1,1,1,1,1,1,1,1,1,1,1,1,1,1,1,1,1,1,1,1,1,1,1,1,1,1,1,1,1,1,1,1,1,1,1,1,1,1,1,1,1,1,1,1,1,1,1,1,1,1,1,1,1,1,1,1,1,1,1,1,1,1,1,1,1,1,1,1,1,1,1,1,1,1,1,1,1,1,1,1,1,1,1,1,1,1,1,1,1,1,1,1,1,1,1,1,1,1,1,1,1,1,1,1,1,1,1,1,1,1,1,1,1,1,1,1,1,1,1,1,1,1,1,1,1,1,1,1,1,1,1,1,1,1,1,1,1,1,1,1],"number_of_sets":1,"coherent_direction":[328,328,328,60,60,60,328,328,328,328,328,328,60,328,328,60,60,60,328,60,328,60,60,60,328,60,60,328,60,60,60,60,60,60,60,328,328,60,328,60,60,60,60,60,328,60,328,60,60,328,328,328,60,60,328,328,328,60,60,328,60,328,60,60,328,328,60,60,60,60,60,328,328,60,328,60,328,60,328,60,328,60,60,60,328,328,60,60,328,60,328,328,60,60,60,60,60,328,60,328,328,60,60,60,328,60,328,60,328,328,328,328,328,328,60,328,60,60,328,60,328,328,328,60,60,60,328,60,328,60,60,328,328,328,60,60,328,60,328,328,60,60,328,328,328,328,328,328,60,60,60,328,60,328,328,328,60,60,328,328,328,328,60,328,328,60,60,328,60,328,60,60,328,60,328,60,60,328,328,328,328,60,328,328,328,328,60,328,328,328,60,60,60,328,60,328,60,328,60,328],"coherence":1,"opposite_coherence":0,"dot_radius":2,"dot_side_length":1,"dot_life":-1,"move_distance":1,"aperture_width":300,"aperture_height":300,"dot_color":["black","black","black","white","white","white","black","black","black","black","black","black","white","black","black","white","white","white","black","white","black","white","white","white","black","white","white","black","white","white","white","white","white","white","white","black","black","white","black","white","white","white","white","white","black","white","black","white","white","black","black","black","white","white","black","black","black","white","white","black","white","black","white","white","black","black","white","white","white","white","white","black","black","white","black","white","black","white","black","white","black","white","white","white","black","black","white","white","black","white","black","black","white","white","white","white","white","black","white","black","black","white","white","white","black","white","black","white","black","black","black","black","black","black","white","black","white","white","black","white","black","black","black","white","white","white","black","white","black","white","white","black","black","black","white","white","black","white","black","black","white","white","black","black","black","black","black","black","white","white","white","black","white","black","black","black","white","white","black","black","black","black","white","black","black","white","white","black","white","black","white","white","black","white","black","white","white","black","black","black","black","white","black","black","black","black","white","black","black","black","white","white","white","black","white","black","white","black","white","black"],"dot_shape":"circle","background_color":"#AAA","RDK_type":3,"aperture_type":2,"reinsert_type":2,"frame_rate":16.66115702479339,"frame_rate_array":[3,13,17,17,17,17,17,17,16,16,16,17,17,17,17,18,17,17,18,16,16,17,16,16,17,17,17,17,17,18,16,17,17,16,16,18,16,15,17,17,17,18,18,15,17,18,16,17,18,17,15,18,15,17,17,18,17,15,16,18,16,17,16,16,17,17,17,17,17,19,15,18,17,17,15,17,17,17,17,17,17,17,17,17,16,16,17,17,17,17,18,17,16,17,16,17,17,16,17,17,16,16,16,17,17,17,18,17,17,17,17,17,18,15,17,17,17,16,18,18,16],"number_of_frames":121,"aperture_center_x":683,"aperture_center_y":384,"fixation_cross":true,"fixation_cross_width":15,"fixation_cross_height":15,"fixation_cross_color":"#111","fixation_cross_thickness":1,"border":true,"border_thickness":2,"border_color":"transparent","canvas_width":1366,"canvas_height":768,"trial_type":"rdk","trial_index":68,"plugin_version":"2.0.0","time_elapsed":217339},{"rt":2674,"stimulus":"\n        <div class=\"response-container\">\n          <div class=\"response-instruction\">\n            <p>rotate the bar by using the left and right arrow keys.</p>\n            <p>when you are determined, press the Enter key.</p>\n          </div>\n          <div class=\"response-circle\">\n            <div class=\"response-fixation\"></div>\n            <div id=\"bar\" class=\"rotating-bar\"></div>\n          </div>\n        </div>\n      ","response":"Enter","trial_type":"html-keyboard-response","trial_index":69,"plugin_version":"2.1.0","time_elapsed":220015,"random_initial_angle":143,"response_angle_css":118,"response_angle_rdk":332,"angular_error_target":4,"angular_error_distractor":-88,"target_direction":328,"target_group":"black","reward_points":9},{"rt":null,"stimulus":"\n          <p style=\"color: #00FF00;\">Your reward: 9 points</p>\n        ","response":null,"trial_type":"html-keyboard-response","trial_index":70,"plugin_version":"2.1.0","time_elapsed":222026},{"rt":null,"stimulus":"<div class=\"fixation\" style=\"font-size: 60px;\">+</div>","response":null,"trial_type":"html-keyboard-response","trial_index":71,"plugin_version":"2.1.0","time_elapsed":223043},{"phase":"learning-awareness","target_group":"black","condition_label":"B_H_vs_W_L_rep4","target_direction":328,"distractor_direction":63,"session_rotation":212,"rt":-1,"response":"","correct":false,"choices":"ALL_KEYS","correct_choice":["a"],"trial_duration":2000,"flip_timestamps":[],"response_ends_trial":false,"number_of_apertures":200,"number_of_dots":[1,1,1,1,1,1,1,1,1,1,1,1,1,1,1,1,1,1,1,1,1,1,1,1,1,1,1,1,1,1,1,1,1,1,1,1,1,1,1,1,1,1,1,1,1,1,1,1,1,1,1,1,1,1,1,1,1,1,1,1,1,1,1,1,1,1,1,1,1,1,1,1,1,1,1,1,1,1,1,1,1,1,1,1,1,1,1,1,1,1,1,1,1,1,1,1,1,1,1,1,1,1,1,1,1,1,1,1,1,1,1,1,1,1,1,1,1,1,1,1,1,1,1,1,1,1,1,1,1,1,1,1,1,1,1,1,1,1,1,1,1,1,1,1,1,1,1,1,1,1,1,1,1,1,1,1,1,1,1,1,1,1,1,1,1,1,1,1,1,1,1,1,1,1,1,1,1,1,1,1,1,1,1,1,1,1,1,1,1,1,1,1,1,1,1,1,1,1,1,1],"number_of_sets":1,"coherent_direction":[328,63,328,63,63,63,63,328,328,328,328,63,328,63,328,63,328,328,63,63,63,63,328,328,63,63,328,63,63,63,328,63,63,63,63,328,63,63,63,328,63,328,63,63,328,328,328,63,328,328,63,328,63,328,63,328,63,63,63,328,328,328,63,63,63,63,63,63,328,63,328,328,328,328,63,328,328,328,63,328,63,63,328,328,328,63,328,328,328,63,63,328,63,63,63,63,63,328,63,63,328,328,328,328,63,63,63,63,63,63,328,63,63,63,328,328,63,63,63,328,328,63,328,328,63,328,328,63,328,328,328,328,328,63,328,328,63,63,63,328,328,63,328,63,63,328,328,328,328,63,328,328,63,63,328,328,328,328,328,63,63,328,328,328,328,328,63,63,63,328,328,63,328,328,328,328,63,63,63,328,63,328,328,328,63,63,63,63,63,63,63,63,328,328,328,63,328,328,328,63],"coherence":1,"opposite_coherence":0,"dot_radius":2,"dot_side_length":1,"dot_life":-1,"move_distance":1,"aperture_width":300,"aperture_height":300,"dot_color":["black","white","black","white","white","white","white","black","black","black","black","white","black","white","black","white","black","black","white","white","white","white","black","black","white","white","black","white","white","white","black","white","white","white","white","black","white","white","white","black","white","black","white","white","black","black","black","white","black","black","white","black","white","black","white","black","white","white","white","black","black","black","white","white","white","white","white","white","black","white","black","black","black","black","white","black","black","black","white","black","white","white","black","black","black","white","black","black","black","white","white","black","white","white","white","white","white","black","white","white","black","black","black","black","white","white","white","white","white","white","black","white","white","white","black","black","white","white","white","black","black","white","black","black","white","black","black","white","black","black","black","black","black","white","black","black","white","white","white","black","black","white","black","white","white","black","black","black","black","white","black","black","white","white","black","black","black","black","black","white","white","black","black","black","black","black","white","white","white","black","black","white","black","black","black","black","white","white","white","black","white","black","black","black","white","white","white","white","white","white","white","white","black","black","black","white","black","black","black","white"],"dot_shape":"circle","background_color":"#AAA","RDK_type":3,"aperture_type":2,"reinsert_type":2,"frame_rate":16.578512396694215,"frame_rate_array":[6,11,15,16,17,17,17,16,17,17,17,17,17,17,16,17,16,16,17,17,16,16,16,16,16,17,17,17,17,17,18,16,17,17,16,17,17,16,17,18,16,16,18,16,16,17,17,16,18,16,17,17,18,17,16,16,16,17,17,17,18,17,18,15,17,17,17,17,17,17,17,17,17,18,16,17,17,15,17,17,16,18,16,17,16,15,17,17,16,17,19,16,17,16,18,16,17,17,16,17,17,17,18,15,17,18,15,17,18,16,17,16,17,16,18,17,17,17,15,16,16],"number_of_frames":121,"aperture_center_x":683,"aperture_center_y":384,"fixation_cross":true,"fixation_cross_width":15,"fixation_cross_height":15,"fixation_cross_color":"#111","fixation_cross_thickness":1,"border":true,"border_thickness":2,"border_color":"transparent","canvas_width":1366,"canvas_height":768,"trial_type":"rdk","trial_index":72,"plugin_version":"2.0.0","time_elapsed":225059},{"rt":4210,"stimulus":"\n        <div class=\"response-container\">\n          <div class=\"response-instruction\">\n            <p>rotate the bar by using the left and right arrow keys.</p>\n            <p>when you are determined, press the Enter key.</p>\n          </div>\n          <div class=\"response-circle\">\n            <div class=\"response-fixation\"></div>\n            <div id=\"bar\" class=\"rotating-bar\"></div>\n          </div>\n        </div>\n      ","response":"Enter","trial_type":"html-keyboard-response","trial_index":73,"plugin_version":"2.1.0","time_elapsed":229270,"random_initial_angle":228,"response_angle_css":110,"response_angle_rdk":340,"angular_error_target":12,"angular_error_distractor":-83,"target_direction":328,"target_group":"black","reward_points":7},{"rt":null,"stimulus":"\n          <p style=\"color: #00FF00;\">Your reward: 7 points</p>\n        ","response":null,"trial_type":"html-keyboard-response","trial_index":74,"plugin_version":"2.1.0","time_elapsed":231276},{"rt":null,"stimulus":"<div class=\"fixation\" style=\"font-size: 60px;\">+</div>","response":null,"trial_type":"html-keyboard-response","trial_index":75,"plugin_version":"2.1.0","time_elapsed":232282},{"phase":"learning-awareness","target_group":"black","condition_label":"B_H_vs_W_L_rep17","target_direction":316,"distractor_direction":72,"session_rotation":212,"rt":-1,"response":"","correct":false,"choices":"ALL_KEYS","correct_choice":["a"],"trial_duration":2000,"flip_timestamps":[],"response_ends_trial":false,"number_of_apertures":200,"number_of_dots":[1,1,1,1,1,1,1,1,1,1,1,1,1,1,1,1,1,1,1,1,1,1,1,1,1,1,1,1,1,1,1,1,1,1,1,1,1,1,1,1,1,1,1,1,1,1,1,1,1,1,1,1,1,1,1,1,1,1,1,1,1,1,1,1,1,1,1,1,1,1,1,1,1,1,1,1,1,1,1,1,1,1,1,1,1,1,1,1,1,1,1,1,1,1,1,1,1,1,1,1,1,1,1,1,1,1,1,1,1,1,1,1,1,1,1,1,1,1,1,1,1,1,1,1,1,1,1,1,1,1,1,1,1,1,1,1,1,1,1,1,1,1,1,1,1,1,1,1,1,1,1,1,1,1,1,1,1,1,1,1,1,1,1,1,1,1,1,1,1,1,1,1,1,1,1,1,1,1,1,1,1,1,1,1,1,1,1,1,1,1,1,1,1,1,1,1,1,1,1,1],"number_of_sets":1,"coherent_direction":[316,316,72,316,72,72,316,72,316,72,72,316,72,316,72,316,316,72,316,72,316,316,72,316,72,72,72,72,72,316,316,72,72,72,72,72,316,316,316,316,316,72,72,72,316,316,316,72,72,72,72,72,316,316,72,316,72,72,72,72,316,316,72,72,72,316,316,72,72,316,316,316,72,316,316,72,72,316,72,316,72,72,316,72,316,72,316,316,316,72,72,316,316,72,72,316,316,316,316,316,72,316,316,316,316,72,316,72,316,316,316,316,72,72,72,316,72,72,316,72,316,316,316,72,316,72,72,316,316,72,72,316,72,316,72,316,72,72,316,72,316,316,316,316,316,72,72,316,72,316,72,316,316,316,316,72,316,316,72,72,316,316,72,72,316,316,316,72,316,72,72,72,72,72,316,316,72,72,72,316,72,316,72,72,72,72,72,72,72,316,72,72,72,316,316,316,316,316,72,316],"coherence":1,"opposite_coherence":0,"dot_radius":2,"dot_side_length":1,"dot_life":-1,"move_distance":1,"aperture_width":300,"aperture_height":300,"dot_color":["black","black","white","black","white","white","black","white","black","white","white","black","white","black","white","black","black","white","black","white","black","black","white","black","white","white","white","white","white","black","black","white","white","white","white","white","black","black","black","black","black","white","white","white","black","black","black","white","white","white","white","white","black","black","white","black","white","white","white","white","black","black","white","white","white","black","black","white","white","black","black","black","white","black","black","white","white","black","white","black","white","white","black","white","black","white","black","black","black","white","white","black","black","white","white","black","black","black","black","black","white","black","black","black","black","white","black","white","black","black","black","black","white","white","white","black","white","white","black","white","black","black","black","white","black","white","white","black","black","white","white","black","white","black","white","black","white","white","black","white","black","black","black","black","black","white","white","black","white","black","white","black","black","black","black","white","black","black","white","white","black","black","white","white","black","black","black","white","black","white","white","white","white","white","black","black","white","white","white","black","white","black","white","white","white","white","white","white","white","black","white","white","white","black","black","black","black","black","white","black"],"dot_shape":"circle","background_color":"#AAA","RDK_type":3,"aperture_type":2,"reinsert_type":2,"frame_rate":16.65289256198347,"frame_rate_array":[2,14,17,18,17,17,17,17,17,15,17,16,17,17,17,17,16,18,17,16,17,17,17,17,17,17,17,17,17,16,17,18,16,18,16,17,16,17,17,17,16,15,17,17,17,17,19,16,18,17,17,17,17,17,17,15,17,17,17,17,17,16,18,15,17,16,17,17,17,18,16,18,18,16,17,15,16,17,17,17,17,17,17,16,18,17,17,16,15,18,16,17,17,16,17,18,15,16,17,17,16,17,17,17,17,17,17,16,17,17,16,16,17,17,17,17,16,17,17,17,17],"number_of_frames":121,"aperture_center_x":683,"aperture_center_y":384,"fixation_cross":true,"fixation_cross_width":15,"fixation_cross_height":15,"fixation_cross_color":"#111","fixation_cross_thickness":1,"border":true,"border_thickness":2,"border_color":"transparent","canvas_width":1366,"canvas_height":768,"trial_type":"rdk","trial_index":76,"plugin_version":"2.0.0","time_elapsed":234286},{"rt":2500,"stimulus":"\n        <div class=\"response-container\">\n          <div class=\"response-instruction\">\n            <p>rotate the bar by using the left and right arrow keys.</p>\n            <p>when you are determined, press the Enter key.</p>\n          </div>\n          <div class=\"response-circle\">\n            <div class=\"response-fixation\"></div>\n            <div id=\"bar\" class=\"rotating-bar\"></div>\n          </div>\n        </div>\n      ","response":"Enter","trial_type":"html-keyboard-response","trial_index":77,"plugin_version":"2.1.0","time_elapsed":236786,"random_initial_angle":6,"response_angle_css":-33,"response_angle_rdk":123,"angular_error_target":167,"angular_error_distractor":51,"target_direction":316,"target_group":"black","reward_points":0},{"rt":null,"stimulus":"\n          <p style=\"color: #FF3333;\">Your reward: 0 points</p>\n        ","response":null,"trial_type":"html-keyboard-response","trial_index":78,"plugin_version":"2.1.0","time_elapsed":238800},{"rt":null,"stimulus":"<div class=\"fixation\" style=\"font-size: 60px;\">+</div>","response":null,"trial_type":"html-keyboard-response","trial_index":79,"plugin_version":"2.1.0","time_elapsed":239808},{"phase":"learning-awareness","target_group":"black","condition_label":"B_H_vs_W_L_rep2","target_direction":328,"distractor_direction":70,"session_rotation":212,"rt":-1,"response":"","correct":false,"choices":"ALL_KEYS","correct_choice":["a"],"trial_duration":2000,"flip_timestamps":[],"response_ends_trial":false,"number_of_apertures":200,"number_of_dots":[1,1,1,1,1,1,1,1,1,1,1,1,1,1,1,1,1,1,1,1,1,1,1,1,1,1,1,1,1,1,1,1,1,1,1,1,1,1,1,1,1,1,1,1,1,1,1,1,1,1,1,1,1,1,1,1,1,1,1,1,1,1,1,1,1,1,1,1,1,1,1,1,1,1,1,1,1,1,1,1,1,1,1,1,1,1,1,1,1,1,1,1,1,1,1,1,1,1,1,1,1,1,1,1,1,1,1,1,1,1,1,1,1,1,1,1,1,1,1,1,1,1,1,1,1,1,1,1,1,1,1,1,1,1,1,1,1,1,1,1,1,1,1,1,1,1,1,1,1,1,1,1,1,1,1,1,1,1,1,1,1,1,1,1,1,1,1,1,1,1,1,1,1,1,1,1,1,1,1,1,1,1,1,1,1,1,1,1,1,1,1,1,1,1,1,1,1,1,1,1],"number_of_sets":1,"coherent_direction":[70,70,328,328,70,328,328,70,70,328,70,328,70,328,328,328,70,70,70,328,70,70,70,328,328,328,328,70,70,328,70,328,70,328,328,70,70,70,328,70,328,328,70,70,70,328,70,328,328,70,328,70,328,70,328,328,328,328,70,70,70,70,328,328,328,70,70,328,328,70,70,70,70,328,328,328,328,70,328,328,328,70,70,328,328,70,70,328,70,328,328,328,70,328,328,70,70,328,328,328,70,70,70,70,328,328,328,328,70,328,70,70,328,70,328,70,328,70,328,70,70,328,70,328,70,328,328,70,328,328,70,328,328,328,70,328,328,328,70,328,328,70,70,70,328,70,328,70,328,70,328,70,70,328,70,328,70,70,328,328,328,70,70,70,328,70,328,328,70,70,328,328,70,328,328,70,70,70,328,70,70,328,70,70,328,70,70,70,70,70,70,328,328,328,328,328,70,70,70,70],"coherence":1,"opposite_coherence":0,"dot_radius":2,"dot_side_length":1,"dot_life":-1,"move_distance":1,"aperture_width":300,"aperture_height":300,"dot_color":["white","white","black","black","white","black","black","white","white","black","white","black","white","black","black","black","white","white","white","black","white","white","white","black","black","black","black","white","white","black","white","black","white","black","black","white","white","white","black","white","black","black","white","white","white","black","white","black","black","white","black","white","black","white","black","black","black","black","white","white","white","white","black","black","black","white","white","black","black","white","white","white","white","black","black","black","black","white","black","black","black","white","white","black","black","white","white","black","white","black","black","black","white","black","black","white","white","black","black","black","white","white","white","white","black","black","black","black","white","black","white","white","black","white","black","white","black","white","black","white","white","black","white","black","white","black","black","white","black","black","white","black","black","black","white","black","black","black","white","black","black","white","white","white","black","white","black","white","black","white","black","white","white","black","white","black","white","white","black","black","black","white","white","white","black","white","black","black","white","white","black","black","white","black","black","white","white","white","black","white","white","black","white","white","black","white","white","white","white","white","white","black","black","black","black","black","white","white","white","white"],"dot_shape":"circle","background_color":"#AAA","RDK_type":3,"aperture_type":2,"reinsert_type":2,"frame_rate":16.68595041322314,"frame_rate_array":[4,11,17,18,17,17,17,17,16,17,17,18,17,15,16,17,17,17,17,17,17,18,17,16,17,17,18,16,17,17,18,16,17,17,17,16,17,17,17,17,17,17,17,18,15,15,17,17,16,17,17,17,17,17,18,17,17,17,17,17,17,17,18,16,17,17,18,17,15,17,18,17,15,16,16,17,18,17,17,17,15,16,17,17,17,18,17,18,15,17,18,16,16,17,17,18,16,17,17,16,16,16,17,17,17,17,17,15,17,17,17,17,16,16,17,17,17,17,17,18,17],"number_of_frames":121,"aperture_center_x":683,"aperture_center_y":384,"fixation_cross":true,"fixation_cross_width":15,"fixation_cross_height":15,"fixation_cross_color":"#111","fixation_cross_thickness":1,"border":true,"border_thickness":2,"border_color":"transparent","canvas_width":1366,"canvas_height":768,"trial_type":"rdk","trial_index":80,"plugin_version":"2.0.0","time_elapsed":241813},{"rt":3354,"stimulus":"\n        <div class=\"response-container\">\n          <div class=\"response-instruction\">\n            <p>rotate the bar by using the left and right arrow keys.</p>\n            <p>when you are determined, press the Enter key.</p>\n          </div>\n          <div class=\"response-circle\">\n            <div class=\"response-fixation\"></div>\n            <div id=\"bar\" class=\"rotating-bar\"></div>\n          </div>\n        </div>\n      ","response":"Enter","trial_type":"html-keyboard-response","trial_index":81,"plugin_version":"2.1.0","time_elapsed":245169,"random_initial_angle":221,"response_angle_css":112,"response_angle_rdk":338,"angular_error_target":10,"angular_error_distractor":-92,"target_direction":328,"target_group":"black","reward_points":8},{"rt":null,"stimulus":"\n          <p style=\"color: #00FF00;\">Your reward: 8 points</p>\n        ","response":null,"trial_type":"html-keyboard-response","trial_index":82,"plugin_version":"2.1.0","time_elapsed":247183},{"rt":null,"stimulus":"<div class=\"fixation\" style=\"font-size: 60px;\">+</div>","response":null,"trial_type":"html-keyboard-response","trial_index":83,"plugin_version":"2.1.0","time_elapsed":248188},{"phase":"learning-awareness","target_group":"white","condition_label":"W_H_vs_B_L_rep24","target_direction":226,"distractor_direction":129,"session_rotation":212,"rt":-1,"response":"","correct":false,"choices":"ALL_KEYS","correct_choice":["a"],"trial_duration":2000,"flip_timestamps":[],"response_ends_trial":false,"number_of_apertures":200,"number_of_dots":[1,1,1,1,1,1,1,1,1,1,1,1,1,1,1,1,1,1,1,1,1,1,1,1,1,1,1,1,1,1,1,1,1,1,1,1,1,1,1,1,1,1,1,1,1,1,1,1,1,1,1,1,1,1,1,1,1,1,1,1,1,1,1,1,1,1,1,1,1,1,1,1,1,1,1,1,1,1,1,1,1,1,1,1,1,1,1,1,1,1,1,1,1,1,1,1,1,1,1,1,1,1,1,1,1,1,1,1,1,1,1,1,1,1,1,1,1,1,1,1,1,1,1,1,1,1,1,1,1,1,1,1,1,1,1,1,1,1,1,1,1,1,1,1,1,1,1,1,1,1,1,1,1,1,1,1,1,1,1,1,1,1,1,1,1,1,1,1,1,1,1,1,1,1,1,1,1,1,1,1,1,1,1,1,1,1,1,1,1,1,1,1,1,1,1,1,1,1,1,1],"number_of_sets":1,"coherent_direction":[226,129,226,129,226,129,226,226,129,226,129,226,226,226,226,226,129,129,129,226,226,226,226,129,226,129,226,226,226,226,129,129,226,129,226,129,129,226,129,129,129,129,226,226,226,226,129,226,226,129,129,226,226,129,226,129,129,129,226,226,129,226,129,226,129,226,226,129,226,129,129,129,129,226,129,226,129,129,129,226,129,226,129,226,226,226,129,129,226,226,226,129,226,226,226,226,226,226,129,129,129,129,129,226,226,226,129,129,226,129,226,226,226,226,129,129,129,129,129,226,226,129,226,129,129,226,129,226,129,226,129,129,226,129,226,129,226,129,129,129,129,129,129,129,129,129,226,129,226,129,226,129,129,129,226,129,226,129,226,226,129,129,226,226,226,226,226,129,129,226,129,226,226,129,129,226,129,226,226,129,226,129,226,129,129,226,226,129,226,226,226,129,226,226,129,129,129,129,129,226],"coherence":1,"opposite_coherence":0,"dot_radius":2,"dot_side_length":1,"dot_life":-1,"move_distance":1,"aperture_width":300,"aperture_height":300,"dot_color":["white","black","white","black","white","black","white","white","black","white","black","white","white","white","white","white","black","black","black","white","white","white","white","black","white","black","white","white","white","white","black","black","white","black","white","black","black","white","black","black","black","black","white","white","white","white","black","white","white","black","black","white","white","black","white","black","black","black","white","white","black","white","black","white","black","white","white","black","white","black","black","black","black","white","black","white","black","black","black","white","black","white","black","white","white","white","black","black","white","white","white","black","white","white","white","white","white","white","black","black","black","black","black","white","white","white","black","black","white","black","white","white","white","white","black","black","black","black","black","white","white","black","white","black","black","white","black","white","black","white","black","black","white","black","white","black","white","black","black","black","black","black","black","black","black","black","white","black","white","black","white","black","black","black","white","black","white","black","white","white","black","black","white","white","white","white","white","black","black","white","black","white","white","black","black","white","black","white","white","black","white","black","white","black","black","white","white","black","white","white","white","black","white","white","black","black","black","black","black","white"],"dot_shape":"circle","background_color":"#AAA","RDK_type":3,"aperture_type":2,"reinsert_type":2,"frame_rate":16.85,"frame_rate_array":[15,16,17,17,17,17,18,15,17,16,17,17,17,17,17,17,17,17,17,17,16,16,17,17,17,17,17,17,17,17,17,17,17,17,17,17,17,17,16,17,17,17,17,16,17,17,17,17,17,17,17,17,16,17,17,16,17,17,16,17,17,18,16,17,17,17,17,17,16,17,17,17,17,17,17,17,17,17,17,17,17,17,17,16,17,17,17,17,17,17,17,17,17,17,17,17,17,17,16,17,16,17,17,17,17,17,17,17,17,17,17,17,17,17,16,17,17,17,17,16],"number_of_frames":120,"aperture_center_x":683,"aperture_center_y":384,"fixation_cross":true,"fixation_cross_width":15,"fixation_cross_height":15,"fixation_cross_color":"#111","fixation_cross_thickness":1,"border":true,"border_thickness":2,"border_color":"transparent","canvas_width":1366,"canvas_height":768,"trial_type":"rdk","trial_index":84,"plugin_version":"2.0.0","time_elapsed":250201},{"rt":3318,"stimulus":"\n        <div class=\"response-container\">\n          <div class=\"response-instruction\">\n            <p>rotate the bar by using the left and right arrow keys.</p>\n            <p>when you are determined, press the Enter key.</p>\n          </div>\n          <div class=\"response-circle\">\n            <div class=\"response-fixation\"></div>\n            <div id=\"bar\" class=\"rotating-bar\"></div>\n          </div>\n        </div>\n      ","response":"Enter","trial_type":"html-keyboard-response","trial_index":85,"plugin_version":"2.1.0","time_elapsed":253520,"random_initial_angle":45,"response_angle_css":-55,"response_angle_rdk":145,"angular_error_target":-81,"angular_error_distractor":16,"target_direction":226,"target_group":"white","reward_points":0},{"rt":null,"stimulus":"\n          <p style=\"color: #FF3333;\">Your reward: 0 points</p>\n        ","response":null,"trial_type":"html-keyboard-response","trial_index":86,"plugin_version":"2.1.0","time_elapsed":255526},{"rt":null,"stimulus":"<div class=\"fixation\" style=\"font-size: 60px;\">+</div>","response":null,"trial_type":"html-keyboard-response","trial_index":87,"plugin_version":"2.1.0","time_elapsed":256543},{"phase":"learning-awareness","target_group":"white","condition_label":"W_H_vs_B_L_rep19","target_direction":241,"distractor_direction":124,"session_rotation":212,"rt":-1,"response":"","correct":false,"choices":"ALL_KEYS","correct_choice":["a"],"trial_duration":2000,"flip_timestamps":[],"response_ends_trial":false,"number_of_apertures":200,"number_of_dots":[1,1,1,1,1,1,1,1,1,1,1,1,1,1,1,1,1,1,1,1,1,1,1,1,1,1,1,1,1,1,1,1,1,1,1,1,1,1,1,1,1,1,1,1,1,1,1,1,1,1,1,1,1,1,1,1,1,1,1,1,1,1,1,1,1,1,1,1,1,1,1,1,1,1,1,1,1,1,1,1,1,1,1,1,1,1,1,1,1,1,1,1,1,1,1,1,1,1,1,1,1,1,1,1,1,1,1,1,1,1,1,1,1,1,1,1,1,1,1,1,1,1,1,1,1,1,1,1,1,1,1,1,1,1,1,1,1,1,1,1,1,1,1,1,1,1,1,1,1,1,1,1,1,1,1,1,1,1,1,1,1,1,1,1,1,1,1,1,1,1,1,1,1,1,1,1,1,1,1,1,1,1,1,1,1,1,1,1,1,1,1,1,1,1,1,1,1,1,1,1],"number_of_sets":1,"coherent_direction":[241,124,124,241,124,124,124,241,124,241,241,124,124,124,124,241,124,241,124,124,124,241,241,124,241,241,124,124,241,241,124,241,241,124,241,241,241,241,124,241,124,241,241,241,241,124,124,241,124,124,124,241,124,124,241,124,124,124,241,124,124,241,241,241,241,241,124,124,241,124,241,241,241,124,124,124,241,241,124,124,124,241,241,124,241,241,124,124,124,241,241,241,124,124,124,124,241,241,124,124,124,241,241,241,241,124,124,124,124,241,124,124,124,124,241,241,241,124,124,241,124,124,124,241,124,241,124,241,241,124,241,241,241,241,241,241,124,124,124,124,241,241,124,124,241,124,124,241,241,124,124,241,124,241,241,124,124,241,241,124,241,124,241,241,241,241,241,241,124,241,241,241,241,241,124,124,124,124,241,241,241,124,241,241,124,124,124,124,124,124,241,241,124,124,241,241,124,241,241,124],"coherence":1,"opposite_coherence":0,"dot_radius":2,"dot_side_length":1,"dot_life":-1,"move_distance":1,"aperture_width":300,"aperture_height":300,"dot_color":["white","black","black","white","black","black","black","white","black","white","white","black","black","black","black","white","black","white","black","black","black","white","white","black","white","white","black","black","white","white","black","white","white","black","white","white","white","white","black","white","black","white","white","white","white","black","black","white","black","black","black","white","black","black","white","black","black","black","white","black","black","white","white","white","white","white","black","black","white","black","white","white","white","black","black","black","white","white","black","black","black","white","white","black","white","white","black","black","black","white","white","white","black","black","black","black","white","white","black","black","black","white","white","white","white","black","black","black","black","white","black","black","black","black","white","white","white","black","black","white","black","black","black","white","black","white","black","white","white","black","white","white","white","white","white","white","black","black","black","black","white","white","black","black","white","black","black","white","white","black","black","white","black","white","white","black","black","white","white","black","white","black","white","white","white","white","white","white","black","white","white","white","white","white","black","black","black","black","white","white","white","black","white","white","black","black","black","black","black","black","white","white","black","black","white","white","black","white","white","black"],"dot_shape":"circle","background_color":"#AAA","RDK_type":3,"aperture_type":2,"reinsert_type":2,"frame_rate":16.60330578512397,"frame_rate_array":[4,11,16,17,17,17,17,17,17,17,16,17,17,17,17,16,18,17,17,17,17,17,17,16,16,17,17,17,18,16,17,18,16,17,17,17,16,16,17,17,16,17,17,16,17,16,18,16,17,17,17,16,16,17,17,17,16,16,17,17,17,17,17,17,17,17,17,17,17,15,17,17,17,17,17,17,17,17,16,18,16,18,17,15,15,17,17,17,17,17,17,17,17,16,16,17,17,18,16,17,17,17,17,16,17,17,17,16,17,17,17,16,16,17,17,16,15,17,17,16,17],"number_of_frames":121,"aperture_center_x":683,"aperture_center_y":384,"fixation_cross":true,"fixation_cross_width":15,"fixation_cross_height":15,"fixation_cross_color":"#111","fixation_cross_thickness":1,"border":true,"border_thickness":2,"border_color":"transparent","canvas_width":1366,"canvas_height":768,"trial_type":"rdk","trial_index":88,"plugin_version":"2.0.0","time_elapsed":258559},{"rt":2744,"stimulus":"\n        <div class=\"response-container\">\n          <div class=\"response-instruction\">\n            <p>rotate the bar by using the left and right arrow keys.</p>\n            <p>when you are determined, press the Enter key.</p>\n          </div>\n          <div class=\"response-circle\">\n            <div class=\"response-fixation\"></div>\n            <div id=\"bar\" class=\"rotating-bar\"></div>\n          </div>\n        </div>\n      ","response":"Enter","trial_type":"html-keyboard-response","trial_index":89,"plugin_version":"2.1.0","time_elapsed":261304,"random_initial_angle":2,"response_angle_css":-39,"response_angle_rdk":129,"angular_error_target":-112,"angular_error_distractor":5,"target_direction":241,"target_group":"white","reward_points":0},{"rt":null,"stimulus":"\n          <p style=\"color: #FF3333;\">Your reward: 0 points</p>\n        ","response":null,"trial_type":"html-keyboard-response","trial_index":90,"plugin_version":"2.1.0","time_elapsed":263308},{"rt":null,"stimulus":"<div class=\"fixation\" style=\"font-size: 60px;\">+</div>","response":null,"trial_type":"html-keyboard-response","trial_index":91,"plugin_version":"2.1.0","time_elapsed":264318},{"phase":"learning-awareness","target_group":"white","condition_label":"W_H_vs_B_L_rep14","target_direction":234,"distractor_direction":131,"session_rotation":212,"rt":-1,"response":"","correct":false,"choices":"ALL_KEYS","correct_choice":["a"],"trial_duration":2000,"flip_timestamps":[],"response_ends_trial":false,"number_of_apertures":200,"number_of_dots":[1,1,1,1,1,1,1,1,1,1,1,1,1,1,1,1,1,1,1,1,1,1,1,1,1,1,1,1,1,1,1,1,1,1,1,1,1,1,1,1,1,1,1,1,1,1,1,1,1,1,1,1,1,1,1,1,1,1,1,1,1,1,1,1,1,1,1,1,1,1,1,1,1,1,1,1,1,1,1,1,1,1,1,1,1,1,1,1,1,1,1,1,1,1,1,1,1,1,1,1,1,1,1,1,1,1,1,1,1,1,1,1,1,1,1,1,1,1,1,1,1,1,1,1,1,1,1,1,1,1,1,1,1,1,1,1,1,1,1,1,1,1,1,1,1,1,1,1,1,1,1,1,1,1,1,1,1,1,1,1,1,1,1,1,1,1,1,1,1,1,1,1,1,1,1,1,1,1,1,1,1,1,1,1,1,1,1,1,1,1,1,1,1,1,1,1,1,1,1,1],"number_of_sets":1,"coherent_direction":[234,234,131,131,131,131,234,234,234,234,234,131,131,234,234,234,234,131,131,234,131,234,131,131,234,131,234,234,234,131,234,234,234,234,234,234,234,234,131,131,131,234,131,234,234,131,234,234,131,234,131,234,131,131,234,234,131,131,234,131,234,234,131,234,234,131,131,234,234,131,131,234,131,234,234,131,234,234,131,131,234,234,131,131,131,234,131,131,234,131,234,234,234,131,131,234,131,234,234,234,131,131,131,131,234,131,131,234,131,131,131,234,131,234,131,234,131,131,234,131,234,234,131,234,234,131,234,234,131,234,234,131,131,234,131,234,234,131,131,234,131,131,131,234,234,131,131,131,234,234,131,131,234,234,131,131,234,131,131,234,234,131,131,131,131,234,234,131,234,131,234,131,234,131,131,131,131,234,131,131,234,131,131,234,131,131,234,234,234,234,131,234,131,131,131,131,234,234,234,131],"coherence":1,"opposite_coherence":0,"dot_radius":2,"dot_side_length":1,"dot_life":-1,"move_distance":1,"aperture_width":300,"aperture_height":300,"dot_color":["white","white","black","black","black","black","white","white","white","white","white","black","black","white","white","white","white","black","black","white","black","white","black","black","white","black","white","white","white","black","white","white","white","white","white","white","white","white","black","black","black","white","black","white","white","black","white","white","black","white","black","white","black","black","white","white","black","black","white","black","white","white","black","white","white","black","black","white","white","black","black","white","black","white","white","black","white","white","black","black","white","white","black","black","black","white","black","black","white","black","white","white","white","black","black","white","black","white","white","white","black","black","black","black","white","black","black","white","black","black","black","white","black","white","black","white","black","black","white","black","white","white","black","white","white","black","white","white","black","white","white","black","black","white","black","white","white","black","black","white","black","black","black","white","white","black","black","black","white","white","black","black","white","white","black","black","white","black","black","white","white","black","black","black","black","white","white","black","white","black","white","black","white","black","black","black","black","white","black","black","white","black","black","white","black","black","white","white","white","white","black","white","black","black","black","black","white","white","white","black"],"dot_shape":"circle","background_color":"#AAA","RDK_type":3,"aperture_type":2,"reinsert_type":2,"frame_rate":16.578512396694215,"frame_rate_array":[5,9,16,17,17,16,17,16,17,17,17,17,18,16,17,17,17,16,17,16,18,16,17,17,18,17,16,15,16,17,17,17,17,17,19,17,17,15,16,16,17,17,17,19,16,18,17,17,15,15,17,16,17,16,17,18,18,18,15,18,17,15,18,17,17,16,17,18,17,15,16,19,16,17,17,16,16,17,16,17,17,15,17,17,17,17,17,17,16,18,17,16,16,18,16,16,17,16,17,16,18,17,15,16,16,17,17,17,18,17,17,17,17,14,16,16,17,18,16,18,17],"number_of_frames":121,"aperture_center_x":683,"aperture_center_y":384,"fixation_cross":true,"fixation_cross_width":15,"fixation_cross_height":15,"fixation_cross_color":"#111","fixation_cross_thickness":1,"border":true,"border_thickness":2,"border_color":"transparent","canvas_width":1366,"canvas_height":768,"trial_type":"rdk","trial_index":92,"plugin_version":"2.0.0","time_elapsed":266324},{"rt":4040,"stimulus":"\n        <div class=\"response-container\">\n          <div class=\"response-instruction\">\n            <p>rotate the bar by using the left and right arrow keys.</p>\n            <p>when you are determined, press the Enter key.</p>\n          </div>\n          <div class=\"response-circle\">\n            <div class=\"response-fixation\"></div>\n            <div id=\"bar\" class=\"rotating-bar\"></div>\n          </div>\n        </div>\n      ","response":"Enter","trial_type":"html-keyboard-response","trial_index":93,"plugin_version":"2.1.0","time_elapsed":270365,"random_initial_angle":259,"response_angle_css":335,"response_angle_rdk":115,"angular_error_target":-119,"angular_error_distractor":-16,"target_direction":234,"target_group":"white","reward_points":0},{"rt":null,"stimulus":"\n          <p style=\"color: #FF3333;\">Your reward: 0 points</p>\n        ","response":null,"trial_type":"html-keyboard-response","trial_index":94,"plugin_version":"2.1.0","time_elapsed":272375},{"rt":null,"stimulus":"<div class=\"fixation\" style=\"font-size: 60px;\">+</div>","response":null,"trial_type":"html-keyboard-response","trial_index":95,"plugin_version":"2.1.0","time_elapsed":273386},{"phase":"learning-awareness","target_group":"black","condition_label":"B_H_vs_W_L_rep5","target_direction":340,"distractor_direction":70,"session_rotation":212,"rt":-1,"response":"","correct":false,"choices":"ALL_KEYS","correct_choice":["a"],"trial_duration":2000,"flip_timestamps":[],"response_ends_trial":false,"number_of_apertures":200,"number_of_dots":[1,1,1,1,1,1,1,1,1,1,1,1,1,1,1,1,1,1,1,1,1,1,1,1,1,1,1,1,1,1,1,1,1,1,1,1,1,1,1,1,1,1,1,1,1,1,1,1,1,1,1,1,1,1,1,1,1,1,1,1,1,1,1,1,1,1,1,1,1,1,1,1,1,1,1,1,1,1,1,1,1,1,1,1,1,1,1,1,1,1,1,1,1,1,1,1,1,1,1,1,1,1,1,1,1,1,1,1,1,1,1,1,1,1,1,1,1,1,1,1,1,1,1,1,1,1,1,1,1,1,1,1,1,1,1,1,1,1,1,1,1,1,1,1,1,1,1,1,1,1,1,1,1,1,1,1,1,1,1,1,1,1,1,1,1,1,1,1,1,1,1,1,1,1,1,1,1,1,1,1,1,1,1,1,1,1,1,1,1,1,1,1,1,1,1,1,1,1,1,1],"number_of_sets":1,"coherent_direction":[340,70,70,340,70,340,70,70,70,70,340,340,340,70,70,340,340,340,340,70,340,70,340,340,70,340,340,70,340,70,70,70,70,70,340,70,70,70,340,340,340,340,340,70,340,70,340,70,70,70,70,340,70,340,70,340,340,340,70,340,340,340,70,70,70,340,70,340,70,340,340,340,340,340,340,340,70,70,70,340,340,70,70,340,340,70,340,70,340,70,340,340,70,340,340,340,70,340,340,340,340,340,340,70,340,70,70,70,340,340,340,70,340,340,70,70,340,70,340,70,340,70,70,70,70,70,70,70,340,340,70,70,70,70,340,340,70,70,340,70,340,70,340,340,70,70,340,340,340,340,340,70,340,340,340,70,70,70,340,340,340,70,70,340,70,70,70,70,340,340,70,70,340,340,70,340,340,340,70,340,70,70,70,70,340,70,70,340,340,70,340,70,70,340,70,70,70,70,70,70],"coherence":1,"opposite_coherence":0,"dot_radius":2,"dot_side_length":1,"dot_life":-1,"move_distance":1,"aperture_width":300,"aperture_height":300,"dot_color":["black","white","white","black","white","black","white","white","white","white","black","black","black","white","white","black","black","black","black","white","black","white","black","black","white","black","black","white","black","white","white","white","white","white","black","white","white","white","black","black","black","black","black","white","black","white","black","white","white","white","white","black","white","black","white","black","black","black","white","black","black","black","white","white","white","black","white","black","white","black","black","black","black","black","black","black","white","white","white","black","black","white","white","black","black","white","black","white","black","white","black","black","white","black","black","black","white","black","black","black","black","black","black","white","black","white","white","white","black","black","black","white","black","black","white","white","black","white","black","white","black","white","white","white","white","white","white","white","black","black","white","white","white","white","black","black","white","white","black","white","black","white","black","black","white","white","black","black","black","black","black","white","black","black","black","white","white","white","black","black","black","white","white","black","white","white","white","white","black","black","white","white","black","black","white","black","black","black","white","black","white","white","white","white","black","white","white","black","black","white","black","white","white","black","white","white","white","white","white","white"],"dot_shape":"circle","background_color":"#AAA","RDK_type":3,"aperture_type":2,"reinsert_type":2,"frame_rate":16.7,"frame_rate_array":[5,17,17,17,17,17,17,17,17,17,16,16,17,17,17,17,17,17,17,18,15,17,16,17,17,17,17,17,17,17,17,17,17,16,17,17,17,16,17,16,18,16,15,17,17,17,17,17,17,17,17,17,16,16,17,17,17,17,17,17,17,16,17,17,17,17,17,17,17,17,16,17,17,17,17,17,17,17,17,17,17,17,17,17,17,16,17,16,16,17,17,17,17,17,16,17,16,17,17,16,17,17,16,17,17,16,17,17,17,17,17,17,17,16,17,17,16,17,16,17],"number_of_frames":120,"aperture_center_x":683,"aperture_center_y":384,"fixation_cross":true,"fixation_cross_width":15,"fixation_cross_height":15,"fixation_cross_color":"#111","fixation_cross_thickness":1,"border":true,"border_thickness":2,"border_color":"transparent","canvas_width":1366,"canvas_height":768,"trial_type":"rdk","trial_index":96,"plugin_version":"2.0.0","time_elapsed":275393},{"rt":3278,"stimulus":"\n        <div class=\"response-container\">\n          <div class=\"response-instruction\">\n            <p>rotate the bar by using the left and right arrow keys.</p>\n            <p>when you are determined, press the Enter key.</p>\n          </div>\n          <div class=\"response-circle\">\n            <div class=\"response-fixation\"></div>\n            <div id=\"bar\" class=\"rotating-bar\"></div>\n          </div>\n        </div>\n      ","response":"Enter","trial_type":"html-keyboard-response","trial_index":97,"plugin_version":"2.1.0","time_elapsed":278672,"random_initial_angle":208,"response_angle_css":113,"response_angle_rdk":337,"angular_error_target":-3,"angular_error_distractor":-93,"target_direction":340,"target_group":"black","reward_points":9},{"rt":null,"stimulus":"\n          <p style=\"color: #00FF00;\">Your reward: 9 points</p>\n        ","response":null,"trial_type":"html-keyboard-response","trial_index":98,"plugin_version":"2.1.0","time_elapsed":280683},{"rt":null,"stimulus":"<div class=\"fixation\" style=\"font-size: 60px;\">+</div>","response":null,"trial_type":"html-keyboard-response","trial_index":99,"plugin_version":"2.1.0","time_elapsed":281699},{"phase":"learning-awareness","target_group":"white","condition_label":"W_H_vs_B_L_rep16","target_direction":237,"distractor_direction":133,"session_rotation":212,"rt":-1,"response":"","correct":false,"choices":"ALL_KEYS","correct_choice":["a"],"trial_duration":2000,"flip_timestamps":[],"response_ends_trial":false,"number_of_apertures":200,"number_of_dots":[1,1,1,1,1,1,1,1,1,1,1,1,1,1,1,1,1,1,1,1,1,1,1,1,1,1,1,1,1,1,1,1,1,1,1,1,1,1,1,1,1,1,1,1,1,1,1,1,1,1,1,1,1,1,1,1,1,1,1,1,1,1,1,1,1,1,1,1,1,1,1,1,1,1,1,1,1,1,1,1,1,1,1,1,1,1,1,1,1,1,1,1,1,1,1,1,1,1,1,1,1,1,1,1,1,1,1,1,1,1,1,1,1,1,1,1,1,1,1,1,1,1,1,1,1,1,1,1,1,1,1,1,1,1,1,1,1,1,1,1,1,1,1,1,1,1,1,1,1,1,1,1,1,1,1,1,1,1,1,1,1,1,1,1,1,1,1,1,1,1,1,1,1,1,1,1,1,1,1,1,1,1,1,1,1,1,1,1,1,1,1,1,1,1,1,1,1,1,1,1],"number_of_sets":1,"coherent_direction":[133,237,133,237,237,237,237,133,237,133,237,133,237,237,133,237,237,133,133,133,133,133,133,237,133,133,133,133,133,237,237,133,133,237,133,133,237,237,237,237,237,133,133,237,133,133,133,133,237,133,133,133,237,133,237,237,133,133,237,133,133,237,237,133,133,237,237,133,237,237,237,237,133,133,237,133,133,133,237,237,237,133,133,237,237,237,133,237,133,237,133,133,237,133,237,133,133,133,237,237,133,133,237,237,133,133,133,133,133,133,133,237,237,133,133,237,237,237,237,133,133,237,237,133,237,133,237,237,237,237,133,237,133,133,237,237,237,133,133,133,133,237,133,133,237,237,237,237,237,237,237,237,237,133,237,133,133,237,133,133,237,133,133,133,237,133,133,133,133,237,133,237,133,133,237,133,133,237,237,237,133,237,237,237,237,237,133,237,133,237,237,237,237,237,237,237,133,237,133,133],"coherence":1,"opposite_coherence":0,"dot_radius":2,"dot_side_length":1,"dot_life":-1,"move_distance":1,"aperture_width":300,"aperture_height":300,"dot_color":["black","white","black","white","white","white","white","black","white","black","white","black","white","white","black","white","white","black","black","black","black","black","black","white","black","black","black","black","black","white","white","black","black","white","black","black","white","white","white","white","white","black","black","white","black","black","black","black","white","black","black","black","white","black","white","white","black","black","white","black","black","white","white","black","black","white","white","black","white","white","white","white","black","black","white","black","black","black","white","white","white","black","black","white","white","white","black","white","black","white","black","black","white","black","white","black","black","black","white","white","black","black","white","white","black","black","black","black","black","black","black","white","white","black","black","white","white","white","white","black","black","white","white","black","white","black","white","white","white","white","black","white","black","black","white","white","white","black","black","black","black","white","black","black","white","white","white","white","white","white","white","white","white","black","white","black","black","white","black","black","white","black","black","black","white","black","black","black","black","white","black","white","black","black","white","black","black","white","white","white","black","white","white","white","white","white","black","white","black","white","white","white","white","white","white","white","black","white","black","black"],"dot_shape":"circle","background_color":"#AAA","RDK_type":3,"aperture_type":2,"reinsert_type":2,"frame_rate":16.59504132231405,"frame_rate_array":[5,14,18,16,16,17,15,17,18,15,17,18,17,15,17,17,17,18,16,17,16,17,16,18,17,15,16,17,17,17,17,18,18,16,17,18,17,16,15,16,16,17,18,18,16,17,16,17,17,16,17,16,18,15,17,17,18,16,15,15,17,16,17,17,17,18,17,17,16,18,16,15,16,17,17,16,18,16,17,18,15,17,17,17,17,16,17,18,17,17,16,15,17,17,17,16,18,17,16,17,17,17,15,16,17,17,17,16,17,16,17,18,17,16,17,17,17,17,16,18,17],"number_of_frames":121,"aperture_center_x":683,"aperture_center_y":384,"fixation_cross":true,"fixation_cross_width":15,"fixation_cross_height":15,"fixation_cross_color":"#111","fixation_cross_thickness":1,"border":true,"border_thickness":2,"border_color":"transparent","canvas_width":1366,"canvas_height":768,"trial_type":"rdk","trial_index":100,"plugin_version":"2.0.0","time_elapsed":283707},{"rt":3930,"stimulus":"\n        <div class=\"response-container\">\n          <div class=\"response-instruction\">\n            <p>rotate the bar by using the left and right arrow keys.</p>\n            <p>when you are determined, press the Enter key.</p>\n          </div>\n          <div class=\"response-circle\">\n            <div class=\"response-fixation\"></div>\n            <div id=\"bar\" class=\"rotating-bar\"></div>\n          </div>\n        </div>\n      ","response":"Enter","trial_type":"html-keyboard-response","trial_index":101,"plugin_version":"2.1.0","time_elapsed":287639,"random_initial_angle":97,"response_angle_css":-60,"response_angle_rdk":150,"angular_error_target":-87,"angular_error_distractor":17,"target_direction":237,"target_group":"white","reward_points":0},{"rt":null,"stimulus":"\n          <p style=\"color: #FF3333;\">Your reward: 0 points</p>\n        ","response":null,"trial_type":"html-keyboard-response","trial_index":102,"plugin_version":"2.1.0","time_elapsed":289652},{"rt":null,"stimulus":"<div class=\"fixation\" style=\"font-size: 60px;\">+</div>","response":null,"trial_type":"html-keyboard-response","trial_index":103,"plugin_version":"2.1.0","time_elapsed":290668},{"phase":"learning-awareness","target_group":"white","condition_label":"W_H_vs_B_L_rep5","target_direction":235,"distractor_direction":124,"session_rotation":212,"rt":-1,"response":"","correct":false,"choices":"ALL_KEYS","correct_choice":["a"],"trial_duration":2000,"flip_timestamps":[],"response_ends_trial":false,"number_of_apertures":200,"number_of_dots":[1,1,1,1,1,1,1,1,1,1,1,1,1,1,1,1,1,1,1,1,1,1,1,1,1,1,1,1,1,1,1,1,1,1,1,1,1,1,1,1,1,1,1,1,1,1,1,1,1,1,1,1,1,1,1,1,1,1,1,1,1,1,1,1,1,1,1,1,1,1,1,1,1,1,1,1,1,1,1,1,1,1,1,1,1,1,1,1,1,1,1,1,1,1,1,1,1,1,1,1,1,1,1,1,1,1,1,1,1,1,1,1,1,1,1,1,1,1,1,1,1,1,1,1,1,1,1,1,1,1,1,1,1,1,1,1,1,1,1,1,1,1,1,1,1,1,1,1,1,1,1,1,1,1,1,1,1,1,1,1,1,1,1,1,1,1,1,1,1,1,1,1,1,1,1,1,1,1,1,1,1,1,1,1,1,1,1,1,1,1,1,1,1,1,1,1,1,1,1,1],"number_of_sets":1,"coherent_direction":[235,235,124,124,235,124,235,124,235,235,124,235,235,124,235,124,235,235,235,124,235,235,235,124,124,235,124,235,124,235,235,124,235,124,235,235,235,235,124,124,124,124,235,235,124,124,124,235,235,235,235,124,235,124,235,235,124,235,235,124,235,235,124,235,124,235,124,235,124,124,235,124,124,235,124,235,124,124,235,235,235,124,235,235,235,124,235,124,235,124,124,124,235,124,235,124,235,124,235,235,235,235,124,124,124,235,235,235,124,235,235,124,124,235,124,235,124,235,235,124,124,235,124,235,124,124,124,124,124,235,235,235,235,235,235,124,124,235,124,124,235,124,124,124,124,124,124,124,235,124,235,124,235,235,235,235,124,124,235,235,235,124,235,235,235,124,124,124,124,124,124,235,124,124,235,124,235,124,124,235,124,235,124,235,124,124,124,235,124,235,235,235,124,124,124,124,124,124,124,235],"coherence":1,"opposite_coherence":0,"dot_radius":2,"dot_side_length":1,"dot_life":-1,"move_distance":1,"aperture_width":300,"aperture_height":300,"dot_color":["white","white","black","black","white","black","white","black","white","white","black","white","white","black","white","black","white","white","white","black","white","white","white","black","black","white","black","white","black","white","white","black","white","black","white","white","white","white","black","black","black","black","white","white","black","black","black","white","white","white","white","black","white","black","white","white","black","white","white","black","white","white","black","white","black","white","black","white","black","black","white","black","black","white","black","white","black","black","white","white","white","black","white","white","white","black","white","black","white","black","black","black","white","black","white","black","white","black","white","white","white","white","black","black","black","white","white","white","black","white","white","black","black","white","black","white","black","white","white","black","black","white","black","white","black","black","black","black","black","white","white","white","white","white","white","black","black","white","black","black","white","black","black","black","black","black","black","black","white","black","white","black","white","white","white","white","black","black","white","white","white","black","white","white","white","black","black","black","black","black","black","white","black","black","white","black","white","black","black","white","black","white","black","white","black","black","black","white","black","white","white","white","black","black","black","black","black","black","black","white"],"dot_shape":"circle","background_color":"#AAA","RDK_type":3,"aperture_type":2,"reinsert_type":2,"frame_rate":16.725,"frame_rate_array":[6,17,17,17,17,17,17,16,17,17,17,16,17,17,17,16,17,16,17,17,16,17,17,17,17,16,17,17,17,17,16,17,17,17,16,16,17,17,17,17,17,17,16,17,17,17,17,17,17,17,17,17,17,17,17,16,17,17,17,16,17,17,17,17,17,17,16,17,16,17,17,17,17,17,16,17,17,18,17,16,17,16,17,17,17,17,17,17,16,16,17,17,17,16,17,17,17,17,17,16,17,17,16,17,19,17,16,16,16,17,17,17,17,17,17,17,17,17,17,17],"number_of_frames":120,"aperture_center_x":683,"aperture_center_y":384,"fixation_cross":true,"fixation_cross_width":15,"fixation_cross_height":15,"fixation_cross_color":"#111","fixation_cross_thickness":1,"border":true,"border_thickness":2,"border_color":"transparent","canvas_width":1366,"canvas_height":768,"trial_type":"rdk","trial_index":104,"plugin_version":"2.0.0","time_elapsed":292676},{"rt":3063,"stimulus":"\n        <div class=\"response-container\">\n          <div class=\"response-instruction\">\n            <p>rotate the bar by using the left and right arrow keys.</p>\n            <p>when you are determined, press the Enter key.</p>\n          </div>\n          <div class=\"response-circle\">\n            <div class=\"response-fixation\"></div>\n            <div id=\"bar\" class=\"rotating-bar\"></div>\n          </div>\n        </div>\n      ","response":"Enter","trial_type":"html-keyboard-response","trial_index":105,"plugin_version":"2.1.0","time_elapsed":295741,"random_initial_angle":152,"response_angle_css":221,"response_angle_rdk":229,"angular_error_target":-6,"angular_error_distractor":105,"target_direction":235,"target_group":"white","reward_points":8},{"rt":null,"stimulus":"\n          <p style=\"color: #00FF00;\">Your reward: 8 points</p>\n        ","response":null,"trial_type":"html-keyboard-response","trial_index":106,"plugin_version":"2.1.0","time_elapsed":297745},{"rt":null,"stimulus":"<div