[{"rt":2448,"stimulus":"Welcome to the experiment. Press any key to begin.","response":" ","trial_type":"html-keyboard-response","trial_index":0,"plugin_version":"2.1.0","time_elapsed":2452},{"rt":67786,"stimulus":"\n        <div class=\"instructions-container\">\n          <h2>Instructions</h2>\n\n          <p>\n          In this experiment, you will see <strong>two Random Dot Kinematograms (RDKs)</strong> displayed simultaneously.\n          </p>\n\n          <p>\n          An RDK is a visual stimulus consisting of many small dots that move coherently in a single direction. \n          In this experiment, the dots will be either <strong>white</strong> or <strong>black</strong> \n          (see the short demo below for an example of an RDK stimulus).\n          </p>\n\n          <p>\n          On each trial, the two RDKs will move in different directions. \n          Your task is to decide <strong>which RDK appears to contain more dots</strong>.\n          </p>\n\n          <p>\n          The RDK that you judge to have more dots is called the <strong>target RDK</strong>. \n          For example, if the white RDK appears to have more dots than the black RDK, \n          you should report the motion direction of the white RDK.\n          </p>\n\n          <p>\n          After viewing the RDKs, you will rotate a bar to indicate the perceived direction of the target RDK \n          using the <strong>left</strong> and <strong>right arrow keys</strong>. \n          Press <strong>Enter</strong> when you are satisfied with your response.\n          </p>\n\n          <p>\n          You will receive points based on the <strong>accuracy of your response</strong>, \n          and your final <strong>bonus reward</strong> may depend on your overall performance. \n          Please try to respond as accurately as possible.\n          </p>\n\n          <p>\n          You will first complete <strong>16 practice trials</strong>. \n          Press the <strong>Enter</strong> key to start the practice phase.\n          </p>\n\n          <canvas id=\"instruction-demo-rdk\" width=\"200\" height=\"200\"style=\"display:block;margin:12px auto; border-radius: 50%;\"></canvas>\n        </div>\n      ","response":"Enter","trial_type":"html-keyboard-response","trial_index":1,"plugin_version":"2.1.0","time_elapsed":70245},{"rt":null,"stimulus":"<div class=\"fixation\" style=\"font-size: 60px;\">+</div>","response":null,"trial_type":"html-keyboard-response","trial_index":2,"plugin_version":"2.1.0","time_elapsed":71253},{"target_group":"white","target_index":0,"condition_label":"practice","rt":-1,"response":"","correct":false,"choices":"ALL_KEYS","correct_choice":["a"],"trial_duration":2000,"flip_timestamps":[],"response_ends_trial":false,"number_of_apertures":2,"number_of_dots":[100,86],"number_of_sets":1,"coherent_direction":[357,95],"coherence":1,"opposite_coherence":0,"dot_radius":2,"dot_side_length":1,"dot_life":-1,"move_distance":1,"aperture_width":300,"aperture_height":300,"dot_color":["white","black"],"dot_shape":"circle","background_color":"#AAA","RDK_type":3,"aperture_type":2,"reinsert_type":2,"frame_rate":16.5,"frame_rate_array":[4,5,17,17,17,17,16,16,17,18,15,16,18,16,17,16,16,18,17,16,18,15,17,16,17,19,14,16,17,16,18,16,18,16,16,17,17,17,17,16,17,18,17,18,16,16,17,17,16,17,16,17,16,18,17,16,16,17,17,17,16,17,18,16,17,16,17,16,17,17,18,16,17,18,16,17,16,17,16,18,16,19,16,16,17,16,17,16,17,17,17,16,17,16,17,17,16,17,15,17,18,16,17,16,17,17,17,16,17,16,16,18,16,17,17,16,17,17],"number_of_frames":118,"aperture_center_x":768,"aperture_center_y":432,"fixation_cross":true,"fixation_cross_width":15,"fixation_cross_height":15,"fixation_cross_color":"#111","fixation_cross_thickness":1,"border":true,"border_thickness":2,"border_color":"transparent","canvas_width":1536,"canvas_height":864,"trial_type":"rdk","trial_index":3,"plugin_version":"2.0.0","time_elapsed":73262,"target_direction":357,"distractor_direction":95},{"rt":6555,"stimulus":"\n        <div class=\"response-container\">\n          <div class=\"response-instruction\">\n            <p>rotate the bar by using the left and right arrow keys.</p>\n            <p>when you are determined, press the Enter key.</p>\n          </div>\n          <div class=\"response-circle\">\n            <div class=\"response-fixation\"></div>\n            <div id=\"bar\" class=\"rotating-bar\"></div>\n          </div>\n        </div>\n      ","response":"Enter","trial_type":"html-keyboard-response","trial_index":4,"plugin_version":"2.1.0","time_elapsed":79820,"random_initial_angle":210,"response_angle_css":239,"response_angle_rdk":211,"angular_error_target":-146,"angular_error_distractor":116,"target_direction":357,"target_group":"white","reward_points":0},{"rt":null,"stimulus":"\n          <p style=\"color: #FF3333;\">Your reward: 0 points</p>\n        ","response":null,"trial_type":"html-keyboard-response","trial_index":5,"plugin_version":"2.1.0","time_elapsed":81825},{"rt":null,"stimulus":"<div class=\"fixation\" style=\"font-size: 60px;\">+</div>","response":null,"trial_type":"html-keyboard-response","trial_index":6,"plugin_version":"2.1.0","time_elapsed":82836},{"target_group":"black","target_index":1,"condition_label":"practice","rt":-1,"response":"","correct":false,"choices":"ALL_KEYS","correct_choice":["a"],"trial_duration":2000,"flip_timestamps":[],"response_ends_trial":false,"number_of_apertures":2,"number_of_dots":[81,100],"number_of_sets":1,"coherent_direction":[70,300],"coherence":1,"opposite_coherence":0,"dot_radius":2,"dot_side_length":1,"dot_life":-1,"move_distance":1,"aperture_width":300,"aperture_height":300,"dot_color":["white","black"],"dot_shape":"circle","background_color":"#AAA","RDK_type":3,"aperture_type":2,"reinsert_type":2,"frame_rate":16.576271186440678,"frame_rate_array":[2,14,18,16,16,19,17,17,16,16,17,17,16,17,16,17,16,18,17,17,16,16,17,17,16,16,18,16,16,18,16,18,17,17,17,16,17,17,18,14,17,17,16,17,17,16,18,16,17,17,16,18,16,15,17,17,16,17,16,16,17,17,17,16,17,18,17,16,17,17,16,16,17,16,19,17,15,17,17,17,17,17,16,17,16,17,18,17,15,17,17,17,17,18,16,16,17,17,17,16,16,17,17,17,16,17,17,17,16,17,17,16,16,18,16,17,17,17],"number_of_frames":118,"aperture_center_x":768,"aperture_center_y":432,"fixation_cross":true,"fixation_cross_width":15,"fixation_cross_height":15,"fixation_cross_color":"#111","fixation_cross_thickness":1,"border":true,"border_thickness":2,"border_color":"transparent","canvas_width":1536,"canvas_height":864,"trial_type":"rdk","trial_index":7,"plugin_version":"2.0.0","time_elapsed":84841,"target_direction":300,"distractor_direction":70},{"rt":6958,"stimulus":"\n        <div class=\"response-container\">\n          <div class=\"response-instruction\">\n            <p>rotate the bar by using the left and right arrow keys.</p>\n            <p>when you are determined, press the Enter key.</p>\n          </div>\n          <div class=\"response-circle\">\n            <div class=\"response-fixation\"></div>\n            <div id=\"bar\" class=\"rotating-bar\"></div>\n          </div>\n        </div>\n      ","response":"Enter","trial_type":"html-keyboard-response","trial_index":8,"plugin_version":"2.1.0","time_elapsed":91801,"random_initial_angle":143,"response_angle_css":9,"response_angle_rdk":81,"angular_error_target":141,"angular_error_distractor":11,"target_direction":300,"target_group":"black","reward_points":0},{"rt":null,"stimulus":"\n          <p style=\"color: #FF3333;\">Your reward: 0 points</p>\n        ","response":null,"trial_type":"html-keyboard-response","trial_index":9,"plugin_version":"2.1.0","time_elapsed":93804},{"rt":null,"stimulus":"<div class=\"fixation\" style=\"font-size: 60px;\">+</div>","response":null,"trial_type":"html-keyboard-response","trial_index":10,"plugin_version":"2.1.0","time_elapsed":94813},{"target_group":"white","target_index":0,"condition_label":"practice","rt":-1,"response":"","correct":false,"choices":"ALL_KEYS","correct_choice":["a"],"trial_duration":2000,"flip_timestamps":[],"response_ends_trial":false,"number_of_apertures":2,"number_of_dots":[100,88],"number_of_sets":1,"coherent_direction":[133,243],"coherence":1,"opposite_coherence":0,"dot_radius":2,"dot_side_length":1,"dot_life":-1,"move_distance":1,"aperture_width":300,"aperture_height":300,"dot_color":["white","black"],"dot_shape":"circle","background_color":"#AAA","RDK_type":3,"aperture_type":2,"reinsert_type":2,"frame_rate":16.611570247933884,"frame_rate_array":[4,17,17,16,17,16,16,17,17,16,17,16,17,17,16,17,17,17,17,16,18,16,17,17,16,17,16,18,16,16,16,16,17,17,17,17,17,18,16,16,16,17,17,16,17,17,18,17,15,17,17,17,17,16,17,17,16,17,17,17,17,16,18,18,17,17,16,17,16,16,17,17,16,17,17,17,16,17,17,18,16,17,16,17,18,16,16,17,17,16,17,16,17,17,17,17,18,17,16,17,16,16,18,16,17,17,17,17,16,17,17,16,17,16,17,16,17,17,16,17,16],"number_of_frames":121,"aperture_center_x":768,"aperture_center_y":432,"fixation_cross":true,"fixation_cross_width":15,"fixation_cross_height":15,"fixation_cross_color":"#111","fixation_cross_thickness":1,"border":true,"border_thickness":2,"border_color":"transparent","canvas_width":1536,"canvas_height":864,"trial_type":"rdk","trial_index":11,"plugin_version":"2.0.0","time_elapsed":96820,"target_direction":133,"distractor_direction":243},{"rt":4224,"stimulus":"\n        <div class=\"response-container\">\n          <div class=\"response-instruction\">\n            <p>rotate the bar by using the left and right arrow keys.</p>\n            <p>when you are determined, press the Enter key.</p>\n          </div>\n          <div class=\"response-circle\">\n            <div class=\"response-fixation\"></div>\n            <div id=\"bar\" class=\"rotating-bar\"></div>\n          </div>\n        </div>\n      ","response":"Enter","trial_type":"html-keyboard-response","trial_index":12,"plugin_version":"2.1.0","time_elapsed":101046,"random_initial_angle":95,"response_angle_css":-63,"response_angle_rdk":153,"angular_error_target":20,"angular_error_distractor":-90,"target_direction":133,"target_group":"white","reward_points":6},{"rt":null,"stimulus":"\n          <p style=\"color: #00FF00;\">Your reward: 6 points</p>\n        ","response":null,"trial_type":"html-keyboard-response","trial_index":13,"plugin_version":"2.1.0","time_elapsed":103061},{"rt":null,"stimulus":"<div class=\"fixation\" style=\"font-size: 60px;\">+</div>","response":null,"trial_type":"html-keyboard-response","trial_index":14,"plugin_version":"2.1.0","time_elapsed":104074},{"target_group":"white","target_index":0,"condition_label":"practice","rt":-1,"response":"","correct":false,"choices":"ALL_KEYS","correct_choice":["a"],"trial_duration":2000,"flip_timestamps":[],"response_ends_trial":false,"number_of_apertures":2,"number_of_dots":[100,94],"number_of_sets":1,"coherent_direction":[345,91],"coherence":1,"opposite_coherence":0,"dot_radius":2,"dot_side_length":1,"dot_life":-1,"move_distance":1,"aperture_width":300,"aperture_height":300,"dot_color":["white","black"],"dot_shape":"circle","background_color":"#AAA","RDK_type":3,"aperture_type":2,"reinsert_type":2,"frame_rate":16.60330578512397,"frame_rate_array":[2,16,16,17,17,17,16,17,17,17,17,17,16,17,17,17,17,17,18,16,17,17,16,17,17,16,18,16,17,17,16,17,16,17,17,16,17,17,17,16,16,18,16,18,15,16,18,16,17,18,17,16,17,16,17,17,17,16,17,17,16,17,17,16,17,16,16,18,17,17,15,18,16,17,17,17,15,18,16,17,16,17,16,17,17,17,17,17,16,16,17,18,16,18,16,17,17,16,17,16,16,18,16,17,17,17,17,16,16,17,17,16,17,16,17,17,17,17,16,17,18],"number_of_frames":121,"aperture_center_x":768,"aperture_center_y":432,"fixation_cross":true,"fixation_cross_width":15,"fixation_cross_height":15,"fixation_cross_color":"#111","fixation_cross_thickness":1,"border":true,"border_thickness":2,"border_color":"transparent","canvas_width":1536,"canvas_height":864,"trial_type":"rdk","trial_index":15,"plugin_version":"2.0.0","time_elapsed":106080,"target_direction":345,"distractor_direction":91},{"rt":3732,"stimulus":"\n        <div class=\"response-container\">\n          <div class=\"response-instruction\">\n            <p>rotate the bar by using the left and right arrow keys.</p>\n            <p>when you are determined, press the Enter key.</p>\n          </div>\n          <div class=\"response-circle\">\n            <div class=\"response-fixation\"></div>\n            <div id=\"bar\" class=\"rotating-bar\"></div>\n          </div>\n        </div>\n      ","response":"Enter","trial_type":"html-keyboard-response","trial_index":16,"plugin_version":"2.1.0","time_elapsed":109812,"random_initial_angle":289,"response_angle_css":357,"response_angle_rdk":93,"angular_error_target":108,"angular_error_distractor":2,"target_direction":345,"target_group":"white","reward_points":0},{"rt":null,"stimulus":"\n          <p style=\"color: #FF3333;\">Your reward: 0 points</p>\n        ","response":null,"trial_type":"html-keyboard-response","trial_index":17,"plugin_version":"2.1.0","time_elapsed":111820},{"rt":null,"stimulus":"<div class=\"fixation\" style=\"font-size: 60px;\">+</div>","response":null,"trial_type":"html-keyboard-response","trial_index":18,"plugin_version":"2.1.0","time_elapsed":112830},{"target_group":"white","target_index":0,"condition_label":"practice","rt":-1,"response":"","correct":false,"choices":"ALL_KEYS","correct_choice":["a"],"trial_duration":2000,"flip_timestamps":[],"response_ends_trial":false,"number_of_apertures":2,"number_of_dots":[100,79],"number_of_sets":1,"coherent_direction":[208,71],"coherence":1,"opposite_coherence":0,"dot_radius":2,"dot_side_length":1,"dot_life":-1,"move_distance":1,"aperture_width":300,"aperture_height":300,"dot_color":["white","black"],"dot_shape":"circle","background_color":"#AAA","RDK_type":3,"aperture_type":2,"reinsert_type":2,"frame_rate":16.578512396694215,"frame_rate_array":[3,17,17,16,17,17,17,16,17,17,18,15,17,17,15,17,17,17,17,16,17,16,17,17,16,18,16,17,17,16,17,17,17,16,17,16,17,17,17,16,17,16,16,16,18,16,16,18,16,16,18,16,17,16,17,17,17,16,17,17,17,16,17,17,17,17,16,16,17,16,17,16,17,17,17,17,17,17,16,17,16,17,16,18,18,15,17,17,17,16,17,16,18,16,17,16,17,17,17,17,16,16,18,16,17,16,17,16,17,16,16,17,17,17,17,16,18,17,17,17,16],"number_of_frames":121,"aperture_center_x":768,"aperture_center_y":432,"fixation_cross":true,"fixation_cross_width":15,"fixation_cross_height":15,"fixation_cross_color":"#111","fixation_cross_thickness":1,"border":true,"border_thickness":2,"border_color":"transparent","canvas_width":1536,"canvas_height":864,"trial_type":"rdk","trial_index":19,"plugin_version":"2.0.0","time_elapsed":114838,"target_direction":208,"distractor_direction":71},{"rt":3358,"stimulus":"\n        <div class=\"response-container\">\n          <div class=\"response-instruction\">\n            <p>rotate the bar by using the left and right arrow keys.</p>\n            <p>when you are determined, press the Enter key.</p>\n          </div>\n          <div class=\"response-circle\">\n            <div class=\"response-fixation\"></div>\n            <div id=\"bar\" class=\"rotating-bar\"></div>\n          </div>\n        </div>\n      ","response":"Enter","trial_type":"html-keyboard-response","trial_index":20,"plugin_version":"2.1.0","time_elapsed":118198,"random_initial_angle":175,"response_angle_css":220,"response_angle_rdk":230,"angular_error_target":22,"angular_error_distractor":159,"target_direction":208,"target_group":"white","reward_points":5},{"rt":null,"stimulus":"\n          <p style=\"color: #00FF00;\">Your reward: 5 points</p>\n        ","response":null,"trial_type":"html-keyboard-response","trial_index":21,"plugin_version":"2.1.0","time_elapsed":120201},{"rt":null,"stimulus":"<div class=\"fixation\" style=\"font-size: 60px;\">+</div>","response":null,"trial_type":"html-keyboard-response","trial_index":22,"plugin_version":"2.1.0","time_elapsed":121205},{"target_group":"white","target_index":0,"condition_label":"practice","rt":-1,"response":"","correct":false,"choices":"ALL_KEYS","correct_choice":["a"],"trial_duration":2000,"flip_timestamps":[],"response_ends_trial":false,"number_of_apertures":2,"number_of_dots":[100,64],"number_of_sets":1,"coherent_direction":[212,117],"coherence":1,"opposite_coherence":0,"dot_radius":2,"dot_side_length":1,"dot_life":-1,"move_distance":1,"aperture_width":300,"aperture_height":300,"dot_color":["white","black"],"dot_shape":"circle","background_color":"#AAA","RDK_type":3,"aperture_type":2,"reinsert_type":2,"frame_rate":16.50413223140496,"frame_rate_array":[2,9,15,18,16,17,17,17,17,16,16,18,17,15,17,16,17,17,16,17,17,17,16,17,17,17,18,15,16,17,17,16,16,17,16,16,17,17,17,17,16,17,17,17,16,19,15,17,16,16,17,17,16,17,16,17,18,16,17,16,17,16,18,18,16,16,17,18,15,18,15,17,16,18,16,16,17,17,17,16,16,18,17,16,16,17,17,18,16,17,16,17,16,18,16,16,18,17,17,17,17,16,16,16,17,17,17,16,17,17,16,17,16,17,17,16,18,16,17,18,17],"number_of_frames":121,"aperture_center_x":768,"aperture_center_y":432,"fixation_cross":true,"fixation_cross_width":15,"fixation_cross_height":15,"fixation_cross_color":"#111","fixation_cross_thickness":1,"border":true,"border_thickness":2,"border_color":"transparent","canvas_width":1536,"canvas_height":864,"trial_type":"rdk","trial_index":23,"plugin_version":"2.0.0","time_elapsed":123214,"target_direction":212,"distractor_direction":117},{"rt":2809,"stimulus":"\n        <div class=\"response-container\">\n          <div class=\"response-instruction\">\n            <p>rotate the bar by using the left and right arrow keys.</p>\n            <p>when you are determined, press the Enter key.</p>\n          </div>\n          <div class=\"response-circle\">\n            <div class=\"response-fixation\"></div>\n            <div id=\"bar\" class=\"rotating-bar\"></div>\n          </div>\n        </div>\n      ","response":"Enter","trial_type":"html-keyboard-response","trial_index":24,"plugin_version":"2.1.0","time_elapsed":126025,"random_initial_angle":140,"response_angle_css":140,"response_angle_rdk":310,"angular_error_target":98,"angular_error_distractor":-167,"target_direction":212,"target_group":"white","reward_points":0},{"rt":null,"stimulus":"\n          <p style=\"color: #FF3333;\">Your reward: 0 points</p>\n        ","response":null,"trial_type":"html-keyboard-response","trial_index":25,"plugin_version":"2.1.0","time_elapsed":128031},{"rt":null,"stimulus":"<div class=\"fixation\" style=\"font-size: 60px;\">+</div>","response":null,"trial_type":"html-keyboard-response","trial_index":26,"plugin_version":"2.1.0","time_elapsed":129044},{"target_group":"black","target_index":1,"condition_label":"practice","rt":-1,"response":"","correct":false,"choices":"ALL_KEYS","correct_choice":["a"],"trial_duration":2000,"flip_timestamps":[],"response_ends_trial":false,"number_of_apertures":2,"number_of_dots":[81,100],"number_of_sets":1,"coherent_direction":[235,47],"coherence":1,"opposite_coherence":0,"dot_radius":2,"dot_side_length":1,"dot_life":-1,"move_distance":1,"aperture_width":300,"aperture_height":300,"dot_color":["white","black"],"dot_shape":"circle","background_color":"#AAA","RDK_type":3,"aperture_type":2,"reinsert_type":2,"frame_rate":16.694214876033058,"frame_rate_array":[9,16,18,16,17,16,17,17,17,16,17,17,17,16,17,16,17,17,17,17,17,17,17,17,17,16,17,17,17,17,17,16,17,16,17,17,17,17,16,17,17,17,16,17,17,16,17,17,17,17,17,16,17,16,16,17,17,17,18,17,17,16,17,16,17,17,17,17,17,17,16,17,17,17,16,17,17,17,16,17,17,17,16,17,16,17,17,16,17,16,16,17,17,17,17,18,16,18,16,17,17,16,16,18,17,16,16,17,17,16,17,17,17,17,16,17,17,16,17,17,17],"number_of_frames":121,"aperture_center_x":768,"aperture_center_y":432,"fixation_cross":true,"fixation_cross_width":15,"fixation_cross_height":15,"fixation_cross_color":"#111","fixation_cross_thickness":1,"border":true,"border_thickness":2,"border_color":"transparent","canvas_width":1536,"canvas_height":864,"trial_type":"rdk","trial_index":27,"plugin_version":"2.0.0","time_elapsed":131056,"target_direction":47,"distractor_direction":235},{"rt":2753,"stimulus":"\n        <div class=\"response-container\">\n          <div class=\"response-instruction\">\n            <p>rotate the bar by using the left and right arrow keys.</p>\n            <p>when you are determined, press the Enter key.</p>\n          </div>\n          <div class=\"response-circle\">\n            <div class=\"response-fixation\"></div>\n            <div id=\"bar\" class=\"rotating-bar\"></div>\n          </div>\n        </div>\n      ","response":"Enter","trial_type":"html-keyboard-response","trial_index":28,"plugin_version":"2.1.0","time_elapsed":133810,"random_initial_angle":85,"response_angle_css":38,"response_angle_rdk":52,"angular_error_target":5,"angular_error_distractor":177,"target_direction":47,"target_group":"black","reward_points":9},{"rt":null,"stimulus":"\n          <p style=\"color: #00FF00;\">Your reward: 9 points</p>\n        ","response":null,"trial_type":"html-keyboard-response","trial_index":29,"plugin_version":"2.1.0","time_elapsed":135821},{"rt":null,"stimulus":"<div class=\"fixation\" style=\"font-size: 60px;\">+</div>","response":null,"trial_type":"html-keyboard-response","trial_index":30,"plugin_version":"2.1.0","time_elapsed":136829},{"target_group":"white","target_index":0,"condition_label":"practice","rt":-1,"response":"","correct":false,"choices":"ALL_KEYS","correct_choice":["a"],"trial_duration":2000,"flip_timestamps":[],"response_ends_trial":false,"number_of_apertures":2,"number_of_dots":[100,54],"number_of_sets":1,"coherent_direction":[41,300],"coherence":1,"opposite_coherence":0,"dot_radius":2,"dot_side_length":1,"dot_life":-1,"move_distance":1,"aperture_width":300,"aperture_height":300,"dot_color":["white","black"],"dot_shape":"circle","background_color":"#AAA","RDK_type":3,"aperture_type":2,"reinsert_type":2,"frame_rate":16.768595041322314,"frame_rate_array":[15,16,17,17,18,16,17,17,17,17,16,17,16,17,16,17,17,17,17,17,17,17,16,17,17,16,17,17,17,18,16,17,17,17,17,17,16,17,16,16,17,17,17,17,17,17,17,16,17,16,17,17,17,17,16,16,17,17,17,16,17,16,17,16,17,17,16,17,17,17,17,17,17,16,17,17,17,16,17,17,17,17,17,16,16,18,16,17,17,17,17,17,17,17,17,17,17,17,17,17,17,17,17,16,17,17,16,17,17,17,17,16,17,16,17,17,17,17,16,17,17],"number_of_frames":121,"aperture_center_x":768,"aperture_center_y":432,"fixation_cross":true,"fixation_cross_width":15,"fixation_cross_height":15,"fixation_cross_color":"#111","fixation_cross_thickness":1,"border":true,"border_thickness":2,"border_color":"transparent","canvas_width":1536,"canvas_height":864,"trial_type":"rdk","trial_index":31,"plugin_version":"2.0.0","time_elapsed":138847,"target_direction":41,"distractor_direction":300},{"rt":4719,"stimulus":"\n        <div class=\"response-container\">\n          <div class=\"response-instruction\">\n            <p>rotate the bar by using the left and right arrow keys.</p>\n            <p>when you are determined, press the Enter key.</p>\n          </div>\n          <div class=\"response-circle\">\n            <div class=\"response-fixation\"></div>\n            <div id=\"bar\" class=\"rotating-bar\"></div>\n          </div>\n        </div>\n      ","response":"Enter","trial_type":"html-keyboard-response","trial_index":32,"plugin_version":"2.1.0","time_elapsed":143568,"random_initial_angle":314,"response_angle_css":403,"response_angle_rdk":47,"angular_error_target":6,"angular_error_distractor":107,"target_direction":41,"target_group":"white","reward_points":8},{"rt":null,"stimulus":"\n          <p style=\"color: #00FF00;\">Your reward: 8 points</p>\n        ","response":null,"trial_type":"html-keyboard-response","trial_index":33,"plugin_version":"2.1.0","time_elapsed":145585},{"rt":null,"stimulus":"<div class=\"fixation\" style=\"font-size: 60px;\">+</div>","response":null,"trial_type":"html-keyboard-response","trial_index":34,"plugin_version":"2.1.0","time_elapsed":146596},{"target_group":"white","target_index":0,"condition_label":"practice","rt":-1,"response":"","correct":false,"choices":"ALL_KEYS","correct_choice":["a"],"trial_duration":2000,"flip_timestamps":[],"response_ends_trial":false,"number_of_apertures":2,"number_of_dots":[100,95],"number_of_sets":1,"coherent_direction":[23,126],"coherence":1,"opposite_coherence":0,"dot_radius":2,"dot_side_length":1,"dot_life":-1,"move_distance":1,"aperture_width":300,"aperture_height":300,"dot_color":["white","black"],"dot_shape":"circle","background_color":"#AAA","RDK_type":3,"aperture_type":2,"reinsert_type":2,"frame_rate":16.641666666666666,"frame_rate_array":[7,16,18,17,15,16,17,17,16,17,17,17,16,17,16,18,16,17,17,17,17,15,17,17,17,17,17,17,16,17,17,17,16,17,17,16,17,17,16,16,17,17,17,18,16,17,16,17,17,17,17,17,17,16,17,16,17,17,17,18,16,17,17,16,18,16,16,18,15,18,15,17,16,18,17,17,17,17,16,17,16,16,18,17,15,17,17,16,18,15,18,17,16,16,18,16,17,17,16,17,16,18,17,15,17,17,15,17,17,17,17,17,17,16,20,14,17,16,17,18],"number_of_frames":120,"aperture_center_x":768,"aperture_center_y":432,"fixation_cross":true,"fixation_cross_width":15,"fixation_cross_height":15,"fixation_cross_color":"#111","fixation_cross_thickness":1,"border":true,"border_thickness":2,"border_color":"transparent","canvas_width":1536,"canvas_height":864,"trial_type":"rdk","trial_index":35,"plugin_version":"2.0.0","time_elapsed":148602,"target_direction":23,"distractor_direction":126},{"rt":3472,"stimulus":"\n        <div class=\"response-container\">\n          <div class=\"response-instruction\">\n            <p>rotate the bar by using the left and right arrow keys.</p>\n            <p>when you are determined, press the Enter key.</p>\n          </div>\n          <div class=\"response-circle\">\n            <div class=\"response-fixation\"></div>\n            <div id=\"bar\" class=\"rotating-bar\"></div>\n          </div>\n        </div>\n      ","response":"Enter","trial_type":"html-keyboard-response","trial_index":36,"plugin_version":"2.1.0","time_elapsed":152076,"random_initial_angle":55,"response_angle_css":39,"response_angle_rdk":51,"angular_error_target":28,"angular_error_distractor":-75,"target_direction":23,"target_group":"white","reward_points":4},{"rt":null,"stimulus":"\n          <p style=\"color: #00FF00;\">Your reward: 4 points</p>\n        ","response":null,"trial_type":"html-keyboard-response","trial_index":37,"plugin_version":"2.1.0","time_elapsed":154084},{"rt":null,"stimulus":"<div class=\"fixation\" style=\"font-size: 60px;\">+</div>","response":null,"trial_type":"html-keyboard-response","trial_index":38,"plugin_version":"2.1.0","time_elapsed":155096},{"target_group":"black","target_index":1,"condition_label":"practice","rt":-1,"response":"","correct":false,"choices":"ALL_KEYS","correct_choice":["a"],"trial_duration":2000,"flip_timestamps":[],"response_ends_trial":false,"number_of_apertures":2,"number_of_dots":[75,100],"number_of_sets":1,"coherent_direction":[359,237],"coherence":1,"opposite_coherence":0,"dot_radius":2,"dot_side_length":1,"dot_life":-1,"move_distance":1,"aperture_width":300,"aperture_height":300,"dot_color":["white","black"],"dot_shape":"circle","background_color":"#AAA","RDK_type":3,"aperture_type":2,"reinsert_type":2,"frame_rate":16.65,"frame_rate_array":[13,17,16,17,17,17,17,17,16,17,17,17,16,17,16,17,17,17,16,17,18,15,16,16,18,16,16,18,17,17,16,16,17,17,16,17,17,16,17,16,17,16,17,16,17,17,17,17,17,17,16,17,17,17,17,16,17,17,16,16,17,17,16,17,17,17,16,17,16,17,17,17,17,16,16,17,17,16,17,16,18,16,17,17,17,17,17,17,16,17,17,17,16,16,17,17,17,16,17,17,17,17,17,17,16,16,17,16,17,17,16,17,16,17,17,16,16,17,16,17],"number_of_frames":120,"aperture_center_x":768,"aperture_center_y":432,"fixation_cross":true,"fixation_cross_width":15,"fixation_cross_height":15,"fixation_cross_color":"#111","fixation_cross_thickness":1,"border":true,"border_thickness":2,"border_color":"transparent","canvas_width":1536,"canvas_height":864,"trial_type":"rdk","trial_index":39,"plugin_version":"2.0.0","time_elapsed":157108,"target_direction":237,"distractor_direction":359},{"rt":3537,"stimulus":"\n        <div class=\"response-container\">\n          <div class=\"response-instruction\">\n            <p>rotate the bar by using the left and right arrow keys.</p>\n            <p>when you are determined, press the Enter key.</p>\n          </div>\n          <div class=\"response-circle\">\n            <div class=\"response-fixation\"></div>\n            <div id=\"bar\" class=\"rotating-bar\"></div>\n          </div>\n        </div>\n      ","response":"Enter","trial_type":"html-keyboard-response","trial_index":40,"plugin_version":"2.1.0","time_elapsed":160646,"random_initial_angle":12,"response_angle_css":-126,"response_angle_rdk":216,"angular_error_target":-21,"angular_error_distractor":-143,"target_direction":237,"target_group":"black","reward_points":5},{"rt":null,"stimulus":"\n          <p style=\"color: #00FF00;\">Your reward: 5 points</p>\n        ","response":null,"trial_type":"html-keyboard-response","trial_index":41,"plugin_version":"2.1.0","time_elapsed":162654},{"rt":null,"stimulus":"<div class=\"fixation\" style=\"font-size: 60px;\">+</div>","response":null,"trial_type":"html-keyboard-response","trial_index":42,"plugin_version":"2.1.0","time_elapsed":163660},{"target_group":"black","target_index":1,"condition_label":"practice","rt":-1,"response":"","correct":false,"choices":"ALL_KEYS","correct_choice":["a"],"trial_duration":2000,"flip_timestamps":[],"response_ends_trial":false,"number_of_apertures":2,"number_of_dots":[69,100],"number_of_sets":1,"coherent_direction":[71,193],"coherence":1,"opposite_coherence":0,"dot_radius":2,"dot_side_length":1,"dot_life":-1,"move_distance":1,"aperture_width":300,"aperture_height":300,"dot_color":["white","black"],"dot_shape":"circle","background_color":"#AAA","RDK_type":3,"aperture_type":2,"reinsert_type":2,"frame_rate":16.7,"frame_rate_array":[9,17,17,17,16,17,17,17,17,17,17,17,16,16,17,16,17,18,17,16,17,16,17,17,17,17,17,18,16,16,17,17,16,17,16,17,16,17,17,17,16,18,17,17,17,16,17,16,17,17,16,17,17,16,17,17,17,16,17,16,17,16,17,16,17,17,17,17,17,18,15,17,17,16,17,17,17,17,17,17,17,17,16,17,17,17,18,16,17,16,17,17,16,17,17,16,18,17,17,16,17,17,16,17,17,17,17,17,16,17,17,17,16,17,17,17,17,16,17,16],"number_of_frames":120,"aperture_center_x":768,"aperture_center_y":432,"fixation_cross":true,"fixation_cross_width":15,"fixation_cross_height":15,"fixation_cross_color":"#111","fixation_cross_thickness":1,"border":true,"border_thickness":2,"border_color":"transparent","canvas_width":1536,"canvas_height":864,"trial_type":"rdk","trial_index":43,"plugin_version":"2.0.0","time_elapsed":165670,"target_direction":193,"distractor_direction":71},{"rt":9065,"stimulus":"\n        <div class=\"response-container\">\n          <div class=\"response-instruction\">\n            <p>rotate the bar by using the left and right arrow keys.</p>\n            <p>when you are determined, press the Enter key.</p>\n          </div>\n          <div class=\"response-circle\">\n            <div class=\"response-fixation\"></div>\n            <div id=\"bar\" class=\"rotating-bar\"></div>\n          </div>\n        </div>\n      ","response":"Enter","trial_type":"html-keyboard-response","trial_index":44,"plugin_version":"2.1.0","time_elapsed":174737,"random_initial_angle":115,"response_angle_css":29,"response_angle_rdk":61,"angular_error_target":-132,"angular_error_distractor":-10,"target_direction":193,"target_group":"black","reward_points":0},{"rt":null,"stimulus":"\n          <p style=\"color: #FF3333;\">Your reward: 0 points</p>\n        ","response":null,"trial_type":"html-keyboard-response","trial_index":45,"plugin_version":"2.1.0","time_elapsed":176750},{"rt":null,"stimulus":"<div class=\"fixation\" style=\"font-size: 60px;\">+</div>","response":null,"trial_type":"html-keyboard-response","trial_index":46,"plugin_version":"2.1.0","time_elapsed":177760},{"target_group":"black","target_index":1,"condition_label":"practice","rt":-1,"response":"","correct":false,"choices":"ALL_KEYS","correct_choice":["a"],"trial_duration":2000,"flip_timestamps":[],"response_ends_trial":false,"number_of_apertures":2,"number_of_dots":[97,100],"number_of_sets":1,"coherent_direction":[93,281],"coherence":1,"opposite_coherence":0,"dot_radius":2,"dot_side_length":1,"dot_life":-1,"move_distance":1,"aperture_width":300,"aperture_height":300,"dot_color":["white","black"],"dot_shape":"circle","background_color":"#AAA","RDK_type":3,"aperture_type":2,"reinsert_type":2,"frame_rate":16.716666666666665,"frame_rate_array":[14,17,16,17,16,17,16,18,16,17,17,16,17,17,16,17,16,17,18,17,17,16,17,16,17,17,17,17,16,17,17,16,17,16,17,17,17,18,17,16,17,17,17,16,18,16,16,18,16,17,16,17,17,17,17,17,17,17,16,17,17,16,17,17,17,17,16,17,16,16,17,16,17,17,17,17,18,16,17,16,17,16,17,17,17,16,16,18,17,17,16,17,17,17,17,16,17,17,17,17,16,17,16,18,17,16,16,17,16,17,17,16,17,17,16,17,17,16,17,17],"number_of_frames":120,"aperture_center_x":768,"aperture_center_y":432,"fixation_cross":true,"fixation_cross_width":15,"fixation_cross_height":15,"fixation_cross_color":"#111","fixation_cross_thickness":1,"border":true,"border_thickness":2,"border_color":"transparent","canvas_width":1536,"canvas_height":864,"trial_type":"rdk","trial_index":47,"plugin_version":"2.0.0","time_elapsed":179769,"target_direction":281,"distractor_direction":93},{"rt":3858,"stimulus":"\n        <div class=\"response-container\">\n          <div class=\"response-instruction\">\n            <p>rotate the bar by using the left and right arrow keys.</p>\n            <p>when you are determined, press the Enter key.</p>\n          </div>\n          <div class=\"response-circle\">\n            <div class=\"response-fixation\"></div>\n            <div id=\"bar\" class=\"rotating-bar\"></div>\n          </div>\n        </div>\n      ","response":"Enter","trial_type":"html-keyboard-response","trial_index":48,"plugin_version":"2.1.0","time_elapsed":183629,"random_initial_angle":104,"response_angle_css":-5,"response_angle_rdk":95,"angular_error_target":174,"angular_error_distractor":2,"target_direction":281,"target_group":"black","reward_points":0},{"rt":null,"stimulus":"\n          <p style=\"color: #FF3333;\">Your reward: 0 points</p>\n        ","response":null,"trial_type":"html-keyboard-response","trial_index":49,"plugin_version":"2.1.0","time_elapsed":185646},{"rt":null,"stimulus":"<div class=\"fixation\" style=\"font-size: 60px;\">+</div>","response":null,"trial_type":"html-keyboard-response","trial_index":50,"plugin_version":"2.1.0","time_elapsed":186652},{"target_group":"black","target_index":1,"condition_label":"practice","rt":-1,"response":"","correct":false,"choices":"ALL_KEYS","correct_choice":["a"],"trial_duration":2000,"flip_timestamps":[],"response_ends_trial":false,"number_of_apertures":2,"number_of_dots":[59,100],"number_of_sets":1,"coherent_direction":[111,261],"coherence":1,"opposite_coherence":0,"dot_radius":2,"dot_side_length":1,"dot_life":-1,"move_distance":1,"aperture_width":300,"aperture_height":300,"dot_color":["white","black"],"dot_shape":"circle","background_color":"#AAA","RDK_type":3,"aperture_type":2,"reinsert_type":2,"frame_rate":16.625,"frame_rate_array":[15,14,17,17,18,16,17,17,16,16,17,17,17,16,16,17,17,16,17,17,17,16,17,17,17,17,17,16,17,17,16,17,17,17,16,17,16,17,16,18,16,16,17,16,17,17,16,17,16,16,17,17,17,16,17,17,16,17,16,17,17,16,16,17,16,16,17,17,17,16,17,16,17,17,17,17,17,16,17,17,16,16,17,16,17,16,17,16,18,16,17,16,17,16,17,17,16,17,17,16,17,17,16,17,18,16,17,16,16,17,16,18,16,17,18,16,17,17,16,17],"number_of_frames":120,"aperture_center_x":768,"aperture_center_y":432,"fixation_cross":true,"fixation_cross_width":15,"fixation_cross_height":15,"fixation_cross_color":"#111","fixation_cross_thickness":1,"border":true,"border_thickness":2,"border_color":"transparent","canvas_width":1536,"canvas_height":864,"trial_type":"rdk","trial_index":51,"plugin_version":"2.0.0","time_elapsed":188662,"target_direction":261,"distractor_direction":111},{"rt":2284,"stimulus":"\n        <div class=\"response-container\">\n          <div class=\"response-instruction\">\n            <p>rotate the bar by using the left and right arrow keys.</p>\n            <p>when you are determined, press the Enter key.</p>\n          </div>\n          <div class=\"response-circle\">\n            <div class=\"response-fixation\"></div>\n            <div id=\"bar\" class=\"rotating-bar\"></div>\n          </div>\n        </div>\n      ","response":"Enter","trial_type":"html-keyboard-response","trial_index":52,"plugin_version":"2.1.0","time_elapsed":190947,"random_initial_angle":317,"response_angle_css":352,"response_angle_rdk":98,"angular_error_target":-163,"angular_error_distractor":-13,"target_direction":261,"target_group":"black","reward_points":0},{"rt":null,"stimulus":"\n          <p style=\"color: #FF3333;\">Your reward: 0 points</p>\n        ","response":null,"trial_type":"html-keyboard-response","trial_index":53,"plugin_version":"2.1.0","time_elapsed":192953},{"rt":null,"stimulus":"<div class=\"fixation\" style=\"font-size: 60px;\">+</div>","response":null,"trial_type":"html-keyboard-response","trial_index":54,"plugin_version":"2.1.0","time_elapsed":193968},{"target_group":"white","target_index":0,"condition_label":"practice","rt":-1,"response":"","correct":false,"choices":"ALL_KEYS","correct_choice":["a"],"trial_duration":2000,"flip_timestamps":[],"response_ends_trial":false,"number_of_apertures":2,"number_of_dots":[100,53],"number_of_sets":1,"coherent_direction":[216,87],"coherence":1,"opposite_coherence":0,"dot_radius":2,"dot_side_length":1,"dot_life":-1,"move_distance":1,"aperture_width":300,"aperture_height":300,"dot_color":["white","black"],"dot_shape":"circle","background_color":"#AAA","RDK_type":3,"aperture_type":2,"reinsert_type":2,"frame_rate":16.633333333333333,"frame_rate_array":[6,18,16,16,18,16,17,17,17,16,17,16,17,17,16,18,16,17,16,17,16,16,17,17,17,17,17,17,17,17,17,17,17,16,17,17,16,17,16,17,16,17,17,16,17,17,16,17,17,17,17,16,17,17,17,17,16,17,17,16,17,17,16,17,17,17,16,16,17,17,16,16,17,17,16,17,17,17,17,17,16,17,16,17,17,17,17,17,16,17,17,17,17,17,16,17,16,17,16,17,17,17,17,17,16,17,16,17,17,17,17,17,16,17,17,17,17,16,18,15],"number_of_frames":120,"aperture_center_x":768,"aperture_center_y":432,"fixation_cross":true,"fixation_cross_width":15,"fixation_cross_height":15,"fixation_cross_color":"#111","fixation_cross_thickness":1,"border":true,"border_thickness":2,"border_color":"transparent","canvas_width":1536,"canvas_height":864,"trial_type":"rdk","trial_index":55,"plugin_version":"2.0.0","time_elapsed":195974,"target_direction":216,"distractor_direction":87},{"rt":2276,"stimulus":"\n        <div class=\"response-container\">\n          <div class=\"response-instruction\">\n            <p>rotate the bar by using the left and right arrow keys.</p>\n            <p>when you are determined, press the Enter key.</p>\n          </div>\n          <div class=\"response-circle\">\n            <div class=\"response-fixation\"></div>\n            <div id=\"bar\" class=\"rotating-bar\"></div>\n          </div>\n        </div>\n      ","response":"Enter","trial_type":"html-keyboard-response","trial_index":56,"plugin_version":"2.1.0","time_elapsed":198252,"random_initial_angle":268,"response_angle_css":231,"response_angle_rdk":219,"angular_error_target":3,"angular_error_distractor":132,"target_direction":216,"target_group":"white","reward_points":9},{"rt":null,"stimulus":"\n          <p style=\"color: #00FF00;\">Your reward: 9 points</p>\n        ","response":null,"trial_type":"html-keyboard-response","trial_index":57,"plugin_version":"2.1.0","time_elapsed":200265},{"rt":null,"stimulus":"<div class=\"fixation\" style=\"font-size: 60px;\">+</div>","response":null,"trial_type":"html-keyboard-response","trial_index":58,"plugin_version":"2.1.0","time_elapsed":201276},{"target_group":"black","target_index":1,"condition_label":"practice","rt":-1,"response":"","correct":false,"choices":"ALL_KEYS","correct_choice":["a"],"trial_duration":2000,"flip_timestamps":[],"response_ends_trial":false,"number_of_apertures":2,"number_of_dots":[79,100],"number_of_sets":1,"coherent_direction":[114,214],"coherence":1,"opposite_coherence":0,"dot_radius":2,"dot_side_length":1,"dot_life":-1,"move_distance":1,"aperture_width":300,"aperture_height":300,"dot_color":["white","black"],"dot_shape":"circle","background_color":"#AAA","RDK_type":3,"aperture_type":2,"reinsert_type":2,"frame_rate":16.683333333333334,"frame_rate_array":[8,17,17,16,17,17,17,17,17,17,16,17,16,17,17,16,17,16,17,17,17,16,17,17,16,17,16,17,16,17,17,17,16,17,16,17,17,17,16,17,17,16,17,18,16,17,17,17,16,17,17,17,17,17,17,16,17,17,17,17,16,16,17,17,17,16,17,17,17,17,16,16,17,17,17,16,18,17,16,17,18,16,17,17,17,16,16,17,16,17,17,17,16,17,17,18,16,17,17,17,17,17,17,16,17,17,17,16,17,17,17,15,17,17,17,17,17,17,17,17],"number_of_frames":120,"aperture_center_x":768,"aperture_center_y":432,"fixation_cross":true,"fixation_cross_width":15,"fixation_cross_height":15,"fixation_cross_color":"#111","fixation_cross_thickness":1,"border":true,"border_thickness":2,"border_color":"transparent","canvas_width":1536,"canvas_height":864,"trial_type":"rdk","trial_index":59,"plugin_version":"2.0.0","time_elapsed":203283,"target_direction":214,"distractor_direction":114},{"rt":3265,"stimulus":"\n        <div class=\"response-container\">\n          <div class=\"response-instruction\">\n            <p>rotate the bar by using the left and right arrow keys.</p>\n            <p>when you are determined, press the Enter key.</p>\n          </div>\n          <div class=\"response-circle\">\n            <div class=\"response-fixation\"></div>\n            <div id=\"bar\" class=\"rotating-bar\"></div>\n          </div>\n        </div>\n      ","response":"Enter","trial_type":"html-keyboard-response","trial_index":60,"plugin_version":"2.1.0","time_elapsed":206550,"random_initial_angle":84,"response_angle_css":-17,"response_angle_rdk":107,"angular_error_target":-107,"angular_error_distractor":-7,"target_direction":214,"target_group":"black","reward_points":0},{"rt":null,"stimulus":"\n          <p style=\"color: #FF3333;\">Your reward: 0 points</p>\n        ","response":null,"trial_type":"html-keyboard-response","trial_index":61,"plugin_version":"2.1.0","time_elapsed":208560},{"rt":null,"stimulus":"<div class=\"fixation\" style=\"font-size: 60px;\">+</div>","response":null,"trial_type":"html-keyboard-response","trial_index":62,"plugin_version":"2.1.0","time_elapsed":209566},{"target_group":"black","target_index":1,"condition_label":"practice","rt":-1,"response":"","correct":false,"choices":"ALL_KEYS","correct_choice":["a"],"trial_duration":2000,"flip_timestamps":[],"response_ends_trial":false,"number_of_apertures":2,"number_of_dots":[86,100],"number_of_sets":1,"coherent_direction":[179,24],"coherence":1,"opposite_coherence":0,"dot_radius":2,"dot_side_length":1,"dot_life":-1,"move_distance":1,"aperture_width":300,"aperture_height":300,"dot_color":["white","black"],"dot_shape":"circle","background_color":"#AAA","RDK_type":3,"aperture_type":2,"reinsert_type":2,"frame_rate":16.628099173553718,"frame_rate_array":[11,17,18,15,17,17,16,17,16,17,16,17,16,17,16,17,17,16,16,18,17,16,16,16,17,17,17,16,17,17,17,16,17,16,17,16,17,17,17,16,17,17,17,16,17,17,16,16,17,16,17,16,18,17,17,16,17,17,16,17,17,17,17,18,16,17,16,18,15,17,17,17,16,17,16,17,17,16,16,17,16,17,16,17,17,17,17,16,18,16,16,18,16,17,17,16,17,16,17,17,16,16,17,17,17,16,17,17,16,17,17,17,17,16,17,16,17,16,17,17,18],"number_of_frames":121,"aperture_center_x":768,"aperture_center_y":432,"fixation_cross":true,"fixation_cross_width":15,"fixation_cross_height":15,"fixation_cross_color":"#111","fixation_cross_thickness":1,"border":true,"border_thickness":2,"border_color":"transparent","canvas_width":1536,"canvas_height":864,"trial_type":"rdk","trial_index":63,"plugin_version":"2.0.0","time_elapsed":211580,"target_direction":24,"distractor_direction":179},{"rt":3968,"stimulus":"\n        <div class=\"response-container\">\n          <div class=\"response-instruction\">\n            <p>rotate the bar by using the left and right arrow keys.</p>\n            <p>when you are determined, press the Enter key.</p>\n          </div>\n          <div class=\"response-circle\">\n            <div class=\"response-fixation\"></div>\n            <div id=\"bar\" class=\"rotating-bar\"></div>\n          </div>\n        </div>\n      ","response":"Enter","trial_type":"html-keyboard-response","trial_index":64,"plugin_version":"2.1.0","time_elapsed":215550,"random_initial_angle":66,"response_angle_css":-115,"response_angle_rdk":205,"angular_error_target":-179,"angular_error_distractor":26,"target_direction":24,"target_group":"black","reward_points":0},{"rt":null,"stimulus":"\n          <p style=\"color: #FF3333;\">Your reward: 0 points</p>\n        ","response":null,"trial_type":"html-keyboard-response","trial_index":65,"plugin_version":"2.1.0","time_elapsed":217562},{"rt":124417,"stimulus":"\n        <div class=\"instructions-container\">\n          <h2>End of Practice</h2>\n          <p>You have completed the practice trials.</p>\n          <p>Press <strong>Enter</strong> key to begin the main experiment.</p>\n        </div>\n      ","response":"Enter","trial_type":"html-keyboard-response","trial_index":66,"plugin_version":"2.1.0","time_elapsed":341981},{"rt":null,"stimulus":"<div class=\"fixation\" style=\"font-size: 60px;\">+</div>","response":null,"trial_type":"html-keyboard-response","trial_index":67,"plugin_version":"2.1.0","time_elapsed":342998},{"target_group":"white","condition_label":"W_H_vs_B_L_rep1","target_direction":344,"distractor_direction":251,"session_rotation":341,"rt":-1,"response":"","correct":false,"choices":"ALL_KEYS","correct_choice":["a"],"trial_duration":2000,"flip_timestamps":[],"response_ends_trial":false,"number_of_apertures":200,"number_of_dots":[1,1,1,1,1,1,1,1,1,1,1,1,1,1,1,1,1,1,1,1,1,1,1,1,1,1,1,1,1,1,1,1,1,1,1,1,1,1,1,1,1,1,1,1,1,1,1,1,1,1,1,1,1,1,1,1,1,1,1,1,1,1,1,1,1,1,1,1,1,1,1,1,1,1,1,1,1,1,1,1,1,1,1,1,1,1,1,1,1,1,1,1,1,1,1,1,1,1,1,1,1,1,1,1,1,1,1,1,1,1,1,1,1,1,1,1,1,1,1,1,1,1,1,1,1,1,1,1,1,1,1,1,1,1,1,1,1,1,1,1,1,1,1,1,1,1,1,1,1,1,1,1,1,1,1,1,1,1,1,1,1,1,1,1,1,1,1,1,1,1,1,1,1,1,1,1,1,1,1,1,1,1,1,1,1,1,1,1,1,1,1,1,1,1,1,1,1,1,1,1],"number_of_sets":1,"coherent_direction":[344,251,251,344,251,344,344,344,251,344,251,251,344,344,344,344,344,251,344,344,251,344,251,251,344,344,344,251,251,344,344,344,251,344,251,251,251,251,344,344,344,251,344,344,251,251,251,344,344,251,344,251,344,344,251,344,251,251,344,251,251,251,251,344,344,251,251,251,251,251,251,251,344,344,344,344,251,344,251,344,344,251,344,251,344,251,251,251,344,344,251,251,251,251,251,251,344,251,344,251,344,251,344,344,251,251,251,251,251,251,344,251,251,344,344,344,251,251,344,344,251,251,344,251,344,344,344,251,344,344,251,251,344,344,251,251,251,251,251,251,344,344,344,344,251,344,251,251,251,251,344,344,251,251,251,251,344,344,344,344,251,251,344,344,251,251,251,344,251,344,251,251,344,344,344,344,344,344,251,344,251,251,344,344,251,344,251,344,251,251,344,251,344,344,344,344,344,344,344,344],"coherence":1,"opposite_coherence":0,"dot_radius":2,"dot_side_length":1,"dot_life":-1,"move_distance":1,"aperture_width":300,"aperture_height":300,"dot_color":["white","black","black","white","black","white","white","white","black","white","black","black","white","white","white","white","white","black","white","white","black","white","black","black","white","white","white","black","black","white","white","white","black","white","black","black","black","black","white","white","white","black","white","white","black","black","black","white","white","black","white","black","white","white","black","white","black","black","white","black","black","black","black","white","white","black","black","black","black","black","black","black","white","white","white","white","black","white","black","white","white","black","white","black","white","black","black","black","white","white","black","black","black","black","black","black","white","black","white","black","white","black","white","white","black","black","black","black","black","black","white","black","black","white","white","white","black","black","white","white","black","black","white","black","white","white","white","black","white","white","black","black","white","white","black","black","black","black","black","black","white","white","white","white","black","white","black","black","black","black","white","white","black","black","black","black","white","white","white","white","black","black","white","white","black","black","black","white","black","white","black","black","white","white","white","white","white","white","black","white","black","black","white","white","black","white","black","white","black","black","white","black","white","white","white","white","white","white","white","white"],"dot_shape":"circle","background_color":"#AAA","RDK_type":3,"aperture_type":2,"reinsert_type":2,"frame_rate":16.628099173553718,"frame_rate_array":[4,17,18,17,17,17,16,18,17,17,16,17,16,18,15,17,18,17,17,16,17,16,16,17,17,16,17,17,17,16,17,17,17,16,16,17,17,17,16,17,17,17,17,16,16,18,16,17,17,16,17,16,17,16,17,17,15,18,17,17,16,16,18,16,17,15,18,16,17,17,21,13,16,17,17,16,17,17,17,17,17,17,18,16,16,17,16,17,17,16,17,17,16,16,17,17,17,16,18,16,17,17,16,17,17,17,17,17,16,17,17,17,17,17,16,17,17,15,16,18,17],"number_of_frames":121,"aperture_center_x":768,"aperture_center_y":432,"fixation_cross":true,"fixation_cross_width":15,"fixation_cross_height":15,"fixation_cross_color":"#111","fixation_cross_thickness":1,"border":true,"border_thickness":2,"border_color":"transparent","canvas_width":1536,"canvas_height":864,"trial_type":"rdk","trial_index":68,"plugin_version":"2.0.0","time_elapsed":345007},{"rt":3339,"stimulus":"\n        <div class=\"response-container\">\n          <div class=\"response-instruction\">\n            <p>rotate the bar by using the left and right arrow keys.</p>\n            <p>when you are determined, press the Enter key.</p>\n          </div>\n          <div class=\"response-circle\">\n            <div class=\"response-fixation\"></div>\n            <div id=\"bar\" class=\"rotating-bar\"></div>\n          </div>\n        </div>\n      ","response":"Enter","trial_type":"html-keyboard-response","trial_index":69,"plugin_version":"2.1.0","time_elapsed":348346,"random_initial_angle":231,"response_angle_css":113,"response_angle_rdk":337,"angular_error_target":-7,"angular_error_distractor":86,"target_direction":344,"target_group":"white","reward_points":8},{"rt":null,"stimulus":"\n          <p style=\"color: #00FF00;\">Your reward: 8 points</p>\n        ","response":null,"trial_type":"html-keyboard-response","trial_index":70,"plugin_version":"2.1.0","time_elapsed":350362},{"rt":null,"stimulus":"<div class=\"fixation\" style=\"font-size: 60px;\">+</div>","response":null,"trial_type":"html-keyboard-response","trial_index":71,"plugin_version":"2.1.0","time_elapsed":351375},{"target_group":"black","condition_label":"B_H_vs_W_L_rep18","target_direction":89,"distractor_direction":186,"session_rotation":341,"rt":-1,"response":"","correct":false,"choices":"ALL_KEYS","correct_choice":["a"],"trial_duration":2000,"flip_timestamps":[],"response_ends_trial":false,"number_of_apertures":200,"number_of_dots":[1,1,1,1,1,1,1,1,1,1,1,1,1,1,1,1,1,1,1,1,1,1,1,1,1,1,1,1,1,1,1,1,1,1,1,1,1,1,1,1,1,1,1,1,1,1,1,1,1,1,1,1,1,1,1,1,1,1,1,1,1,1,1,1,1,1,1,1,1,1,1,1,1,1,1,1,1,1,1,1,1,1,1,1,1,1,1,1,1,1,1,1,1,1,1,1,1,1,1,1,1,1,1,1,1,1,1,1,1,1,1,1,1,1,1,1,1,1,1,1,1,1,1,1,1,1,1,1,1,1,1,1,1,1,1,1,1,1,1,1,1,1,1,1,1,1,1,1,1,1,1,1,1,1,1,1,1,1,1,1,1,1,1,1,1,1,1,1,1,1,1,1,1,1,1,1,1,1,1,1,1,1,1,1,1,1,1,1,1,1,1,1,1,1,1,1,1,1,1,1],"number_of_sets":1,"coherent_direction":[186,186,186,89,89,186,89,186,89,89,89,89,89,89,186,89,186,186,89,89,186,186,89,186,186,186,89,89,89,89,186,89,186,186,89,186,89,89,89,89,186,186,89,89,89,89,89,186,186,186,89,89,89,186,89,89,89,89,186,89,89,186,186,89,186,89,186,186,186,186,186,89,186,186,89,89,89,89,89,186,186,89,186,89,186,89,89,186,89,89,89,186,186,89,89,186,89,186,89,186,186,186,186,89,186,186,186,89,89,186,186,89,186,89,186,186,186,89,89,186,186,89,186,186,89,186,89,89,89,186,186,89,186,89,186,186,89,89,89,186,186,89,89,89,186,186,89,89,186,186,89,89,89,186,89,186,89,186,89,89,186,186,186,186,89,89,89,186,186,186,186,186,186,89,186,186,186,186,186,186,186,186,186,186,89,186,89,89,89,186,186,186,89,186,89,89,89,89,89,89],"coherence":1,"opposite_coherence":0,"dot_radius":2,"dot_side_length":1,"dot_life":-1,"move_distance":1,"aperture_width":300,"aperture_height":300,"dot_color":["white","white","white","black","black","white","black","white","black","black","black","black","black","black","white","black","white","white","black","black","white","white","black","white","white","white","black","black","black","black","white","black","white","white","black","white","black","black","black","black","white","white","black","black","black","black","black","white","white","white","black","black","black","white","black","black","black","black","white","black","black","white","white","black","white","black","white","white","white","white","white","black","white","white","black","black","black","black","black","white","white","black","white","black","white","black","black","white","black","black","black","white","white","black","black","white","black","white","black","white","white","white","white","black","white","white","white","black","black","white","white","black","white","black","white","white","white","black","black","white","white","black","white","white","black","white","black","black","black","white","white","black","white","black","white","white","black","black","black","white","white","black","black","black","white","white","black","black","white","white","black","black","black","white","black","white","black","white","black","black","white","white","white","white","black","black","black","white","white","white","white","white","white","black","white","white","white","white","white","white","white","white","white","white","black","white","black","black","black","white","white","white","black","white","black","black","black","black","black","black"],"dot_shape":"circle","background_color":"#AAA","RDK_type":3,"aperture_type":2,"reinsert_type":2,"frame_rate":16.65289256198347,"frame_rate_array":[3,17,17,18,16,17,16,19,15,17,17,16,18,16,17,15,18,17,17,16,15,18,16,17,16,18,17,16,17,16,18,17,15,17,18,16,17,15,18,18,16,15,17,17,16,18,15,16,16,17,16,17,16,17,17,17,16,17,17,17,16,17,16,17,16,17,17,17,17,17,17,17,17,17,17,17,17,17,17,17,18,17,17,17,18,16,16,17,17,16,17,17,18,17,16,17,17,17,17,17,17,16,17,17,17,17,17,17,17,17,16,17,17,17,16,17,16,17,17,16,17],"number_of_frames":121,"aperture_center_x":768,"aperture_center_y":432,"fixation_cross":true,"fixation_cross_width":15,"fixation_cross_height":15,"fixation_cross_color":"#111","fixation_cross_thickness":1,"border":true,"border_thickness":2,"border_color":"transparent","canvas_width":1536,"canvas_height":864,"trial_type":"rdk","trial_index":72,"plugin_version":"2.0.0","time_elapsed":353382},{"rt":1882,"stimulus":"\n        <div class=\"response-container\">\n          <div class=\"response-instruction\">\n            <p>rotate the bar by using the left and right arrow keys.</p>\n            <p>when you are determined, press the Enter key.</p>\n          </div>\n          <div class=\"response-circle\">\n            <div class=\"response-fixation\"></div>\n            <div id=\"bar\" class=\"rotating-bar\"></div>\n          </div>\n        </div>\n      ","response":"Enter","trial_type":"html-keyboard-response","trial_index":73,"plugin_version":"2.1.0","time_elapsed":355265,"random_initial_angle":14,"response_angle_css":-5,"response_angle_rdk":95,"angular_error_target":6,"angular_error_distractor":-91,"target_direction":89,"target_group":"black","reward_points":8},{"rt":null,"stimulus":"\n          <p style=\"color: #00FF00;\">Your reward: 8 points</p>\n        ","response":null,"trial_type":"html-keyboard-response","trial_index":74,"plugin_version":"2.1.0","time_elapsed":357269},{"rt":null,"stimulus":"<div class=\"fixation\" style=\"font-size: 60px;\">+</div>","response":null,"trial_type":"html-keyboard-response","trial_index":75,"plugin_version":"2.1.0","time_elapsed":358283},{"target_group":"white","condition_label":"W_H_vs_B_L_rep15","target_direction":19,"distractor_direction":271,"session_rotation":341,"rt":-1,"response":"","correct":false,"choices":"ALL_KEYS","correct_choice":["a"],"trial_duration":2000,"flip_timestamps":[],"response_ends_trial":false,"number_of_apertures":200,"number_of_dots":[1,1,1,1,1,1,1,1,1,1,1,1,1,1,1,1,1,1,1,1,1,1,1,1,1,1,1,1,1,1,1,1,1,1,1,1,1,1,1,1,1,1,1,1,1,1,1,1,1,1,1,1,1,1,1,1,1,1,1,1,1,1,1,1,1,1,1,1,1,1,1,1,1,1,1,1,1,1,1,1,1,1,1,1,1,1,1,1,1,1,1,1,1,1,1,1,1,1,1,1,1,1,1,1,1,1,1,1,1,1,1,1,1,1,1,1,1,1,1,1,1,1,1,1,1,1,1,1,1,1,1,1,1,1,1,1,1,1,1,1,1,1,1,1,1,1,1,1,1,1,1,1,1,1,1,1,1,1,1,1,1,1,1,1,1,1,1,1,1,1,1,1,1,1,1,1,1,1,1,1,1,1,1,1,1,1,1,1,1,1,1,1,1,1,1,1,1,1,1,1],"number_of_sets":1,"coherent_direction":[19,19,271,19,271,271,19,271,19,19,271,271,19,19,19,271,271,271,271,271,19,19,271,19,271,271,271,19,19,19,271,271,19,271,19,271,19,271,271,271,271,271,19,271,271,271,19,19,271,19,19,19,19,19,271,271,271,271,271,271,271,271,19,271,271,271,271,271,19,19,271,19,19,19,271,19,19,271,19,19,19,271,271,271,19,19,19,19,19,271,271,271,271,271,19,271,19,271,19,19,19,271,271,19,271,271,19,19,271,271,271,19,19,271,19,19,271,19,19,19,271,271,271,19,19,19,271,19,271,19,271,19,19,19,19,19,271,19,19,271,271,19,19,19,19,271,19,19,271,19,19,271,19,271,19,19,271,271,271,19,271,271,19,271,19,19,271,271,271,19,271,271,19,19,271,19,271,19,19,271,19,19,19,19,19,271,271,271,271,271,271,19,19,19,19,271,271,271,19,271],"coherence":1,"opposite_coherence":0,"dot_radius":2,"dot_side_length":1,"dot_life":-1,"move_distance":1,"aperture_width":300,"aperture_height":300,"dot_color":["white","white","black","white","black","black","white","black","white","white","black","black","white","white","white","black","black","black","black","black","white","white","black","white","black","black","black","white","white","white","black","black","white","black","white","black","white","black","black","black","black","black","white","black","black","black","white","white","black","white","white","white","white","white","black","black","black","black","black","black","black","black","white","black","black","black","black","black","white","white","black","white","white","white","black","white","white","black","white","white","white","black","black","black","white","white","white","white","white","black","black","black","black","black","white","black","white","black","white","white","white","black","black","white","black","black","white","white","black","black","black","white","white","black","white","white","black","white","white","white","black","black","black","white","white","white","black","white","black","white","black","white","white","white","white","white","black","white","white","black","black","white","white","white","white","black","white","white","black","white","white","black","white","black","white","white","black","black","black","white","black","black","white","black","white","white","black","black","black","white","black","black","white","white","black","white","black","white","white","black","white","white","white","white","white","black","black","black","black","black","black","white","white","white","white","black","black","black","white","black"],"dot_shape":"circle","background_color":"#AAA","RDK_type":3,"aperture_type":2,"reinsert_type":2,"frame_rate":16.59504132231405,"frame_rate_array":[5,17,18,16,16,17,16,17,17,17,17,16,18,15,17,16,17,17,16,17,16,17,17,17,17,16,17,17,16,18,16,17,16,17,17,16,17,16,17,17,16,16,18,17,16,16,17,17,16,17,17,17,16,17,16,17,16,17,17,16,18,16,17,17,17,17,16,17,17,17,16,17,16,17,16,17,16,17,17,17,17,16,17,16,18,16,17,16,17,18,15,17,18,16,17,17,17,17,16,17,17,16,17,17,16,17,16,17,16,17,17,17,16,18,16,17,17,16,17,17,16],"number_of_frames":121,"aperture_center_x":768,"aperture_center_y":432,"fixation_cross":true,"fixation_cross_width":15,"fixation_cross_height":15,"fixation_cross_color":"#111","fixation_cross_thickness":1,"border":true,"border_thickness":2,"border_color":"transparent","canvas_width":1536,"canvas_height":864,"trial_type":"rdk","trial_index":76,"plugin_version":"2.0.0","time_elapsed":360291},{"rt":3096,"stimulus":"\n        <div class=\"response-container\">\n          <div class=\"response-instruction\">\n            <p>rotate the bar by using the left and right arrow keys.</p>\n            <p>when you are determined, press the Enter key.</p>\n          </div>\n          <div class=\"response-circle\">\n            <div class=\"response-fixation\"></div>\n            <div id=\"bar\" class=\"rotating-bar\"></div>\n          </div>\n        </div>\n      ","response":"Enter","trial_type":"html-keyboard-response","trial_index":77,"plugin_version":"2.1.0","time_elapsed":363390,"random_initial_angle":127,"response_angle_css":57,"response_angle_rdk":33,"angular_error_target":14,"angular_error_distractor":122,"target_direction":19,"target_group":"white","reward_points":7},{"rt":null,"stimulus":"\n          <p style=\"color: #00FF00;\">Your reward: 7 points</p>\n        ","response":null,"trial_type":"html-keyboard-response","trial_index":78,"plugin_version":"2.1.0","time_elapsed":365395},{"rt":null,"stimulus":"<div class=\"fixation\" style=\"font-size: 60px;\">+</div>","response":null,"trial_type":"html-keyboard-response","trial_index":79,"plugin_version":"2.1.0","time_elapsed":366405},{"target_group":"white","condition_label":"W_H_vs_B_L_rep4","target_direction":25,"distractor_direction":279,"session_rotation":341,"rt":-1,"response":"","correct":false,"choices":"ALL_KEYS","correct_choice":["a"],"trial_duration":2000,"flip_timestamps":[],"response_ends_trial":false,"number_of_apertures":200,"number_of_dots":[1,1,1,1,1,1,1,1,1,1,1,1,1,1,1,1,1,1,1,1,1,1,1,1,1,1,1,1,1,1,1,1,1,1,1,1,1,1,1,1,1,1,1,1,1,1,1,1,1,1,1,1,1,1,1,1,1,1,1,1,1,1,1,1,1,1,1,1,1,1,1,1,1,1,1,1,1,1,1,1,1,1,1,1,1,1,1,1,1,1,1,1,1,1,1,1,1,1,1,1,1,1,1,1,1,1,1,1,1,1,1,1,1,1,1,1,1,1,1,1,1,1,1,1,1,1,1,1,1,1,1,1,1,1,1,1,1,1,1,1,1,1,1,1,1,1,1,1,1,1,1,1,1,1,1,1,1,1,1,1,1,1,1,1,1,1,1,1,1,1,1,1,1,1,1,1,1,1,1,1,1,1,1,1,1,1,1,1,1,1,1,1,1,1,1,1,1,1,1,1],"number_of_sets":1,"coherent_direction":[25,279,279,279,279,279,25,25,279,25,25,279,279,279,279,25,279,25,279,279,279,279,279,25,279,25,279,279,279,25,25,279,279,25,25,25,279,25,25,279,279,25,25,25,25,25,25,25,279,279,279,25,25,279,25,25,25,25,279,279,25,25,279,279,279,25,25,25,25,25,279,25,279,279,25,25,279,279,25,25,25,25,25,279,279,279,25,25,279,25,25,279,25,25,279,25,279,279,25,25,279,279,279,25,25,25,25,25,279,279,279,279,279,25,279,279,25,279,25,279,279,25,25,279,25,279,25,279,279,279,25,25,279,25,279,25,25,25,25,279,279,25,25,279,25,25,279,279,25,279,279,25,25,25,279,279,279,25,279,25,279,25,279,279,25,25,279,279,279,25,279,279,279,25,279,25,25,279,279,279,25,25,279,25,279,25,25,279,25,279,25,25,279,279,279,279,25,279,25,25],"coherence":1,"opposite_coherence":0,"dot_radius":2,"dot_side_length":1,"dot_life":-1,"move_distance":1,"aperture_width":300,"aperture_height":300,"dot_color":["white","black","black","black","black","black","white","white","black","white","white","black","black","black","black","white","black","white","black","black","black","black","black","white","black","white","black","black","black","white","white","black","black","white","white","white","black","white","white","black","black","white","white","white","white","white","white","white","black","black","black","white","white","black","white","white","white","white","black","black","white","white","black","black","black","white","white","white","white","white","black","white","black","black","white","white","black","black","white","white","white","white","white","black","black","black","white","white","black","white","white","black","white","white","black","white","black","black","white","white","black","black","black","white","white","white","white","white","black","black","black","black","black","white","black","black","white","black","white","black","black","white","white","black","white","black","white","black","black","black","white","white","black","white","black","white","white","white","white","black","black","white","white","black","white","white","black","black","white","black","black","white","white","white","black","black","black","white","black","white","black","white","black","black","white","white","black","black","black","white","black","black","black","white","black","white","white","black","black","black","white","white","black","white","black","white","white","black","white","black","white","white","black","black","black","black","white","black","white","white"],"dot_shape":"circle","background_color":"#AAA","RDK_type":3,"aperture_type":2,"reinsert_type":2,"frame_rate":16.66115702479339,"frame_rate_array":[10,16,17,18,16,17,17,16,17,16,17,17,17,17,16,17,17,17,16,17,17,17,16,17,16,17,16,17,17,15,17,17,16,17,17,16,17,17,16,17,16,18,16,17,17,17,16,17,17,17,17,16,16,16,18,15,17,17,17,17,16,17,17,17,16,16,18,16,17,17,17,17,17,17,16,17,17,18,16,17,17,17,16,17,17,17,17,17,17,17,16,17,16,17,17,16,17,16,17,17,16,18,16,17,16,17,17,17,16,17,17,16,17,17,17,17,16,17,16,17,17],"number_of_frames":121,"aperture_center_x":768,"aperture_center_y":432,"fixation_cross":true,"fixation_cross_width":15,"fixation_cross_height":15,"fixation_cross_color":"#111","fixation_cross_thickness":1,"border":true,"border_thickness":2,"border_color":"transparent","canvas_width":1536,"canvas_height":864,"trial_type":"rdk","trial_index":80,"plugin_version":"2.0.0","time_elapsed":368417},{"rt":1414,"stimulus":"\n        <div class=\"response-container\">\n          <div class=\"response-instruction\">\n            <p>rotate the bar by using the left and right arrow keys.</p>\n            <p>when you are determined, press the Enter key.</p>\n          </div>\n          <div class=\"response-circle\">\n            <div class=\"response-fixation\"></div>\n            <div id=\"bar\" class=\"rotating-bar\"></div>\n          </div>\n        </div>\n      ","response":"Enter","trial_type":"html-keyboard-response","trial_index":81,"plugin_version":"2.1.0","time_elapsed":369832,"random_initial_angle":54,"response_angle_css":67,"response_angle_rdk":23,"angular_error_target":-2,"angular_error_distractor":104,"target_direction":25,"target_group":"white","reward_points":9},{"rt":null,"stimulus":"\n          <p style=\"color: #00FF00;\">Your reward: 9 points</p>\n        ","response":null,"trial_type":"html-keyboard-response","trial_index":82,"plugin_version":"2.1.0","time_elapsed":371840},{"rt":null,"stimulus":"<div class=\"fixation\" style=\"font-size: 60px;\">+</div>","response":null,"trial_type":"html-keyboard-response","trial_index":83,"plugin_version":"2.1.0","time_elapsed":372852},{"target_group":"white","condition_label":"W_H_vs_B_L_rep2","target_direction":7,"distractor_direction":252,"session_rotation":341,"rt":-1,"response":"","correct":false,"choices":"ALL_KEYS","correct_choice":["a"],"trial_duration":2000,"flip_timestamps":[],"response_ends_trial":false,"number_of_apertures":200,"number_of_dots":[1,1,1,1,1,1,1,1,1,1,1,1,1,1,1,1,1,1,1,1,1,1,1,1,1,1,1,1,1,1,1,1,1,1,1,1,1,1,1,1,1,1,1,1,1,1,1,1,1,1,1,1,1,1,1,1,1,1,1,1,1,1,1,1,1,1,1,1,1,1,1,1,1,1,1,1,1,1,1,1,1,1,1,1,1,1,1,1,1,1,1,1,1,1,1,1,1,1,1,1,1,1,1,1,1,1,1,1,1,1,1,1,1,1,1,1,1,1,1,1,1,1,1,1,1,1,1,1,1,1,1,1,1,1,1,1,1,1,1,1,1,1,1,1,1,1,1,1,1,1,1,1,1,1,1,1,1,1,1,1,1,1,1,1,1,1,1,1,1,1,1,1,1,1,1,1,1,1,1,1,1,1,1,1,1,1,1,1,1,1,1,1,1,1,1,1,1,1,1,1],"number_of_sets":1,"coherent_direction":[252,7,7,252,252,252,7,7,7,7,7,7,252,7,252,252,252,252,7,7,252,252,7,252,7,7,252,7,252,7,7,252,252,252,7,7,252,7,252,7,7,252,7,7,252,7,252,7,252,7,252,7,252,7,7,7,252,7,252,252,252,7,252,252,252,252,252,252,252,7,7,252,252,7,252,7,252,252,7,7,252,252,252,252,7,7,252,252,252,7,252,252,7,7,252,252,7,7,252,7,252,252,252,7,252,252,7,7,7,7,7,252,252,252,7,252,7,7,7,7,252,7,7,7,252,7,252,7,252,252,7,252,7,252,252,7,7,252,7,252,7,7,252,7,7,252,7,7,7,252,7,252,7,252,252,7,252,7,252,252,7,7,252,7,7,7,252,252,252,252,252,7,7,252,7,7,252,252,7,252,7,252,7,252,252,7,252,7,252,7,7,252,252,7,7,7,7,7,252,252],"coherence":1,"opposite_coherence":0,"dot_radius":2,"dot_side_length":1,"dot_life":-1,"move_distance":1,"aperture_width":300,"aperture_height":300,"dot_color":["black","white","white","black","black","black","white","white","white","white","white","white","black","white","black","black","black","black","white","white","black","black","white","black","white","white","black","white","black","white","white","black","black","black","white","white","black","white","black","white","white","black","white","white","black","white","black","white","black","white","black","white","black","white","white","white","black","white","black","black","black","white","black","black","black","black","black","black","black","white","white","black","black","white","black","white","black","black","white","white","black","black","black","black","white","white","black","black","black","white","black","black","white","white","black","black","white","white","black","white","black","black","black","white","black","black","white","white","white","white","white","black","black","black","white","black","white","white","white","white","black","white","white","white","black","white","black","white","black","black","white","black","white","black","black","white","white","black","white","black","white","white","black","white","white","black","white","white","white","black","white","black","white","black","black","white","black","white","black","black","white","white","black","white","white","white","black","black","black","black","black","white","white","black","white","white","black","black","white","black","white","black","white","black","black","white","black","white","black","white","white","black","black","white","white","white","white","white","black","black"],"dot_shape":"circle","background_color":"#AAA","RDK_type":3,"aperture_type":2,"reinsert_type":2,"frame_rate":16.644628099173552,"frame_rate_array":[5,18,18,15,17,17,16,17,16,17,17,17,16,17,16,17,17,17,17,17,17,16,18,16,16,17,17,16,17,17,17,16,17,18,16,16,18,16,17,16,17,17,16,16,17,17,17,17,16,18,15,18,16,17,17,17,17,17,17,16,17,17,16,18,16,17,17,16,17,17,16,17,16,17,17,17,17,16,16,17,16,17,16,18,16,18,16,17,16,17,16,17,18,16,17,16,17,17,16,17,18,16,16,19,14,17,17,17,17,17,17,17,17,17,16,18,16,17,17,18,15],"number_of_frames":121,"aperture_center_x":768,"aperture_center_y":432,"fixation_cross":true,"fixation_cross_width":15,"fixation_cross_height":15,"fixation_cross_color":"#111","fixation_cross_thickness":1,"border":true,"border_thickness":2,"border_color":"transparent","canvas_width":1536,"canvas_height":864,"trial_type":"rdk","trial_index":84,"plugin_version":"2.0.0","time_elapsed":374861},{"rt":3442,"stimulus":"\n        <div class=\"response-container\">\n          <div class=\"response-instruction\">\n            <p>rotate the bar by using the left and right arrow keys.</p>\n            <p>when you are determined, press the Enter key.</p>\n          </div>\n          <div class=\"response-circle\">\n            <div class=\"response-fixation\"></div>\n            <div id=\"bar\" class=\"rotating-bar\"></div>\n          </div>\n        </div>\n      ","response":"Enter","trial_type":"html-keyboard-response","trial_index":85,"plugin_version":"2.1.0","time_elapsed":378304,"random_initial_angle":83,"response_angle_css":88,"response_angle_rdk":2,"angular_error_target":-5,"angular_error_distractor":110,"target_direction":7,"target_group":"white","reward_points":9},{"rt":null,"stimulus":"\n          <p style=\"color: #00FF00;\">Your reward: 9 points</p>\n        ","response":null,"trial_type":"html-keyboard-response","trial_index":86,"plugin_version":"2.1.0","time_elapsed":380313},{"rt":null,"stimulus":"<div class=\"fixation\" style=\"font-size: 60px;\">+</div>","response":null,"trial_type":"html-keyboard-response","trial_index":87,"plugin_version":"2.1.0","time_elapsed":381320},{"target_group":"white","condition_label":"W_H_vs_B_L_rep12","target_direction":356,"distractor_direction":266,"session_rotation":341,"rt":-1,"response":"","correct":false,"choices":"ALL_KEYS","correct_choice":["a"],"trial_duration":2000,"flip_timestamps":[],"response_ends_trial":false,"number_of_apertures":200,"number_of_dots":[1,1,1,1,1,1,1,1,1,1,1,1,1,1,1,1,1,1,1,1,1,1,1,1,1,1,1,1,1,1,1,1,1,1,1,1,1,1,1,1,1,1,1,1,1,1,1,1,1,1,1,1,1,1,1,1,1,1,1,1,1,1,1,1,1,1,1,1,1,1,1,1,1,1,1,1,1,1,1,1,1,1,1,1,1,1,1,1,1,1,1,1,1,1,1,1,1,1,1,1,1,1,1,1,1,1,1,1,1,1,1,1,1,1,1,1,1,1,1,1,1,1,1,1,1,1,1,1,1,1,1,1,1,1,1,1,1,1,1,1,1,1,1,1,1,1,1,1,1,1,1,1,1,1,1,1,1,1,1,1,1,1,1,1,1,1,1,1,1,1,1,1,1,1,1,1,1,1,1,1,1,1,1,1,1,1,1,1,1,1,1,1,1,1,1,1,1,1,1,1],"number_of_sets":1,"coherent_direction":[356,266,266,356,266,356,356,356,356,356,356,266,266,356,266,356,356,356,356,356,266,266,356,356,356,266,356,356,266,266,356,266,266,356,266,356,266,266,266,356,356,266,266,356,266,266,356,266,266,356,356,266,266,356,356,356,266,356,356,356,356,356,266,356,356,266,356,266,266,356,356,356,356,356,356,266,266,356,266,266,266,356,266,356,266,266,356,266,266,266,266,356,356,266,266,266,266,266,356,266,356,266,356,356,356,266,266,266,356,356,266,266,266,356,266,356,356,266,266,356,266,356,356,266,356,266,356,266,356,356,356,266,266,266,356,356,266,266,266,266,266,356,356,356,266,266,266,266,266,356,266,266,356,356,266,266,356,266,356,266,356,266,266,356,266,356,356,266,266,356,356,356,266,266,266,266,266,356,266,356,356,356,356,356,266,356,356,356,266,266,356,266,356,266,356,266,266,266,356,356],"coherence":1,"opposite_coherence":0,"dot_radius":2,"dot_side_length":1,"dot_life":-1,"move_distance":1,"aperture_width":300,"aperture_height":300,"dot_color":["white","black","black","white","black","white","white","white","white","white","white","black","black","white","black","white","white","white","white","white","black","black","white","white","white","black","white","white","black","black","white","black","black","white","black","white","black","black","black","white","white","black","black","white","black","black","white","black","black","white","white","black","black","white","white","white","black","white","white","white","white","white","black","white","white","black","white","black","black","white","white","white","white","white","white","black","black","white","black","black","black","white","black","white","black","black","white","black","black","black","black","white","white","black","black","black","black","black","white","black","white","black","white","white","white","black","black","black","white","white","black","black","black","white","black","white","white","black","black","white","black","white","white","black","white","black","white","black","white","white","white","black","black","black","white","white","black","black","black","black","black","white","white","white","black","black","black","black","black","white","black","black","white","white","black","black","white","black","white","black","white","black","black","white","black","white","white","black","black","white","white","white","black","black","black","black","black","white","black","white","white","white","white","white","black","white","white","white","black","black","white","black","white","black","white","black","black","black","white","white"],"dot_shape":"circle","background_color":"#AAA","RDK_type":3,"aperture_type":2,"reinsert_type":2,"frame_rate":16.65289256198347,"frame_rate_array":[13,17,17,16,17,17,16,17,17,16,17,16,17,17,17,17,17,16,17,17,16,17,16,17,17,16,17,17,17,16,17,16,17,16,18,16,16,18,17,17,17,16,17,17,16,17,17,16,17,16,17,17,17,16,17,17,17,17,16,17,17,16,18,16,17,17,16,17,17,17,16,16,17,16,17,17,17,16,17,17,16,16,17,16,17,16,17,17,16,17,16,17,18,16,17,16,18,15,17,16,17,17,17,17,16,16,17,16,17,16,17,17,16,17,17,17,24,9,17,17,17],"number_of_frames":121,"aperture_center_x":768,"aperture_center_y":432,"fixation_cross":true,"fixation_cross_width":15,"fixation_cross_height":15,"fixation_cross_color":"#111","fixation_cross_thickness":1,"border":true,"border_thickness":2,"border_color":"transparent","canvas_width":1536,"canvas_height":864,"trial_type":"rdk","trial_index":88,"plugin_version":"2.0.0","time_elapsed":383336},{"rt":4788,"stimulus":"\n        <div class=\"response-container\">\n          <div class=\"response-instruction\">\n            <p>rotate the bar by using the left and right arrow keys.</p>\n            <p>when you are determined, press the Enter key.</p>\n          </div>\n          <div class=\"response-circle\">\n            <div class=\"response-fixation\"></div>\n            <div id=\"bar\" class=\"rotating-bar\"></div>\n          </div>\n        </div>\n      ","response":"Enter","trial_type":"html-keyboard-response","trial_index":89,"plugin_version":"2.1.0","time_elapsed":388126,"random_initial_angle":239,"response_angle_css":91,"response_angle_rdk":359,"angular_error_target":3,"angular_error_distractor":93,"target_direction":356,"target_group":"white","reward_points":9},{"rt":null,"stimulus":"\n          <p style=\"color: #00FF00;\">Your reward: 9 points</p>\n        ","response":null,"trial_type":"html-keyboard-response","trial_index":90,"plugin_version":"2.1.0","time_elapsed":390139},{"rt":null,"stimulus":"<div class=\"fixation\" style=\"font-size: 60px;\">+</div>","response":null,"trial_type":"html-keyboard-response","trial_index":91,"plugin_version":"2.1.0","time_elapsed":391153},{"target_group":"white","condition_label":"W_H_vs_B_L_rep6","target_direction":22,"distractor_direction":291,"session_rotation":341,"rt":-1,"response":"","correct":false,"choices":"ALL_KEYS","correct_choice":["a"],"trial_duration":2000,"flip_timestamps":[],"response_ends_trial":false,"number_of_apertures":200,"number_of_dots":[1,1,1,1,1,1,1,1,1,1,1,1,1,1,1,1,1,1,1,1,1,1,1,1,1,1,1,1,1,1,1,1,1,1,1,1,1,1,1,1,1,1,1,1,1,1,1,1,1,1,1,1,1,1,1,1,1,1,1,1,1,1,1,1,1,1,1,1,1,1,1,1,1,1,1,1,1,1,1,1,1,1,1,1,1,1,1,1,1,1,1,1,1,1,1,1,1,1,1,1,1,1,1,1,1,1,1,1,1,1,1,1,1,1,1,1,1,1,1,1,1,1,1,1,1,1,1,1,1,1,1,1,1,1,1,1,1,1,1,1,1,1,1,1,1,1,1,1,1,1,1,1,1,1,1,1,1,1,1,1,1,1,1,1,1,1,1,1,1,1,1,1,1,1,1,1,1,1,1,1,1,1,1,1,1,1,1,1,1,1,1,1,1,1,1,1,1,1,1,1],"number_of_sets":1,"coherent_direction":[22,291,22,291,291,22,22,22,22,291,22,291,291,22,22,22,22,22,291,22,291,291,291,291,291,22,22,22,22,291,22,22,291,22,22,22,22,22,22,291,291,291,22,22,22,22,22,291,22,22,291,22,22,291,291,291,22,22,22,291,22,291,291,291,22,22,22,291,291,22,291,22,22,22,22,291,291,291,22,291,291,291,291,22,22,291,22,291,291,291,291,291,291,291,291,22,291,22,22,291,22,22,22,291,291,22,22,291,22,22,291,291,291,291,22,291,291,291,22,22,22,22,22,22,291,291,291,22,22,22,291,291,291,291,22,291,291,291,291,22,291,291,291,22,22,22,291,22,291,291,22,22,22,22,291,291,22,291,22,291,291,22,291,22,22,22,22,291,22,291,22,22,291,291,291,291,291,291,22,291,291,291,22,22,291,291,22,22,22,291,22,291,22,22,291,291,291,22,291,291],"coherence":1,"opposite_coherence":0,"dot_radius":2,"dot_side_length":1,"dot_life":-1,"move_distance":1,"aperture_width":300,"aperture_height":300,"dot_color":["white","black","white","black","black","white","white","white","white","black","white","black","black","white","white","white","white","white","black","white","black","black","black","black","black","white","white","white","white","black","white","white","black","white","white","white","white","white","white","black","black","black","white","white","white","white","white","black","white","white","black","white","white","black","black","black","white","white","white","black","white","black","black","black","white","white","white","black","black","white","black","white","white","white","white","black","black","black","white","black","black","black","black","white","white","black","white","black","black","black","black","black","black","black","black","white","black","white","white","black","white","white","white","black","black","white","white","black","white","white","black","black","black","black","white","black","black","black","white","white","white","white","white","white","black","black","black","white","white","white","black","black","black","black","white","black","black","black","black","white","black","black","black","white","white","white","black","white","black","black","white","white","white","white","black","black","white","black","white","black","black","white","black","white","white","white","white","black","white","black","white","white","black","black","black","black","black","black","white","black","black","black","white","white","black","black","white","white","white","black","white","black","white","white","black","black","black","white","black","black"],"dot_shape":"circle","background_color":"#AAA","RDK_type":3,"aperture_type":2,"reinsert_type":2,"frame_rate":16.66115702479339,"frame_rate_array":[5,17,17,17,17,17,16,17,17,16,17,17,17,16,17,17,16,17,18,16,17,16,17,16,17,17,17,17,17,17,17,17,17,16,17,17,17,17,16,18,16,18,15,17,17,18,16,17,16,17,17,17,16,17,16,17,16,18,16,17,16,17,18,16,17,17,16,17,17,16,16,18,17,16,17,17,17,17,15,18,16,18,16,17,17,16,17,16,18,16,17,16,17,17,16,17,16,18,16,17,17,17,17,16,17,17,17,17,16,18,16,17,16,17,17,16,17,17,16,17,17],"number_of_frames":121,"aperture_center_x":768,"aperture_center_y":432,"fixation_cross":true,"fixation_cross_width":15,"fixation_cross_height":15,"fixation_cross_color":"#111","fixation_cross_thickness":1,"border":true,"border_thickness":2,"border_color":"transparent","canvas_width":1536,"canvas_height":864,"trial_type":"rdk","trial_index":92,"plugin_version":"2.0.0","time_elapsed":393162},{"rt":2838,"stimulus":"\n        <div class=\"response-container\">\n          <div class=\"response-instruction\">\n            <p>rotate the bar by using the left and right arrow keys.</p>\n            <p>when you are determined, press the Enter key.</p>\n          </div>\n          <div class=\"response-circle\">\n            <div class=\"response-fixation\"></div>\n            <div id=\"bar\" class=\"rotating-bar\"></div>\n          </div>\n        </div>\n      ","response":"Enter","trial_type":"html-keyboard-response","trial_index":93,"plugin_version":"2.1.0","time_elapsed":396001,"random_initial_angle":67,"response_angle_css":84,"response_angle_rdk":6,"angular_error_target":-16,"angular_error_distractor":75,"target_direction":22,"target_group":"white","reward_points":6},{"rt":null,"stimulus":"\n          <p style=\"color: #00FF00;\">Your reward: 6 points</p>\n        ","response":null,"trial_type":"html-keyboard-response","trial_index":94,"plugin_version":"2.1.0","time_elapsed":398010},{"rt":null,"stimulus":"<div class=\"fixation\" style=\"font-size: 60px;\">+</div>","response":null,"trial_type":"html-keyboard-response","trial_index":95,"plugin_version":"2.1.0","time_elapsed":399018},{"target_group":"white","condition_label":"W_H_vs_B_L_rep19","target_direction":22,"distractor_direction":260,"session_rotation":341,"rt":-1,"response":"","correct":false,"choices":"ALL_KEYS","correct_choice":["a"],"trial_duration":2000,"flip_timestamps":[],"response_ends_trial":false,"number_of_apertures":200,"number_of_dots":[1,1,1,1,1,1,1,1,1,1,1,1,1,1,1,1,1,1,1,1,1,1,1,1,1,1,1,1,1,1,1,1,1,1,1,1,1,1,1,1,1,1,1,1,1,1,1,1,1,1,1,1,1,1,1,1,1,1,1,1,1,1,1,1,1,1,1,1,1,1,1,1,1,1,1,1,1,1,1,1,1,1,1,1,1,1,1,1,1,1,1,1,1,1,1,1,1,1,1,1,1,1,1,1,1,1,1,1,1,1,1,1,1,1,1,1,1,1,1,1,1,1,1,1,1,1,1,1,1,1,1,1,1,1,1,1,1,1,1,1,1,1,1,1,1,1,1,1,1,1,1,1,1,1,1,1,1,1,1,1,1,1,1,1,1,1,1,1,1,1,1,1,1,1,1,1,1,1,1,1,1,1,1,1,1,1,1,1,1,1,1,1,1,1,1,1,1,1,1,1],"number_of_sets":1,"coherent_direction":[260,22,260,22,22,260,260,22,22,22,260,22,260,22,260,260,260,22,22,22,260,260,22,260,260,22,260,22,260,22,260,22,260,22,260,260,22,22,260,22,260,22,260,260,260,260,260,260,22,22,22,260,260,260,22,22,22,22,22,260,22,260,22,260,260,260,22,260,22,22,260,260,260,22,22,22,260,22,260,22,260,260,260,260,22,22,260,260,260,260,22,260,22,22,22,22,22,22,22,260,260,22,260,260,260,22,260,260,22,22,260,260,22,260,22,22,22,260,22,22,22,260,22,260,260,22,22,22,260,260,260,22,260,22,260,22,260,22,260,260,260,260,22,260,260,260,22,22,260,260,22,22,22,22,260,22,260,22,22,22,260,260,22,260,260,22,22,22,260,260,22,260,260,22,22,22,22,22,22,260,22,260,22,260,260,22,22,260,22,22,260,22,260,260,260,260,22,22,22,260],"coherence":1,"opposite_coherence":0,"dot_radius":2,"dot_side_length":1,"dot_life":-1,"move_distance":1,"aperture_width":300,"aperture_height":300,"dot_color":["black","white","black","white","white","black","black","white","white","white","black","white","black","white","black","black","black","white","white","white","black","black","white","black","black","white","black","white","black","white","black","white","black","white","black","black","white","white","black","white","black","white","black","black","black","black","black","black","white","white","white","black","black","black","white","white","white","white","white","black","white","black","white","black","black","black","white","black","white","white","black","black","black","white","white","white","black","white","black","white","black","black","black","black","white","white","black","black","black","black","white","black","white","white","white","white","white","white","white","black","black","white","black","black","black","white","black","black","white","white","black","black","white","black","white","white","white","black","white","white","white","black","white","black","black","white","white","white","black","black","black","white","black","white","black","white","black","white","black","black","black","black","white","black","black","black","white","white","black","black","white","white","white","white","black","white","black","white","white","white","black","black","white","black","black","white","white","white","black","black","white","black","black","white","white","white","white","white","white","black","white","black","white","black","black","white","white","black","white","white","black","white","black","black","black","black","white","white","white","black"],"dot_shape":"circle","background_color":"#AAA","RDK_type":3,"aperture_type":2,"reinsert_type":2,"frame_rate":16.7,"frame_rate_array":[15,17,16,17,17,16,17,17,17,17,16,17,16,17,17,16,17,17,17,17,17,17,16,17,16,18,16,16,18,16,16,17,16,17,16,17,16,17,16,18,16,17,17,16,17,17,16,18,16,17,17,17,17,17,16,19,15,18,16,16,18,16,16,16,17,17,16,17,17,17,17,17,16,17,17,16,17,17,17,17,18,16,17,17,16,16,18,16,18,15,17,16,17,16,18,16,18,16,17,17,17,16,17,17,16,17,17,16,17,16,16,18,16,17,16,17,16,17,17,17],"number_of_frames":120,"aperture_center_x":768,"aperture_center_y":432,"fixation_cross":true,"fixation_cross_width":15,"fixation_cross_height":15,"fixation_cross_color":"#111","fixation_cross_thickness":1,"border":true,"border_thickness":2,"border_color":"transparent","canvas_width":1536,"canvas_height":864,"trial_type":"rdk","trial_index":96,"plugin_version":"2.0.0","time_elapsed":401022},{"rt":2543,"stimulus":"\n        <div class=\"response-container\">\n          <div class=\"response-instruction\">\n            <p>rotate the bar by using the left and right arrow keys.</p>\n            <p>when you are determined, press the Enter key.</p>\n          </div>\n          <div class=\"response-circle\">\n            <div class=\"response-fixation\"></div>\n            <div id=\"bar\" class=\"rotating-bar\"></div>\n          </div>\n        </div>\n      ","response":"Enter","trial_type":"html-keyboard-response","trial_index":97,"plugin_version":"2.1.0","time_elapsed":403566,"random_initial_angle":124,"response_angle_css":73,"response_angle_rdk":17,"angular_error_target":-5,"angular_error_distractor":117,"target_direction":22,"target_group":"white","reward_points":9},{"rt":null,"stimulus":"\n          <p style=\"color: #00FF00;\">Your reward: 9 points</p>\n        ","response":null,"trial_type":"html-keyboard-response","trial_index":98,"plugin_version":"2.1.0","time_elapsed":405577},{"rt":null,"stimulus":"<div class=\"fixation\" style=\"font-size: 60px;\">+</div>","response":null,"trial_type":"html-keyboard-response","trial_index":99,"plugin_version":"2.1.0","time_elapsed":406590},{"target_group":"white","condition_label":"W_H_vs_B_L_rep24","target_direction":352,"distractor_direction":254,"session_rotation":341,"rt":-1,"response":"","correct":false,"choices":"ALL_KEYS","correct_choice":["a"],"trial_duration":2000,"flip_timestamps":[],"response_ends_trial":false,"number_of_apertures":200,"number_of_dots":[1,1,1,1,1,1,1,1,1,1,1,1,1,1,1,1,1,1,1,1,1,1,1,1,1,1,1,1,1,1,1,1,1,1,1,1,1,1,1,1,1,1,1,1,1,1,1,1,1,1,1,1,1,1,1,1,1,1,1,1,1,1,1,1,1,1,1,1,1,1,1,1,1,1,1,1,1,1,1,1,1,1,1,1,1,1,1,1,1,1,1,1,1,1,1,1,1,1,1,1,1,1,1,1,1,1,1,1,1,1,1,1,1,1,1,1,1,1,1,1,1,1,1,1,1,1,1,1,1,1,1,1,1,1,1,1,1,1,1,1,1,1,1,1,1,1,1,1,1,1,1,1,1,1,1,1,1,1,1,1,1,1,1,1,1,1,1,1,1,1,1,1,1,1,1,1,1,1,1,1,1,1,1,1,1,1,1,1,1,1,1,1,1,1,1,1,1,1,1,1],"number_of_sets":1,"coherent_direction":[254,352,352,352,254,254,254,352,254,254,352,254,352,352,254,352,254,352,352,254,352,352,254,254,352,254,254,254,254,254,254,352,254,352,352,254,352,254,352,254,352,352,352,352,254,254,254,352,254,352,352,254,352,254,254,352,352,254,352,352,254,254,352,352,254,254,254,352,352,254,352,254,352,352,254,254,254,254,352,254,352,254,254,254,254,254,352,352,352,352,352,254,352,352,254,352,254,254,254,352,352,254,254,352,352,352,254,352,254,352,352,254,254,254,352,254,352,352,254,352,254,352,254,352,254,352,352,254,254,352,254,352,254,352,352,352,352,352,254,254,352,254,254,254,352,254,254,254,352,352,352,352,254,254,352,254,352,254,352,352,352,254,352,254,254,254,352,254,254,352,254,352,254,352,352,254,254,352,352,254,254,352,254,254,254,352,352,352,254,352,254,254,254,254,352,352,352,352,352,352],"coherence":1,"opposite_coherence":0,"dot_radius":2,"dot_side_length":1,"dot_life":-1,"move_distance":1,"aperture_width":300,"aperture_height":300,"dot_color":["black","white","white","white","black","black","black","white","black","black","white","black","white","white","black","white","black","white","white","black","white","white","black","black","white","black","black","black","black","black","black","white","black","white","white","black","white","black","white","black","white","white","white","white","black","black","black","white","black","white","white","black","white","black","black","white","white","black","white","white","black","black","white","white","black","black","black","white","white","black","white","black","white","white","black","black","black","black","white","black","white","black","black","black","black","black","white","white","white","white","white","black","white","white","black","white","black","black","black","white","white","black","black","white","white","white","black","white","black","white","white","black","black","black","white","black","white","white","black","white","black","white","black","white","black","white","white","black","black","white","black","white","black","white","white","white","white","white","black","black","white","black","black","black","white","black","black","black","white","white","white","white","black","black","white","black","white","black","white","white","white","black","white","black","black","black","white","black","black","white","black","white","black","white","white","black","black","white","white","black","black","white","black","black","black","white","white","white","black","white","black","black","black","black","white","white","white","white","white","white"],"dot_shape":"circle","background_color":"#AAA","RDK_type":3,"aperture_type":2,"reinsert_type":2,"frame_rate":16.578512396694215,"frame_rate_array":[3,16,18,17,17,17,16,17,17,17,17,16,17,16,17,16,17,16,17,17,16,16,17,17,18,15,17,17,17,17,17,16,17,17,16,17,16,17,16,17,16,17,16,16,18,17,16,17,17,17,16,17,17,17,17,16,17,17,16,17,17,16,18,15,17,17,16,18,16,17,16,17,16,17,16,17,17,16,17,18,16,16,17,16,18,17,17,17,17,16,16,18,16,19,15,16,18,16,17,16,17,16,17,15,18,15,18,17,17,17,17,17,16,17,17,14,16,17,17,18,17],"number_of_frames":121,"aperture_center_x":768,"aperture_center_y":432,"fixation_cross":true,"fixation_cross_width":15,"fixation_cross_height":15,"fixation_cross_color":"#111","fixation_cross_thickness":1,"border":true,"border_thickness":2,"border_color":"transparent","canvas_width":1536,"canvas_height":864,"trial_type":"rdk","trial_index":100,"plugin_version":"2.0.0","time_elapsed":408597},{"rt":2754,"stimulus":"\n        <div class=\"response-container\">\n          <div class=\"response-instruction\">\n            <p>rotate the bar by using the left and right arrow keys.</p>\n            <p>when you are determined, press the Enter key.</p>\n          </div>\n          <div class=\"response-circle\">\n            <div class=\"response-fixation\"></div>\n            <div id=\"bar\" class=\"rotating-bar\"></div>\n          </div>\n        </div>\n      ","response":"Enter","trial_type":"html-keyboard-response","trial_index":101,"plugin_version":"2.1.0","time_elapsed":411352,"random_initial_angle":133,"response_angle_css":84,"response_angle_rdk":6,"angular_error_target":14,"angular_error_distractor":112,"target_direction":352,"target_group":"white","reward_points":7},{"rt":null,"stimulus":"\n          <p style=\"color: #00FF00;\">Your reward: 7 points</p>\n        ","response":null,"trial_type":"html-keyboard-response","trial_index":102,"plugin_version":"2.1.0","time_elapsed":413356},{"rt":null,"stimulus":"<div class=\"fixation\" style=\"font-size: 60px;\">+</div>","response":null,"trial_type":"html-keyboard-response","trial_index":103,"plugin_version":"2.1.0","time_elapsed":414368},{"target_group":"black","condition_label":"B_H_vs_W_L_rep16","target_direction":108,"distractor_direction":200,"session_rotation":341,"rt":-1,"response":"","correct":false,"choices":"ALL_KEYS","correct_choice":["a"],"trial_duration":2000,"flip_timestamps":[],"response_ends_trial":false,"number_of_apertures":200,"number_of_dots":[1,1,1,1,1,1,1,1,1,1,1,1,1,1,1,1,1,1,1,1,1,1,1,1,1,1,1,1,1,1,1,1,1,1,1,1,1,1,1,1,1,1,1,1,1,1,1,1,1,1,1,1,1,1,1,1,1,1,1,1,1,1,1,1,1,1,1,1,1,1,1,1,1,1,1,1,1,1,1,1,1,1,1,1,1,1,1,1,1,1,1,1,1,1,1,1,1,1,1,1,1,1,1,1,1,1,1,1,1,1,1,1,1,1,1,1,1,1,1,1,1,1,1,1,1,1,1,1,1,1,1,1,1,1,1,1,1,1,1,1,1,1,1,1,1,1,1,1,1,1,1,1,1,1,1,1,1,1,1,1,1,1,1,1,1,1,1,1,1,1,1,1,1,1,1,1,1,1,1,1,1,1,1,1,1,1,1,1,1,1,1,1,1,1,1,1,1,1,1,1],"number_of_sets":1,"coherent_direction":[108,108,200,200,200,108,200,108,200,108,200,108,108,200,200,108,200,108,200,200,108,108,200,200,200,200,200,200,200,108,108,200,200,108,108,200,200,108,200,108,108,200,108,200,200,200,108,200,200,108,108,200,108,200,108,108,200,108,200,200,108,108,108,108,200,200,108,200,200,108,108,108,200,200,108,200,200,108,200,200,200,200,200,108,108,108,200,108,108,108,108,108,200,200,200,108,200,108,108,108,108,108,108,108,200,200,108,108,200,200,200,108,108,200,108,200,108,108,108,108,200,200,200,200,200,200,200,108,108,200,200,108,108,108,200,200,200,108,108,200,108,200,108,200,200,200,108,200,200,108,108,200,108,200,200,200,108,108,108,200,200,108,200,200,108,200,200,200,108,200,200,108,108,108,108,108,108,108,200,200,108,108,108,108,108,200,200,108,200,108,108,200,200,108,108,200,108,108,108,200],"coherence":1,"opposite_coherence":0,"dot_radius":2,"dot_side_length":1,"dot_life":-1,"move_distance":1,"aperture_width":300,"aperture_height":300,"dot_color":["black","black","white","white","white","black","white","black","white","black","white","black","black","white","white","black","white","black","white","white","black","black","white","white","white","white","white","white","white","black","black","white","white","black","black","white","white","black","white","black","black","white","black","white","white","white","black","white","white","black","black","white","black","white","black","black","white","black","white","white","black","black","black","black","white","white","black","white","white","black","black","black","white","white","black","white","white","black","white","white","white","white","white","black","black","black","white","black","black","black","black","black","white","white","white","black","white","black","black","black","black","black","black","black","white","white","black","black","white","white","white","black","black","white","black","white","black","black","black","black","white","white","white","white","white","white","white","black","black","white","white","black","black","black","white","white","white","black","black","white","black","white","black","white","white","white","black","white","white","black","black","white","black","white","white","white","black","black","black","white","white","black","white","white","black","white","white","white","black","white","white","black","black","black","black","black","black","black","white","white","black","black","black","black","black","white","white","black","white","black","black","white","white","black","black","white","black","black","black","white"],"dot_shape":"circle","background_color":"#AAA","RDK_type":3,"aperture_type":2,"reinsert_type":2,"frame_rate":16.644628099173552,"frame_rate_array":[4,13,18,16,18,17,17,16,17,16,18,16,16,16,17,17,17,17,16,16,18,16,17,17,16,17,17,17,16,17,17,17,16,17,16,17,17,17,17,16,17,16,16,18,16,17,16,18,17,16,17,17,16,17,17,17,17,17,17,17,17,17,16,17,16,19,16,17,17,17,16,18,17,17,16,17,17,16,17,17,16,17,17,17,16,17,17,17,16,17,17,16,17,17,17,16,17,17,16,17,17,16,17,16,18,17,17,17,17,17,17,16,18,16,17,17,17,17,17,16,17],"number_of_frames":121,"aperture_center_x":768,"aperture_center_y":432,"fixation_cross":true,"fixation_cross_width":15,"fixation_cross_height":15,"fixation_cross_color":"#111","fixation_cross_thickness":1,"border":true,"border_thickness":2,"border_color":"transparent","canvas_width":1536,"canvas_height":864,"trial_type":"rdk","trial_index":104,"plugin_version":"2.0.0","time_elapsed":416373},{"rt":4366,"stimulus":"\n        <div class=\"response-container\">\n          <div class=\"response-instruction\">\n            <p>rotate the bar by using the left and right arrow keys.</p>\n            <p>when you are determined, press the Enter key.</p>\n          </div>\n          <div class=\"response-circle\">\n            <div class=\"response-fixation\"></div>\n            <div id=\"bar\" class=\"rotating-bar\"></div>\n          </div>\n        </div>\n      ","response":"Enter","trial_type":"html-keyboard-response","trial_index":105,"plugin_version":"2.1.0","time_elapsed":420740,"random_initial_angle":147,"response_angle_css":-20,"response_angle_rdk":110,"angular_error_target":2,"angular_error_distractor":-90,"target_direction":108,"target_group":"black","reward_points":9},{"rt":null,"stimulus":"\n          <p style=\"color: #00FF00;\">Your reward: 9 points</p>\n        ","response":null,"trial_type":"html-keyboard-response","trial_index":106,"plugin_version":"2.1.0","time_elapsed":422745},{"rt":null,"stimulus":"<div class=\"fixation\" style=\"font-size: 60px;\">+</div>","response":null,"trial_type":"html-keyboard-response","trial_index":107,"plugin_version":"2.1.0","time_elapsed":423758},{"target_group":"white","condition_label":"W_H_vs_B_L_rep23","target_direction":16,"distractor_direction":271,"session_rotation":341,"rt":-1,"response":"","correct":false,"choices":"ALL_KEYS","correct_choice":["a"],"trial_duration":2000,"flip_timestamps":[],"response_ends_trial":false,"number_of_apertures":200,"number_of_dots":[1,1,1,1,1,1,1,1,1,1,1,1,1,1,1,1,1,1,1,1,1,1,1,1,1,1,1,1,1,1,1,1,1,1,1,1,1,1,1,1,1,1,1,1,1,1,1,1,1,1,1,1,1,1,1,1,1,1,1,1,1,1,1,1,1,1,1,1,1,1,1,1,1,1,1,1,1,1,1,1,1,1,1,1,1,1,1,1,1,1,1,1,1,1,1,1,1,1,1,1,1,1,1,1,1,1,1,1,1,1,1,1,1,1,1,1,1,1,1,1,1,1,1,1,1,1,1,1,1,1,1,1,1,1,1,1,1,1,1,1,1,1,1,1,1,1,1,1,1,1,1,1,1,1,1,1,1,1,1,1,1,1,1,1,1,1,1,1,1,1,1,1,1,1,1,1,1,1,1,1,1,1,1,1,1,1,1,1,1,1,1,1,1,1,1,1,1,1,1,1