[{"rt":1441,"stimulus":"Welcome to the experiment. Press any key to begin.","response":"m","trial_type":"html-keyboard-response","trial_index":0,"plugin_version":"2.1.0","time_elapsed":1447},{"rt":40228,"stimulus":"\n        <div class=\"instructions-container\">\n          <h2>Instructions</h2>\n\n          <p>\n          In this experiment, you will see <strong>two Random Dot Kinematograms (RDKs)</strong> displayed simultaneously.\n          </p>\n\n          <p>\n          An RDK is a visual stimulus consisting of many small dots that move coherently in a single direction. \n          In this experiment, the dots will be either <strong>white</strong> or <strong>black</strong> \n          (see the short demo below for an example of an RDK stimulus).\n          </p>\n\n          <p>\n          On each trial, the two RDKs will move in different directions. \n          Your task is to decide <strong>which RDK appears to contain more dots</strong>.\n          </p>\n\n          <p>\n          The RDK that you judge to have more dots is called the <strong>target RDK</strong>. \n          For example, if the white RDK appears to have more dots than the black RDK, \n          you should report the motion direction of the white RDK.\n          </p>\n\n          <p>\n          After viewing the RDKs, you will rotate a bar to indicate the perceived direction of the target RDK \n          using the <strong>left</strong> and <strong>right arrow keys</strong>. \n          Press <strong>Enter</strong> when you are satisfied with your response.\n          When the bar is held down, the rotation speed increases.\n          </p>\n\n          <p>\n          You will receive points based on the <strong>accuracy of your response</strong>, \n          and your final <strong>bonus reward</strong> may depend on your overall performance. \n          Please try to respond as accurately as possible.\n          </p>\n\n          <p>\n          You will first complete <strong>16 practice trials</strong>. \n          Press the <strong>Enter</strong> key to start the practice phase.\n          </p>\n\n          <canvas id=\"instruction-demo-rdk\" width=\"200\" height=\"200\"style=\"display:block;margin:12px auto; border-radius: 50%;\"></canvas>\n        </div>\n      ","response":"Enter","trial_type":"html-keyboard-response","trial_index":1,"plugin_version":"2.1.0","time_elapsed":41676},{"rt":null,"stimulus":"<div class=\"fixation\" style=\"font-size: 60px;\">+</div>","response":null,"trial_type":"html-keyboard-response","trial_index":2,"plugin_version":"2.1.0","time_elapsed":42690},{"target_group":"black","target_index":1,"condition_label":"practice","rt":-1,"response":"","correct":false,"choices":"ALL_KEYS","correct_choice":["a"],"trial_duration":2000,"flip_timestamps":[],"response_ends_trial":false,"number_of_apertures":2,"number_of_dots":[52,100],"number_of_sets":1,"coherent_direction":[298,96],"coherence":1,"opposite_coherence":0,"dot_radius":2,"dot_side_length":1,"dot_life":-1,"move_distance":1,"aperture_width":300,"aperture_height":300,"dot_color":["white","black"],"dot_shape":"circle","background_color":"#AAA","RDK_type":3,"aperture_type":2,"reinsert_type":2,"frame_rate":16.758333333333333,"frame_rate_array":[8,17,17,17,17,17,17,17,17,17,17,17,16,17,17,16,17,16,17,17,17,17,17,17,17,17,17,17,17,17,17,17,17,17,17,17,17,17,17,17,16,17,17,16,17,17,16,17,15,17,16,16,17,17,16,17,17,17,17,17,17,17,17,17,17,17,17,17,17,17,17,17,17,17,17,16,16,17,17,18,16,16,17,17,17,17,17,17,17,17,17,17,16,17,16,17,17,17,17,17,17,17,17,17,17,17,17,17,17,16,17,17,16,16,17,17,17,17,16,17],"number_of_frames":120,"aperture_center_x":640,"aperture_center_y":360,"fixation_cross":true,"fixation_cross_width":15,"fixation_cross_height":15,"fixation_cross_color":"#111","fixation_cross_thickness":1,"border":true,"border_thickness":2,"border_color":"transparent","canvas_width":1280,"canvas_height":720,"trial_type":"rdk","trial_index":3,"plugin_version":"2.0.0","time_elapsed":44704,"phase":"practice","target_direction":96,"distractor_direction":298},{"rt":8033,"stimulus":"\n        <div class=\"response-container\">\n          <div class=\"response-instruction\">\n            <p>rotate the bar by using the left and right arrow keys.</p>\n            <p>when you are determined, press the Enter key.</p>\n          </div>\n          <div class=\"response-circle\">\n            <div class=\"response-fixation\"></div>\n            <div id=\"bar\" class=\"rotating-bar\"></div>\n          </div>\n        </div>\n      ","response":"Enter","trial_type":"html-keyboard-response","trial_index":4,"plugin_version":"2.1.0","time_elapsed":52739,"random_initial_angle":151,"response_angle_css":-7,"response_angle_rdk":97,"angular_error_target":1,"angular_error_distractor":159,"target_direction":96,"target_group":"black","reward_points":9},{"rt":null,"stimulus":"\n          <p style=\"color: #00FF00;\">Your reward: 9 points</p>\n        ","response":null,"trial_type":"html-keyboard-response","trial_index":5,"plugin_version":"2.1.0","time_elapsed":54743},{"rt":null,"stimulus":"<div class=\"fixation\" style=\"font-size: 60px;\">+</div>","response":null,"trial_type":"html-keyboard-response","trial_index":6,"plugin_version":"2.1.0","time_elapsed":55760},{"target_group":"black","target_index":1,"condition_label":"practice","rt":-1,"response":"","correct":false,"choices":"ALL_KEYS","correct_choice":["a"],"trial_duration":2000,"flip_timestamps":[],"response_ends_trial":false,"number_of_apertures":2,"number_of_dots":[68,100],"number_of_sets":1,"coherent_direction":[198,341],"coherence":1,"opposite_coherence":0,"dot_radius":2,"dot_side_length":1,"dot_life":-1,"move_distance":1,"aperture_width":300,"aperture_height":300,"dot_color":["white","black"],"dot_shape":"circle","background_color":"#AAA","RDK_type":3,"aperture_type":2,"reinsert_type":2,"frame_rate":16.71900826446281,"frame_rate_array":[3,17,17,17,18,16,17,16,17,16,17,16,17,16,17,16,17,17,16,17,17,16,17,17,17,17,16,17,17,17,17,17,17,17,17,17,17,16,17,18,16,17,17,16,17,17,17,17,17,17,17,16,17,16,18,16,17,17,16,17,17,17,17,17,17,17,17,17,17,17,17,16,17,17,17,16,17,17,17,17,17,17,17,17,17,17,17,17,17,16,17,16,16,17,17,17,17,17,17,17,17,17,17,17,17,17,17,16,17,17,17,17,17,17,16,17,17,17,17,17,17],"number_of_frames":121,"aperture_center_x":640,"aperture_center_y":360,"fixation_cross":true,"fixation_cross_width":15,"fixation_cross_height":15,"fixation_cross_color":"#111","fixation_cross_thickness":1,"border":true,"border_thickness":2,"border_color":"transparent","canvas_width":1280,"canvas_height":720,"trial_type":"rdk","trial_index":7,"plugin_version":"2.0.0","time_elapsed":57767,"phase":"practice","target_direction":341,"distractor_direction":198},{"rt":2239,"stimulus":"\n        <div class=\"response-container\">\n          <div class=\"response-instruction\">\n            <p>rotate the bar by using the left and right arrow keys.</p>\n            <p>when you are determined, press the Enter key.</p>\n          </div>\n          <div class=\"response-circle\">\n            <div class=\"response-fixation\"></div>\n            <div id=\"bar\" class=\"rotating-bar\"></div>\n          </div>\n        </div>\n      ","response":"Enter","trial_type":"html-keyboard-response","trial_index":8,"plugin_version":"2.1.0","time_elapsed":60008,"random_initial_angle":36,"response_angle_css":56,"response_angle_rdk":34,"angular_error_target":53,"angular_error_distractor":-164,"target_direction":341,"target_group":"black","reward_points":0},{"rt":null,"stimulus":"\n          <p style=\"color: #FF3333;\">Your reward: 0 points</p>\n        ","response":null,"trial_type":"html-keyboard-response","trial_index":9,"plugin_version":"2.1.0","time_elapsed":62013},{"rt":null,"stimulus":"<div class=\"fixation\" style=\"font-size: 60px;\">+</div>","response":null,"trial_type":"html-keyboard-response","trial_index":10,"plugin_version":"2.1.0","time_elapsed":63028},{"target_group":"black","target_index":1,"condition_label":"practice","rt":-1,"response":"","correct":false,"choices":"ALL_KEYS","correct_choice":["a"],"trial_duration":2000,"flip_timestamps":[],"response_ends_trial":false,"number_of_apertures":2,"number_of_dots":[94,100],"number_of_sets":1,"coherent_direction":[236,114],"coherence":1,"opposite_coherence":0,"dot_radius":2,"dot_side_length":1,"dot_life":-1,"move_distance":1,"aperture_width":300,"aperture_height":300,"dot_color":["white","black"],"dot_shape":"circle","background_color":"#AAA","RDK_type":3,"aperture_type":2,"reinsert_type":2,"frame_rate":16.733333333333334,"frame_rate_array":[16,16,17,16,17,17,16,17,17,17,17,17,17,17,16,17,17,16,16,17,17,17,17,16,16,17,17,17,17,17,17,17,17,17,16,16,16,17,17,17,16,17,17,17,17,16,17,17,17,17,17,17,16,17,17,17,16,17,16,17,17,16,17,16,16,17,16,16,16,17,17,17,17,17,17,17,17,17,17,17,17,17,17,17,17,16,16,17,17,16,17,17,17,16,17,17,17,16,17,16,17,17,17,17,17,16,17,17,17,17,17,17,17,16,16,17,17,17,17,17],"number_of_frames":120,"aperture_center_x":640,"aperture_center_y":360,"fixation_cross":true,"fixation_cross_width":15,"fixation_cross_height":15,"fixation_cross_color":"#111","fixation_cross_thickness":1,"border":true,"border_thickness":2,"border_color":"transparent","canvas_width":1280,"canvas_height":720,"trial_type":"rdk","trial_index":11,"plugin_version":"2.0.0","time_elapsed":65031,"phase":"practice","target_direction":114,"distractor_direction":236},{"rt":3035,"stimulus":"\n        <div class=\"response-container\">\n          <div class=\"response-instruction\">\n            <p>rotate the bar by using the left and right arrow keys.</p>\n            <p>when you are determined, press the Enter key.</p>\n          </div>\n          <div class=\"response-circle\">\n            <div class=\"response-fixation\"></div>\n            <div id=\"bar\" class=\"rotating-bar\"></div>\n          </div>\n        </div>\n      ","response":"Enter","trial_type":"html-keyboard-response","trial_index":12,"plugin_version":"2.1.0","time_elapsed":68068,"random_initial_angle":307,"response_angle_css":307,"response_angle_rdk":143,"angular_error_target":29,"angular_error_distractor":-93,"target_direction":114,"target_group":"black","reward_points":4},{"rt":null,"stimulus":"\n          <p style=\"color: #00FF00;\">Your reward: 4 points</p>\n        ","response":null,"trial_type":"html-keyboard-response","trial_index":13,"plugin_version":"2.1.0","time_elapsed":70072},{"rt":null,"stimulus":"<div class=\"fixation\" style=\"font-size: 60px;\">+</div>","response":null,"trial_type":"html-keyboard-response","trial_index":14,"plugin_version":"2.1.0","time_elapsed":71088},{"target_group":"white","target_index":0,"condition_label":"practice","rt":-1,"response":"","correct":false,"choices":"ALL_KEYS","correct_choice":["a"],"trial_duration":2000,"flip_timestamps":[],"response_ends_trial":false,"number_of_apertures":2,"number_of_dots":[100,56],"number_of_sets":1,"coherent_direction":[326,187],"coherence":1,"opposite_coherence":0,"dot_radius":2,"dot_side_length":1,"dot_life":-1,"move_distance":1,"aperture_width":300,"aperture_height":300,"dot_color":["white","black"],"dot_shape":"circle","background_color":"#AAA","RDK_type":3,"aperture_type":2,"reinsert_type":2,"frame_rate":16.677685950413224,"frame_rate_array":[1,15,17,17,17,17,17,17,17,16,17,17,17,17,16,17,17,17,17,17,16,17,16,17,17,17,17,17,16,17,16,17,17,17,17,17,17,17,17,16,17,17,17,17,16,17,16,17,17,17,17,17,16,17,17,17,17,16,17,16,16,17,16,16,17,17,17,17,17,17,17,17,17,17,17,17,17,17,17,17,17,17,17,17,17,17,17,17,17,16,17,17,16,17,17,16,17,17,17,17,17,17,17,17,17,16,17,17,17,17,17,17,16,17,16,17,17,17,17,17,17],"number_of_frames":121,"aperture_center_x":640,"aperture_center_y":360,"fixation_cross":true,"fixation_cross_width":15,"fixation_cross_height":15,"fixation_cross_color":"#111","fixation_cross_thickness":1,"border":true,"border_thickness":2,"border_color":"transparent","canvas_width":1280,"canvas_height":720,"trial_type":"rdk","trial_index":15,"plugin_version":"2.0.0","time_elapsed":73094,"phase":"practice","target_direction":326,"distractor_direction":187},{"rt":3674,"stimulus":"\n        <div class=\"response-container\">\n          <div class=\"response-instruction\">\n            <p>rotate the bar by using the left and right arrow keys.</p>\n            <p>when you are determined, press the Enter key.</p>\n          </div>\n          <div class=\"response-circle\">\n            <div class=\"response-fixation\"></div>\n            <div id=\"bar\" class=\"rotating-bar\"></div>\n          </div>\n        </div>\n      ","response":"Enter","trial_type":"html-keyboard-response","trial_index":16,"plugin_version":"2.1.0","time_elapsed":76769,"random_initial_angle":67,"response_angle_css":91,"response_angle_rdk":359,"angular_error_target":33,"angular_error_distractor":172,"target_direction":326,"target_group":"white","reward_points":3},{"rt":null,"stimulus":"\n          <p style=\"color: #00FF00;\">Your reward: 3 points</p>\n        ","response":null,"trial_type":"html-keyboard-response","trial_index":17,"plugin_version":"2.1.0","time_elapsed":78771},{"rt":null,"stimulus":"<div class=\"fixation\" style=\"font-size: 60px;\">+</div>","response":null,"trial_type":"html-keyboard-response","trial_index":18,"plugin_version":"2.1.0","time_elapsed":79780},{"target_group":"black","target_index":1,"condition_label":"practice","rt":-1,"response":"","correct":false,"choices":"ALL_KEYS","correct_choice":["a"],"trial_duration":2000,"flip_timestamps":[],"response_ends_trial":false,"number_of_apertures":2,"number_of_dots":[97,100],"number_of_sets":1,"coherent_direction":[192,326],"coherence":1,"opposite_coherence":0,"dot_radius":2,"dot_side_length":1,"dot_life":-1,"move_distance":1,"aperture_width":300,"aperture_height":300,"dot_color":["white","black"],"dot_shape":"circle","background_color":"#AAA","RDK_type":3,"aperture_type":2,"reinsert_type":2,"frame_rate":16.74380165289256,"frame_rate_array":[4,17,17,17,17,17,17,16,17,17,17,17,17,16,17,16,17,17,17,17,16,17,17,17,17,17,17,17,17,16,17,17,17,17,17,16,17,17,17,17,17,17,17,17,17,17,17,17,16,17,16,17,17,17,17,17,17,17,17,17,17,16,17,17,17,17,17,17,17,17,17,16,17,17,17,17,17,16,17,17,17,15,17,17,17,17,17,17,17,17,17,16,17,17,16,16,17,17,17,17,17,17,17,17,17,17,17,17,17,17,17,16,16,17,17,17,17,17,17,17,17],"number_of_frames":121,"aperture_center_x":640,"aperture_center_y":360,"fixation_cross":true,"fixation_cross_width":15,"fixation_cross_height":15,"fixation_cross_color":"#111","fixation_cross_thickness":1,"border":true,"border_thickness":2,"border_color":"transparent","canvas_width":1280,"canvas_height":720,"trial_type":"rdk","trial_index":19,"plugin_version":"2.0.0","time_elapsed":81789,"phase":"practice","target_direction":326,"distractor_direction":192},{"rt":4337,"stimulus":"\n        <div class=\"response-container\">\n          <div class=\"response-instruction\">\n            <p>rotate the bar by using the left and right arrow keys.</p>\n            <p>when you are determined, press the Enter key.</p>\n          </div>\n          <div class=\"response-circle\">\n            <div class=\"response-fixation\"></div>\n            <div id=\"bar\" class=\"rotating-bar\"></div>\n          </div>\n        </div>\n      ","response":"Enter","trial_type":"html-keyboard-response","trial_index":20,"plugin_version":"2.1.0","time_elapsed":86127,"random_initial_angle":130,"response_angle_css":133,"response_angle_rdk":317,"angular_error_target":-9,"angular_error_distractor":125,"target_direction":326,"target_group":"black","reward_points":8},{"rt":null,"stimulus":"\n          <p style=\"color: #00FF00;\">Your reward: 8 points</p>\n        ","response":null,"trial_type":"html-keyboard-response","trial_index":21,"plugin_version":"2.1.0","time_elapsed":88131},{"rt":null,"stimulus":"<div class=\"fixation\" style=\"font-size: 60px;\">+</div>","response":null,"trial_type":"html-keyboard-response","trial_index":22,"plugin_version":"2.1.0","time_elapsed":89135},{"target_group":"black","target_index":1,"condition_label":"practice","rt":-1,"response":"","correct":false,"choices":"ALL_KEYS","correct_choice":["a"],"trial_duration":2000,"flip_timestamps":[],"response_ends_trial":false,"number_of_apertures":2,"number_of_dots":[62,100],"number_of_sets":1,"coherent_direction":[124,266],"coherence":1,"opposite_coherence":0,"dot_radius":2,"dot_side_length":1,"dot_life":-1,"move_distance":1,"aperture_width":300,"aperture_height":300,"dot_color":["white","black"],"dot_shape":"circle","background_color":"#AAA","RDK_type":3,"aperture_type":2,"reinsert_type":2,"frame_rate":16.833333333333332,"frame_rate_array":[14,17,17,17,17,17,17,17,17,17,17,17,17,16,16,17,16,17,17,17,17,17,17,16,17,16,17,17,17,17,17,17,17,17,17,17,17,17,17,17,17,17,17,16,17,17,17,17,17,17,17,17,17,16,17,16,16,17,17,17,17,17,17,17,17,17,17,17,17,17,17,17,17,17,17,16,17,17,17,16,17,17,17,17,17,16,16,17,17,16,17,17,17,17,16,17,17,17,17,17,17,17,17,17,17,17,16,17,17,17,17,17,17,17,17,17,17,17,16,17],"number_of_frames":120,"aperture_center_x":640,"aperture_center_y":360,"fixation_cross":true,"fixation_cross_width":15,"fixation_cross_height":15,"fixation_cross_color":"#111","fixation_cross_thickness":1,"border":true,"border_thickness":2,"border_color":"transparent","canvas_width":1280,"canvas_height":720,"trial_type":"rdk","trial_index":23,"plugin_version":"2.0.0","time_elapsed":91149,"phase":"practice","target_direction":266,"distractor_direction":124},{"rt":1692,"stimulus":"\n        <div class=\"response-container\">\n          <div class=\"response-instruction\">\n            <p>rotate the bar by using the left and right arrow keys.</p>\n            <p>when you are determined, press the Enter key.</p>\n          </div>\n          <div class=\"response-circle\">\n            <div class=\"response-fixation\"></div>\n            <div id=\"bar\" class=\"rotating-bar\"></div>\n          </div>\n        </div>\n      ","response":"Enter","trial_type":"html-keyboard-response","trial_index":24,"plugin_version":"2.1.0","time_elapsed":92841,"random_initial_angle":135,"response_angle_css":143,"response_angle_rdk":307,"angular_error_target":41,"angular_error_distractor":-177,"target_direction":266,"target_group":"black","reward_points":1},{"rt":null,"stimulus":"\n          <p style=\"color: #FF3333;\">Your reward: 1 points</p>\n        ","response":null,"trial_type":"html-keyboard-response","trial_index":25,"plugin_version":"2.1.0","time_elapsed":94847},{"rt":null,"stimulus":"<div class=\"fixation\" style=\"font-size: 60px;\">+</div>","response":null,"trial_type":"html-keyboard-response","trial_index":26,"plugin_version":"2.1.0","time_elapsed":95862},{"target_group":"white","target_index":0,"condition_label":"practice","rt":-1,"response":"","correct":false,"choices":"ALL_KEYS","correct_choice":["a"],"trial_duration":2000,"flip_timestamps":[],"response_ends_trial":false,"number_of_apertures":2,"number_of_dots":[100,99],"number_of_sets":1,"coherent_direction":[21,211],"coherence":1,"opposite_coherence":0,"dot_radius":2,"dot_side_length":1,"dot_life":-1,"move_distance":1,"aperture_width":300,"aperture_height":300,"dot_color":["white","black"],"dot_shape":"circle","background_color":"#AAA","RDK_type":3,"aperture_type":2,"reinsert_type":2,"frame_rate":16.708333333333332,"frame_rate_array":[17,17,17,16,17,17,17,17,16,17,17,17,16,17,17,16,17,17,17,17,17,17,17,17,17,16,17,16,17,17,17,16,17,17,17,17,17,17,17,17,16,17,16,17,17,16,16,17,17,17,17,16,16,17,17,16,17,16,17,16,16,17,17,17,16,17,17,17,17,17,17,17,17,16,17,16,17,16,17,17,17,16,17,16,17,16,16,16,17,16,17,16,16,16,17,17,17,17,17,17,17,17,17,17,17,16,17,17,16,17,15,17,17,17,17,17,17,17,16,17],"number_of_frames":120,"aperture_center_x":640,"aperture_center_y":360,"fixation_cross":true,"fixation_cross_width":15,"fixation_cross_height":15,"fixation_cross_color":"#111","fixation_cross_thickness":1,"border":true,"border_thickness":2,"border_color":"transparent","canvas_width":1280,"canvas_height":720,"trial_type":"rdk","trial_index":27,"plugin_version":"2.0.0","time_elapsed":97866,"phase":"practice","target_direction":21,"distractor_direction":211},{"rt":3840,"stimulus":"\n        <div class=\"response-container\">\n          <div class=\"response-instruction\">\n            <p>rotate the bar by using the left and right arrow keys.</p>\n            <p>when you are determined, press the Enter key.</p>\n          </div>\n          <div class=\"response-circle\">\n            <div class=\"response-fixation\"></div>\n            <div id=\"bar\" class=\"rotating-bar\"></div>\n          </div>\n        </div>\n      ","response":"Enter","trial_type":"html-keyboard-response","trial_index":28,"plugin_version":"2.1.0","time_elapsed":101707,"random_initial_angle":0,"response_angle_css":-95,"response_angle_rdk":185,"angular_error_target":164,"angular_error_distractor":-26,"target_direction":21,"target_group":"white","reward_points":0},{"rt":null,"stimulus":"\n          <p style=\"color: #FF3333;\">Your reward: 0 points</p>\n        ","response":null,"trial_type":"html-keyboard-response","trial_index":29,"plugin_version":"2.1.0","time_elapsed":103708},{"rt":null,"stimulus":"<div class=\"fixation\" style=\"font-size: 60px;\">+</div>","response":null,"trial_type":"html-keyboard-response","trial_index":30,"plugin_version":"2.1.0","time_elapsed":104727},{"target_group":"white","target_index":0,"condition_label":"practice","rt":-1,"response":"","correct":false,"choices":"ALL_KEYS","correct_choice":["a"],"trial_duration":2000,"flip_timestamps":[],"response_ends_trial":false,"number_of_apertures":2,"number_of_dots":[100,74],"number_of_sets":1,"coherent_direction":[1,193],"coherence":1,"opposite_coherence":0,"dot_radius":2,"dot_side_length":1,"dot_life":-1,"move_distance":1,"aperture_width":300,"aperture_height":300,"dot_color":["white","black"],"dot_shape":"circle","background_color":"#AAA","RDK_type":3,"aperture_type":2,"reinsert_type":2,"frame_rate":16.826446280991735,"frame_rate_array":[14,16,17,17,17,17,17,17,17,17,17,17,17,17,16,17,17,17,17,17,17,17,16,17,16,17,17,17,16,17,17,17,17,17,16,17,17,17,17,17,17,17,17,17,17,16,17,16,17,17,17,16,17,16,17,17,17,17,16,16,16,17,17,17,17,17,17,17,17,17,17,17,17,17,17,16,17,17,17,17,17,17,17,17,17,17,17,17,17,17,17,16,17,17,17,17,17,16,16,17,17,17,17,17,17,17,17,17,17,17,17,17,17,17,17,17,17,16,17,17,17],"number_of_frames":121,"aperture_center_x":640,"aperture_center_y":360,"fixation_cross":true,"fixation_cross_width":15,"fixation_cross_height":15,"fixation_cross_color":"#111","fixation_cross_thickness":1,"border":true,"border_thickness":2,"border_color":"transparent","canvas_width":1280,"canvas_height":720,"trial_type":"rdk","trial_index":31,"plugin_version":"2.0.0","time_elapsed":106744,"phase":"practice","target_direction":1,"distractor_direction":193},{"rt":1472,"stimulus":"\n        <div class=\"response-container\">\n          <div class=\"response-instruction\">\n            <p>rotate the bar by using the left and right arrow keys.</p>\n            <p>when you are determined, press the Enter key.</p>\n          </div>\n          <div class=\"response-circle\">\n            <div class=\"response-fixation\"></div>\n            <div id=\"bar\" class=\"rotating-bar\"></div>\n          </div>\n        </div>\n      ","response":"Enter","trial_type":"html-keyboard-response","trial_index":32,"plugin_version":"2.1.0","time_elapsed":108217,"random_initial_angle":161,"response_angle_css":161,"response_angle_rdk":289,"angular_error_target":-72,"angular_error_distractor":96,"target_direction":1,"target_group":"white","reward_points":0},{"rt":null,"stimulus":"\n          <p style=\"color: #FF3333;\">Your reward: 0 points</p>\n        ","response":null,"trial_type":"html-keyboard-response","trial_index":33,"plugin_version":"2.1.0","time_elapsed":110223},{"rt":null,"stimulus":"<div class=\"fixation\" style=\"font-size: 60px;\">+</div>","response":null,"trial_type":"html-keyboard-response","trial_index":34,"plugin_version":"2.1.0","time_elapsed":111240},{"target_group":"white","target_index":0,"condition_label":"practice","rt":-1,"response":"","correct":false,"choices":"ALL_KEYS","correct_choice":["a"],"trial_duration":2000,"flip_timestamps":[],"response_ends_trial":false,"number_of_apertures":2,"number_of_dots":[100,61],"number_of_sets":1,"coherent_direction":[276,141],"coherence":1,"opposite_coherence":0,"dot_radius":2,"dot_side_length":1,"dot_life":-1,"move_distance":1,"aperture_width":300,"aperture_height":300,"dot_color":["white","black"],"dot_shape":"circle","background_color":"#AAA","RDK_type":3,"aperture_type":2,"reinsert_type":2,"frame_rate":16.818181818181817,"frame_rate_array":[14,17,17,16,17,17,16,17,17,17,17,17,17,17,17,17,17,16,17,17,16,17,17,17,17,17,17,16,17,17,18,15,17,16,17,16,17,16,17,17,17,17,17,17,17,17,17,17,17,17,17,17,17,17,17,17,17,17,17,17,17,17,17,17,17,16,17,17,18,17,17,16,17,17,17,17,17,17,16,17,17,17,17,16,17,17,16,17,17,17,17,17,17,17,16,17,17,17,17,16,17,17,17,17,16,17,17,17,16,17,16,17,17,17,17,16,17,17,17,17,17],"number_of_frames":121,"aperture_center_x":640,"aperture_center_y":360,"fixation_cross":true,"fixation_cross_width":15,"fixation_cross_height":15,"fixation_cross_color":"#111","fixation_cross_thickness":1,"border":true,"border_thickness":2,"border_color":"transparent","canvas_width":1280,"canvas_height":720,"trial_type":"rdk","trial_index":35,"plugin_version":"2.0.0","time_elapsed":113258,"phase":"practice","target_direction":276,"distractor_direction":141},{"rt":5396,"stimulus":"\n        <div class=\"response-container\">\n          <div class=\"response-instruction\">\n            <p>rotate the bar by using the left and right arrow keys.</p>\n            <p>when you are determined, press the Enter key.</p>\n          </div>\n          <div class=\"response-circle\">\n            <div class=\"response-fixation\"></div>\n            <div id=\"bar\" class=\"rotating-bar\"></div>\n          </div>\n        </div>\n      ","response":"Enter","trial_type":"html-keyboard-response","trial_index":36,"plugin_version":"2.1.0","time_elapsed":118655,"random_initial_angle":198,"response_angle_css":139,"response_angle_rdk":311,"angular_error_target":35,"angular_error_distractor":170,"target_direction":276,"target_group":"white","reward_points":3},{"rt":null,"stimulus":"\n          <p style=\"color: #00FF00;\">Your reward: 3 points</p>\n        ","response":null,"trial_type":"html-keyboard-response","trial_index":37,"plugin_version":"2.1.0","time_elapsed":120669},{"rt":null,"stimulus":"<div class=\"fixation\" style=\"font-size: 60px;\">+</div>","response":null,"trial_type":"html-keyboard-response","trial_index":38,"plugin_version":"2.1.0","time_elapsed":121685},{"target_group":"black","target_index":1,"condition_label":"practice","rt":-1,"response":"","correct":false,"choices":"ALL_KEYS","correct_choice":["a"],"trial_duration":2000,"flip_timestamps":[],"response_ends_trial":false,"number_of_apertures":2,"number_of_dots":[77,100],"number_of_sets":1,"coherent_direction":[235,89],"coherence":1,"opposite_coherence":0,"dot_radius":2,"dot_side_length":1,"dot_life":-1,"move_distance":1,"aperture_width":300,"aperture_height":300,"dot_color":["white","black"],"dot_shape":"circle","background_color":"#AAA","RDK_type":3,"aperture_type":2,"reinsert_type":2,"frame_rate":16.758333333333333,"frame_rate_array":[16,17,17,17,17,17,17,17,17,16,17,17,17,17,17,16,16,17,17,17,17,16,17,17,16,17,17,16,17,17,17,17,17,16,16,17,17,16,17,17,17,16,17,17,16,16,17,17,17,17,17,17,16,17,17,16,17,17,17,17,17,16,17,17,17,16,17,17,17,17,17,17,16,17,17,16,17,17,17,16,17,16,17,17,17,17,17,17,17,17,16,17,16,17,17,17,17,17,16,17,17,16,17,17,17,16,17,17,17,17,17,17,17,17,16,16,17,17,17,16],"number_of_frames":120,"aperture_center_x":640,"aperture_center_y":360,"fixation_cross":true,"fixation_cross_width":15,"fixation_cross_height":15,"fixation_cross_color":"#111","fixation_cross_thickness":1,"border":true,"border_thickness":2,"border_color":"transparent","canvas_width":1280,"canvas_height":720,"trial_type":"rdk","trial_index":39,"plugin_version":"2.0.0","time_elapsed":123687,"phase":"practice","target_direction":89,"distractor_direction":235},{"rt":7335,"stimulus":"\n        <div class=\"response-container\">\n          <div class=\"response-instruction\">\n            <p>rotate the bar by using the left and right arrow keys.</p>\n            <p>when you are determined, press the Enter key.</p>\n          </div>\n          <div class=\"response-circle\">\n            <div class=\"response-fixation\"></div>\n            <div id=\"bar\" class=\"rotating-bar\"></div>\n          </div>\n        </div>\n      ","response":"Enter","trial_type":"html-keyboard-response","trial_index":40,"plugin_version":"2.1.0","time_elapsed":131024,"random_initial_angle":279,"response_angle_css":376,"response_angle_rdk":74,"angular_error_target":-15,"angular_error_distractor":-161,"target_direction":89,"target_group":"black","reward_points":7},{"rt":null,"stimulus":"\n          <p style=\"color: #00FF00;\">Your reward: 7 points</p>\n        ","response":null,"trial_type":"html-keyboard-response","trial_index":41,"plugin_version":"2.1.0","time_elapsed":133026},{"rt":null,"stimulus":"<div class=\"fixation\" style=\"font-size: 60px;\">+</div>","response":null,"trial_type":"html-keyboard-response","trial_index":42,"plugin_version":"2.1.0","time_elapsed":134042},{"target_group":"white","target_index":0,"condition_label":"practice","rt":-1,"response":"","correct":false,"choices":"ALL_KEYS","correct_choice":["a"],"trial_duration":2000,"flip_timestamps":[],"response_ends_trial":false,"number_of_apertures":2,"number_of_dots":[100,94],"number_of_sets":1,"coherent_direction":[343,188],"coherence":1,"opposite_coherence":0,"dot_radius":2,"dot_side_length":1,"dot_life":-1,"move_distance":1,"aperture_width":300,"aperture_height":300,"dot_color":["white","black"],"dot_shape":"circle","background_color":"#AAA","RDK_type":3,"aperture_type":2,"reinsert_type":2,"frame_rate":16.683333333333334,"frame_rate_array":[3,16,17,16,17,17,17,17,17,17,17,17,16,17,17,16,17,17,17,17,17,17,17,17,17,17,16,17,17,17,17,17,16,16,16,17,16,17,17,17,17,17,17,17,17,17,17,16,17,17,16,17,17,17,17,17,17,16,17,17,17,16,16,17,16,17,16,17,17,17,16,17,17,17,17,17,17,17,17,16,16,17,17,17,17,18,17,17,17,17,16,17,16,16,17,17,17,17,17,17,16,17,17,17,17,18,17,17,17,17,18,16,16,16,16,17,17,17,17,17],"number_of_frames":120,"aperture_center_x":640,"aperture_center_y":360,"fixation_cross":true,"fixation_cross_width":15,"fixation_cross_height":15,"fixation_cross_color":"#111","fixation_cross_thickness":1,"border":true,"border_thickness":2,"border_color":"transparent","canvas_width":1280,"canvas_height":720,"trial_type":"rdk","trial_index":43,"plugin_version":"2.0.0","time_elapsed":136045,"phase":"practice","target_direction":343,"distractor_direction":188},{"rt":5908,"stimulus":"\n        <div class=\"response-container\">\n          <div class=\"response-instruction\">\n            <p>rotate the bar by using the left and right arrow keys.</p>\n            <p>when you are determined, press the Enter key.</p>\n          </div>\n          <div class=\"response-circle\">\n            <div class=\"response-fixation\"></div>\n            <div id=\"bar\" class=\"rotating-bar\"></div>\n          </div>\n        </div>\n      ","response":"Enter","trial_type":"html-keyboard-response","trial_index":44,"plugin_version":"2.1.0","time_elapsed":141955,"random_initial_angle":214,"response_angle_css":142,"response_angle_rdk":308,"angular_error_target":-35,"angular_error_distractor":120,"target_direction":343,"target_group":"white","reward_points":3},{"rt":null,"stimulus":"\n          <p style=\"color: #00FF00;\">Your reward: 3 points</p>\n        ","response":null,"trial_type":"html-keyboard-response","trial_index":45,"plugin_version":"2.1.0","time_elapsed":143968},{"rt":null,"stimulus":"<div class=\"fixation\" style=\"font-size: 60px;\">+</div>","response":null,"trial_type":"html-keyboard-response","trial_index":46,"plugin_version":"2.1.0","time_elapsed":144986},{"target_group":"black","target_index":1,"condition_label":"practice","rt":-1,"response":"","correct":false,"choices":"ALL_KEYS","correct_choice":["a"],"trial_duration":2000,"flip_timestamps":[],"response_ends_trial":false,"number_of_apertures":2,"number_of_dots":[82,100],"number_of_sets":1,"coherent_direction":[180,334],"coherence":1,"opposite_coherence":0,"dot_radius":2,"dot_side_length":1,"dot_life":-1,"move_distance":1,"aperture_width":300,"aperture_height":300,"dot_color":["white","black"],"dot_shape":"circle","background_color":"#AAA","RDK_type":3,"aperture_type":2,"reinsert_type":2,"frame_rate":16.760330578512395,"frame_rate_array":[4,17,17,17,16,17,16,17,17,17,17,17,17,17,17,17,17,17,17,17,17,17,18,16,17,16,16,18,16,17,17,17,17,17,17,17,17,17,16,17,17,17,16,18,16,17,17,17,17,17,17,17,17,16,17,16,17,16,17,17,17,16,17,17,17,17,17,17,17,17,17,17,16,16,17,17,17,17,17,17,17,17,17,17,17,17,17,17,17,16,17,17,16,16,17,17,17,17,17,17,17,17,17,17,17,17,17,16,17,17,17,17,17,17,17,17,17,17,17,17,17],"number_of_frames":121,"aperture_center_x":640,"aperture_center_y":360,"fixation_cross":true,"fixation_cross_width":15,"fixation_cross_height":15,"fixation_cross_color":"#111","fixation_cross_thickness":1,"border":true,"border_thickness":2,"border_color":"transparent","canvas_width":1280,"canvas_height":720,"trial_type":"rdk","trial_index":47,"plugin_version":"2.0.0","time_elapsed":146993,"phase":"practice","target_direction":334,"distractor_direction":180},{"rt":4103,"stimulus":"\n        <div class=\"response-container\">\n          <div class=\"response-instruction\">\n            <p>rotate the bar by using the left and right arrow keys.</p>\n            <p>when you are determined, press the Enter key.</p>\n          </div>\n          <div class=\"response-circle\">\n            <div class=\"response-fixation\"></div>\n            <div id=\"bar\" class=\"rotating-bar\"></div>\n          </div>\n        </div>\n      ","response":"Enter","trial_type":"html-keyboard-response","trial_index":48,"plugin_version":"2.1.0","time_elapsed":151098,"random_initial_angle":18,"response_angle_css":-37,"response_angle_rdk":127,"angular_error_target":153,"angular_error_distractor":-53,"target_direction":334,"target_group":"black","reward_points":0},{"rt":null,"stimulus":"\n          <p style=\"color: #FF3333;\">Your reward: 0 points</p>\n        ","response":null,"trial_type":"html-keyboard-response","trial_index":49,"plugin_version":"2.1.0","time_elapsed":153104},{"rt":null,"stimulus":"<div class=\"fixation\" style=\"font-size: 60px;\">+</div>","response":null,"trial_type":"html-keyboard-response","trial_index":50,"plugin_version":"2.1.0","time_elapsed":154115},{"target_group":"white","target_index":0,"condition_label":"practice","rt":-1,"response":"","correct":false,"choices":"ALL_KEYS","correct_choice":["a"],"trial_duration":2000,"flip_timestamps":[],"response_ends_trial":false,"number_of_apertures":2,"number_of_dots":[100,93],"number_of_sets":1,"coherent_direction":[228,117],"coherence":1,"opposite_coherence":0,"dot_radius":2,"dot_side_length":1,"dot_life":-1,"move_distance":1,"aperture_width":300,"aperture_height":300,"dot_color":["white","black"],"dot_shape":"circle","background_color":"#AAA","RDK_type":3,"aperture_type":2,"reinsert_type":2,"frame_rate":16.644628099173552,"frame_rate_array":[1,15,16,17,16,17,17,16,17,17,17,17,17,17,17,17,17,17,17,17,17,17,16,17,17,17,17,17,17,17,16,17,17,17,16,17,17,17,16,16,16,16,17,17,17,17,17,17,17,17,17,17,16,17,17,17,17,17,17,17,17,17,17,17,17,17,16,17,16,17,17,17,17,17,17,17,17,16,17,16,17,17,17,16,16,17,17,17,17,17,17,16,17,17,16,18,17,17,16,17,17,16,17,17,17,16,17,17,17,17,17,17,17,17,17,16,16,16,16,17,17],"number_of_frames":121,"aperture_center_x":640,"aperture_center_y":360,"fixation_cross":true,"fixation_cross_width":15,"fixation_cross_height":15,"fixation_cross_color":"#111","fixation_cross_thickness":1,"border":true,"border_thickness":2,"border_color":"transparent","canvas_width":1280,"canvas_height":720,"trial_type":"rdk","trial_index":51,"plugin_version":"2.0.0","time_elapsed":156136,"phase":"practice","target_direction":228,"distractor_direction":117},{"rt":3292,"stimulus":"\n        <div class=\"response-container\">\n          <div class=\"response-instruction\">\n            <p>rotate the bar by using the left and right arrow keys.</p>\n            <p>when you are determined, press the Enter key.</p>\n          </div>\n          <div class=\"response-circle\">\n            <div class=\"response-fixation\"></div>\n            <div id=\"bar\" class=\"rotating-bar\"></div>\n          </div>\n        </div>\n      ","response":"Enter","trial_type":"html-keyboard-response","trial_index":52,"plugin_version":"2.1.0","time_elapsed":159429,"random_initial_angle":25,"response_angle_css":-9,"response_angle_rdk":99,"angular_error_target":-129,"angular_error_distractor":-18,"target_direction":228,"target_group":"white","reward_points":0},{"rt":null,"stimulus":"\n          <p style=\"color: #FF3333;\">Your reward: 0 points</p>\n        ","response":null,"trial_type":"html-keyboard-response","trial_index":53,"plugin_version":"2.1.0","time_elapsed":161434},{"rt":null,"stimulus":"<div class=\"fixation\" style=\"font-size: 60px;\">+</div>","response":null,"trial_type":"html-keyboard-response","trial_index":54,"plugin_version":"2.1.0","time_elapsed":162449},{"target_group":"white","target_index":0,"condition_label":"practice","rt":-1,"response":"","correct":false,"choices":"ALL_KEYS","correct_choice":["a"],"trial_duration":2000,"flip_timestamps":[],"response_ends_trial":false,"number_of_apertures":2,"number_of_dots":[100,50],"number_of_sets":1,"coherent_direction":[326,94],"coherence":1,"opposite_coherence":0,"dot_radius":2,"dot_side_length":1,"dot_life":-1,"move_distance":1,"aperture_width":300,"aperture_height":300,"dot_color":["white","black"],"dot_shape":"circle","background_color":"#AAA","RDK_type":3,"aperture_type":2,"reinsert_type":2,"frame_rate":16.858333333333334,"frame_rate_array":[16,17,17,17,17,16,17,17,17,17,17,17,17,17,17,17,16,17,17,16,17,17,17,17,17,17,17,17,16,16,17,17,17,17,18,16,16,17,17,17,17,17,17,17,17,17,17,17,16,17,17,17,17,17,17,16,17,16,17,17,16,16,17,17,17,17,17,17,17,16,17,16,17,17,17,17,17,17,17,17,17,17,18,16,16,17,17,17,17,17,17,17,17,16,16,17,17,17,17,17,17,17,17,17,17,17,17,17,17,17,17,17,17,17,17,17,17,17,17,17],"number_of_frames":120,"aperture_center_x":640,"aperture_center_y":360,"fixation_cross":true,"fixation_cross_width":15,"fixation_cross_height":15,"fixation_cross_color":"#111","fixation_cross_thickness":1,"border":true,"border_thickness":2,"border_color":"transparent","canvas_width":1280,"canvas_height":720,"trial_type":"rdk","trial_index":55,"plugin_version":"2.0.0","time_elapsed":164455,"phase":"practice","target_direction":326,"distractor_direction":94},{"rt":5738,"stimulus":"\n        <div class=\"response-container\">\n          <div class=\"response-instruction\">\n            <p>rotate the bar by using the left and right arrow keys.</p>\n            <p>when you are determined, press the Enter key.</p>\n          </div>\n          <div class=\"response-circle\">\n            <div class=\"response-fixation\"></div>\n            <div id=\"bar\" class=\"rotating-bar\"></div>\n          </div>\n        </div>\n      ","response":"Enter","trial_type":"html-keyboard-response","trial_index":56,"plugin_version":"2.1.0","time_elapsed":170194,"random_initial_angle":228,"response_angle_css":134,"response_angle_rdk":316,"angular_error_target":-10,"angular_error_distractor":-138,"target_direction":326,"target_group":"white","reward_points":8},{"rt":null,"stimulus":"\n          <p style=\"color: #00FF00;\">Your reward: 8 points</p>\n        ","response":null,"trial_type":"html-keyboard-response","trial_index":57,"plugin_version":"2.1.0","time_elapsed":172208},{"rt":null,"stimulus":"<div class=\"fixation\" style=\"font-size: 60px;\">+</div>","response":null,"trial_type":"html-keyboard-response","trial_index":58,"plugin_version":"2.1.0","time_elapsed":173225},{"target_group":"black","target_index":1,"condition_label":"practice","rt":-1,"response":"","correct":false,"choices":"ALL_KEYS","correct_choice":["a"],"trial_duration":2000,"flip_timestamps":[],"response_ends_trial":false,"number_of_apertures":2,"number_of_dots":[66,100],"number_of_sets":1,"coherent_direction":[251,36],"coherence":1,"opposite_coherence":0,"dot_radius":2,"dot_side_length":1,"dot_life":-1,"move_distance":1,"aperture_width":300,"aperture_height":300,"dot_color":["white","black"],"dot_shape":"circle","background_color":"#AAA","RDK_type":3,"aperture_type":2,"reinsert_type":2,"frame_rate":16.669421487603305,"frame_rate_array":[3,15,17,17,17,17,17,16,17,17,16,17,17,17,17,17,17,16,16,17,16,17,17,17,17,17,17,17,17,17,17,17,17,17,17,17,17,17,16,17,17,17,17,16,17,17,16,17,17,16,16,17,17,17,17,17,17,17,17,17,17,16,17,17,17,17,17,17,17,17,17,17,17,17,17,17,16,17,17,17,17,16,16,17,16,17,17,17,17,17,17,17,16,17,17,17,17,17,17,17,16,17,17,17,17,17,17,17,17,17,17,16,17,15,16,16,17,16,17,17,16],"number_of_frames":121,"aperture_center_x":640,"aperture_center_y":360,"fixation_cross":true,"fixation_cross_width":15,"fixation_cross_height":15,"fixation_cross_color":"#111","fixation_cross_thickness":1,"border":true,"border_thickness":2,"border_color":"transparent","canvas_width":1280,"canvas_height":720,"trial_type":"rdk","trial_index":59,"plugin_version":"2.0.0","time_elapsed":175228,"phase":"practice","target_direction":36,"distractor_direction":251},{"rt":5070,"stimulus":"\n        <div class=\"response-container\">\n          <div class=\"response-instruction\">\n            <p>rotate the bar by using the left and right arrow keys.</p>\n            <p>when you are determined, press the Enter key.</p>\n          </div>\n          <div class=\"response-circle\">\n            <div class=\"response-fixation\"></div>\n            <div id=\"bar\" class=\"rotating-bar\"></div>\n          </div>\n        </div>\n      ","response":"Enter","trial_type":"html-keyboard-response","trial_index":60,"plugin_version":"2.1.0","time_elapsed":180300,"random_initial_angle":176,"response_angle_css":64,"response_angle_rdk":26,"angular_error_target":-10,"angular_error_distractor":135,"target_direction":36,"target_group":"black","reward_points":8},{"rt":null,"stimulus":"\n          <p style=\"color: #00FF00;\">Your reward: 8 points</p>\n        ","response":null,"trial_type":"html-keyboard-response","trial_index":61,"plugin_version":"2.1.0","time_elapsed":182302},{"rt":null,"stimulus":"<div class=\"fixation\" style=\"font-size: 60px;\">+</div>","response":null,"trial_type":"html-keyboard-response","trial_index":62,"plugin_version":"2.1.0","time_elapsed":183306},{"target_group":"white","target_index":0,"condition_label":"practice","rt":-1,"response":"","correct":false,"choices":"ALL_KEYS","correct_choice":["a"],"trial_duration":2000,"flip_timestamps":[],"response_ends_trial":false,"number_of_apertures":2,"number_of_dots":[100,63],"number_of_sets":1,"coherent_direction":[297,41],"coherence":1,"opposite_coherence":0,"dot_radius":2,"dot_side_length":1,"dot_life":-1,"move_distance":1,"aperture_width":300,"aperture_height":300,"dot_color":["white","black"],"dot_shape":"circle","background_color":"#AAA","RDK_type":3,"aperture_type":2,"reinsert_type":2,"frame_rate":16.8,"frame_rate_array":[18,15,17,17,17,16,17,17,17,17,17,17,17,17,16,16,16,16,17,17,17,17,17,17,17,16,17,16,17,17,17,17,17,16,17,17,17,17,17,16,17,16,16,17,17,17,17,17,16,16,17,17,16,17,17,17,17,17,17,17,17,17,17,17,17,16,17,17,17,17,17,16,16,17,17,17,17,17,17,17,16,17,16,17,17,17,17,17,17,17,17,17,17,17,16,17,17,17,17,17,17,16,17,17,17,17,17,17,17,17,17,17,17,16,16,16,17,17,17,18],"number_of_frames":120,"aperture_center_x":640,"aperture_center_y":360,"fixation_cross":true,"fixation_cross_width":15,"fixation_cross_height":15,"fixation_cross_color":"#111","fixation_cross_thickness":1,"border":true,"border_thickness":2,"border_color":"transparent","canvas_width":1280,"canvas_height":720,"trial_type":"rdk","trial_index":63,"plugin_version":"2.0.0","time_elapsed":185308,"phase":"practice","target_direction":297,"distractor_direction":41},{"rt":5516,"stimulus":"\n        <div class=\"response-container\">\n          <div class=\"response-instruction\">\n            <p>rotate the bar by using the left and right arrow keys.</p>\n            <p>when you are determined, press the Enter key.</p>\n          </div>\n          <div class=\"response-circle\">\n            <div class=\"response-fixation\"></div>\n            <div id=\"bar\" class=\"rotating-bar\"></div>\n          </div>\n        </div>\n      ","response":"Enter","trial_type":"html-keyboard-response","trial_index":64,"plugin_version":"2.1.0","time_elapsed":190825,"random_initial_angle":14,"response_angle_css":150,"response_angle_rdk":300,"angular_error_target":3,"angular_error_distractor":-101,"target_direction":297,"target_group":"white","reward_points":9},{"rt":null,"stimulus":"\n          <p style=\"color: #00FF00;\">Your reward: 9 points</p>\n        ","response":null,"trial_type":"html-keyboard-response","trial_index":65,"plugin_version":"2.1.0","time_elapsed":192835},{"rt":6199,"stimulus":"\n        <div class=\"instructions-container\">\n          <h2>End of Practice</h2>\n          <p>You have completed the practice trials.</p>\n          <p>Press <strong>Enter</strong> key to begin the main experiment.</p>\n        </div>\n      ","response":"Enter","trial_type":"html-keyboard-response","trial_index":66,"plugin_version":"2.1.0","time_elapsed":199036},{"rt":null,"stimulus":"<div class=\"fixation\" style=\"font-size: 60px;\">+</div>","response":null,"trial_type":"html-keyboard-response","trial_index":67,"plugin_version":"2.1.0","time_elapsed":200049},{"phase":"learning-awareness","target_group":"white","condition_label":"W_H_vs_B_L_rep13","target_direction":242,"distractor_direction":138,"session_rotation":204,"rt":-1,"response":"","correct":false,"choices":"ALL_KEYS","correct_choice":["a"],"trial_duration":2000,"flip_timestamps":[],"response_ends_trial":false,"number_of_apertures":200,"number_of_dots":[1,1,1,1,1,1,1,1,1,1,1,1,1,1,1,1,1,1,1,1,1,1,1,1,1,1,1,1,1,1,1,1,1,1,1,1,1,1,1,1,1,1,1,1,1,1,1,1,1,1,1,1,1,1,1,1,1,1,1,1,1,1,1,1,1,1,1,1,1,1,1,1,1,1,1,1,1,1,1,1,1,1,1,1,1,1,1,1,1,1,1,1,1,1,1,1,1,1,1,1,1,1,1,1,1,1,1,1,1,1,1,1,1,1,1,1,1,1,1,1,1,1,1,1,1,1,1,1,1,1,1,1,1,1,1,1,1,1,1,1,1,1,1,1,1,1,1,1,1,1,1,1,1,1,1,1,1,1,1,1,1,1,1,1,1,1,1,1,1,1,1,1,1,1,1,1,1,1,1,1,1,1,1,1,1,1,1,1,1,1,1,1,1,1,1,1,1,1,1,1],"number_of_sets":1,"coherent_direction":[242,242,138,242,138,138,242,242,138,138,242,242,242,242,138,138,242,138,138,242,242,138,242,138,242,138,138,138,138,138,138,138,242,242,138,138,242,138,242,138,242,242,242,138,138,138,242,242,242,138,242,138,242,242,138,242,138,242,138,242,138,138,138,138,138,242,242,138,242,242,138,138,138,138,242,242,138,242,242,242,138,138,242,138,138,138,138,242,138,242,242,242,242,138,242,138,242,138,242,138,242,138,138,138,138,138,242,242,138,138,242,138,242,242,138,138,242,242,138,242,242,138,138,138,138,242,242,242,138,242,138,138,242,138,242,242,242,138,242,138,242,242,242,242,138,138,242,138,138,138,138,138,242,138,138,242,242,242,138,138,242,138,242,138,138,242,138,138,138,242,242,138,242,242,242,242,242,242,138,138,138,242,242,138,138,242,242,242,138,242,242,242,242,242,242,242,138,242,138,138],"coherence":1,"opposite_coherence":0,"dot_radius":2,"dot_side_length":1,"dot_life":-1,"move_distance":1,"aperture_width":300,"aperture_height":300,"dot_color":["white","white","black","white","black","black","white","white","black","black","white","white","white","white","black","black","white","black","black","white","white","black","white","black","white","black","black","black","black","black","black","black","white","white","black","black","white","black","white","black","white","white","white","black","black","black","white","white","white","black","white","black","white","white","black","white","black","white","black","white","black","black","black","black","black","white","white","black","white","white","black","black","black","black","white","white","black","white","white","white","black","black","white","black","black","black","black","white","black","white","white","white","white","black","white","black","white","black","white","black","white","black","black","black","black","black","white","white","black","black","white","black","white","white","black","black","white","white","black","white","white","black","black","black","black","white","white","white","black","white","black","black","white","black","white","white","white","black","white","black","white","white","white","white","black","black","white","black","black","black","black","black","white","black","black","white","white","white","black","black","white","black","white","black","black","white","black","black","black","white","white","black","white","white","white","white","white","white","black","black","black","white","white","black","black","white","white","white","black","white","white","white","white","white","white","white","black","white","black","black"],"dot_shape":"circle","background_color":"#AAA","RDK_type":3,"aperture_type":2,"reinsert_type":2,"frame_rate":16.708333333333332,"frame_rate_array":[14,16,16,16,17,17,17,17,16,17,16,18,17,16,17,16,17,17,16,17,16,17,16,17,17,17,17,17,17,17,17,17,17,17,16,17,17,17,17,16,17,17,17,17,16,17,16,17,16,17,17,16,17,17,17,17,16,18,17,17,17,16,17,17,16,16,17,17,17,16,17,16,17,16,17,16,17,17,17,16,17,17,17,16,16,16,17,17,17,17,17,17,17,17,17,17,16,16,17,17,17,16,17,17,17,17,16,17,17,17,18,16,18,16,18,15,16,17,17,17],"number_of_frames":120,"aperture_center_x":640,"aperture_center_y":360,"fixation_cross":true,"fixation_cross_width":15,"fixation_cross_height":15,"fixation_cross_color":"#111","fixation_cross_thickness":1,"border":true,"border_thickness":2,"border_color":"transparent","canvas_width":1280,"canvas_height":720,"trial_type":"rdk","trial_index":68,"plugin_version":"2.0.0","time_elapsed":202066},{"rt":5336,"stimulus":"\n        <div class=\"response-container\">\n          <div class=\"response-instruction\">\n            <p>rotate the bar by using the left and right arrow keys.</p>\n            <p>when you are determined, press the Enter key.</p>\n          </div>\n          <div class=\"response-circle\">\n            <div class=\"response-fixation\"></div>\n            <div id=\"bar\" class=\"rotating-bar\"></div>\n          </div>\n        </div>\n      ","response":"Enter","trial_type":"html-keyboard-response","trial_index":69,"plugin_version":"2.1.0","time_elapsed":207403,"random_initial_angle":139,"response_angle_css":-28,"response_angle_rdk":118,"angular_error_target":-124,"angular_error_distractor":-20,"target_direction":242,"target_group":"white","reward_points":0},{"rt":null,"stimulus":"\n          <p style=\"color: #FF3333;\">Your reward: 0 points</p>\n        ","response":null,"trial_type":"html-keyboard-response","trial_index":70,"plugin_version":"2.1.0","time_elapsed":209410},{"rt":null,"stimulus":"<div class=\"fixation\" style=\"font-size: 60px;\">+</div>","response":null,"trial_type":"html-keyboard-response","trial_index":71,"plugin_version":"2.1.0","time_elapsed":210426},{"phase":"learning-awareness","target_group":"black","condition_label":"B_H_vs_W_L_rep2","target_direction":294,"distractor_direction":38,"session_rotation":204,"rt":-1,"response":"","correct":false,"choices":"ALL_KEYS","correct_choice":["a"],"trial_duration":2000,"flip_timestamps":[],"response_ends_trial":false,"number_of_apertures":200,"number_of_dots":[1,1,1,1,1,1,1,1,1,1,1,1,1,1,1,1,1,1,1,1,1,1,1,1,1,1,1,1,1,1,1,1,1,1,1,1,1,1,1,1,1,1,1,1,1,1,1,1,1,1,1,1,1,1,1,1,1,1,1,1,1,1,1,1,1,1,1,1,1,1,1,1,1,1,1,1,1,1,1,1,1,1,1,1,1,1,1,1,1,1,1,1,1,1,1,1,1,1,1,1,1,1,1,1,1,1,1,1,1,1,1,1,1,1,1,1,1,1,1,1,1,1,1,1,1,1,1,1,1,1,1,1,1,1,1,1,1,1,1,1,1,1,1,1,1,1,1,1,1,1,1,1,1,1,1,1,1,1,1,1,1,1,1,1,1,1,1,1,1,1,1,1,1,1,1,1,1,1,1,1,1,1,1,1,1,1,1,1,1,1,1,1,1,1,1,1,1,1,1,1],"number_of_sets":1,"coherent_direction":[38,294,38,38,38,38,38,294,38,38,294,294,294,294,38,38,38,294,38,294,38,294,294,38,294,38,294,294,38,38,294,38,294,294,38,294,294,294,294,38,38,38,294,38,38,294,38,294,38,38,38,294,38,38,38,38,294,38,294,38,294,294,38,38,38,294,294,38,294,38,294,294,38,38,294,38,294,38,294,294,294,294,294,38,294,38,294,38,38,38,294,38,294,294,294,38,294,294,294,294,38,38,38,38,294,294,38,38,294,294,38,294,294,294,294,294,294,38,294,38,38,294,38,38,38,38,294,294,38,294,38,38,294,294,294,294,38,38,38,294,294,294,38,38,38,38,294,294,38,38,38,38,294,38,38,294,294,294,38,38,38,38,294,38,294,38,294,38,38,294,294,294,294,38,294,38,294,294,294,294,294,38,294,38,294,38,38,294,294,294,38,294,38,294,294,38,38,294,38,38],"coherence":1,"opposite_coherence":0,"dot_radius":2,"dot_side_length":1,"dot_life":-1,"move_distance":1,"aperture_width":300,"aperture_height":300,"dot_color":["white","black","white","white","white","white","white","black","white","white","black","black","black","black","white","white","white","black","white","black","white","black","black","white","black","white","black","black","white","white","black","white","black","black","white","black","black","black","black","white","white","white","black","white","white","black","white","black","white","white","white","black","white","white","white","white","black","white","black","white","black","black","white","white","white","black","black","white","black","white","black","black","white","white","black","white","black","white","black","black","black","black","black","white","black","white","black","white","white","white","black","white","black","black","black","white","black","black","black","black","white","white","white","white","black","black","white","white","black","black","white","black","black","black","black","black","black","white","black","white","white","black","white","white","white","white","black","black","white","black","white","white","black","black","black","black","white","white","white","black","black","black","white","white","white","white","black","black","white","white","white","white","black","white","white","black","black","black","white","white","white","white","black","white","black","white","black","white","white","black","black","black","black","white","black","white","black","black","black","black","black","white","black","white","black","white","white","black","black","black","white","black","white","black","black","white","white","black","white","white"],"dot_shape":"circle","background_color":"#AAA","RDK_type":3,"aperture_type":2,"reinsert_type":2,"frame_rate":16.735537190082646,"frame_rate_array":[2,17,16,17,17,17,17,16,17,16,17,17,17,17,17,17,17,17,17,17,17,17,16,17,17,17,17,17,17,17,17,16,17,16,17,17,17,17,17,18,16,17,17,17,17,17,17,17,17,17,17,17,17,17,17,17,17,17,17,17,16,17,16,17,17,16,17,17,17,17,17,16,17,17,17,17,17,17,17,17,16,17,17,17,16,17,17,17,17,16,18,16,17,17,17,17,17,15,16,17,17,17,17,17,17,17,17,17,17,17,17,17,17,17,17,16,17,17,17,17,17],"number_of_frames":121,"aperture_center_x":640,"aperture_center_y":360,"fixation_cross":true,"fixation_cross_width":15,"fixation_cross_height":15,"fixation_cross_color":"#111","fixation_cross_thickness":1,"border":true,"border_thickness":2,"border_color":"transparent","canvas_width":1280,"canvas_height":720,"trial_type":"rdk","trial_index":72,"plugin_version":"2.0.0","time_elapsed":212430},{"rt":4225,"stimulus":"\n        <div class=\"response-container\">\n          <div class=\"response-instruction\">\n            <p>rotate the bar by using the left and right arrow keys.</p>\n            <p>when you are determined, press the Enter key.</p>\n          </div>\n          <div class=\"response-circle\">\n            <div class=\"response-fixation\"></div>\n            <div id=\"bar\" class=\"rotating-bar\"></div>\n          </div>\n        </div>\n      ","response":"Enter","trial_type":"html-keyboard-response","trial_index":73,"plugin_version":"2.1.0","time_elapsed":216656,"random_initial_angle":248,"response_angle_css":158,"response_angle_rdk":292,"angular_error_target":-2,"angular_error_distractor":-106,"target_direction":294,"target_group":"black","reward_points":9},{"rt":null,"stimulus":"\n          <p style=\"color: #00FF00;\">Your reward: 9 points</p>\n        ","response":null,"trial_type":"html-keyboard-response","trial_index":74,"plugin_version":"2.1.0","time_elapsed":218657},{"rt":null,"stimulus":"<div class=\"fixation\" style=\"font-size: 60px;\">+</div>","response":null,"trial_type":"html-keyboard-response","trial_index":75,"plugin_version":"2.1.0","time_elapsed":219673},{"phase":"learning-awareness","target_group":"black","condition_label":"B_H_vs_W_L_rep21","target_direction":318,"distractor_direction":63,"session_rotation":204,"rt":-1,"response":"","correct":false,"choices":"ALL_KEYS","correct_choice":["a"],"trial_duration":2000,"flip_timestamps":[],"response_ends_trial":false,"number_of_apertures":200,"number_of_dots":[1,1,1,1,1,1,1,1,1,1,1,1,1,1,1,1,1,1,1,1,1,1,1,1,1,1,1,1,1,1,1,1,1,1,1,1,1,1,1,1,1,1,1,1,1,1,1,1,1,1,1,1,1,1,1,1,1,1,1,1,1,1,1,1,1,1,1,1,1,1,1,1,1,1,1,1,1,1,1,1,1,1,1,1,1,1,1,1,1,1,1,1,1,1,1,1,1,1,1,1,1,1,1,1,1,1,1,1,1,1,1,1,1,1,1,1,1,1,1,1,1,1,1,1,1,1,1,1,1,1,1,1,1,1,1,1,1,1,1,1,1,1,1,1,1,1,1,1,1,1,1,1,1,1,1,1,1,1,1,1,1,1,1,1,1,1,1,1,1,1,1,1,1,1,1,1,1,1,1,1,1,1,1,1,1,1,1,1,1,1,1,1,1,1,1,1,1,1,1,1],"number_of_sets":1,"coherent_direction":[63,63,318,63,318,318,318,63,318,63,63,63,63,63,318,63,63,63,63,318,318,63,318,318,318,63,63,318,63,318,63,318,318,318,63,318,63,318,318,318,318,318,63,63,63,63,63,63,318,63,318,63,318,63,63,318,318,63,318,63,318,63,63,318,63,63,318,63,63,318,63,63,318,318,318,63,318,318,63,63,318,318,318,318,318,318,318,318,63,63,318,63,318,318,318,63,63,63,318,318,318,63,318,63,63,63,63,318,63,63,318,318,63,63,318,318,318,318,63,318,63,318,318,63,63,63,63,63,318,63,318,318,63,63,63,63,318,318,63,318,318,63,318,318,63,63,63,63,318,318,318,63,318,63,63,318,318,318,318,318,318,63,318,63,318,63,63,63,63,318,318,63,63,63,63,63,318,63,63,63,318,318,318,318,318,318,318,318,63,63,63,318,63,318,318,63,318,63,63,318],"coherence":1,"opposite_coherence":0,"dot_radius":2,"dot_side_length":1,"dot_life":-1,"move_distance":1,"aperture_width":300,"aperture_height":300,"dot_color":["white","white","black","white","black","black","black","white","black","white","white","white","white","white","black","white","white","white","white","black","black","white","black","black","black","white","white","black","white","black","white","black","black","black","white","black","white","black","black","black","black","black","white","white","white","white","white","white","black","white","black","white","black","white","white","black","black","white","black","white","black","white","white","black","white","white","black","white","white","black","white","white","black","black","black","white","black","black","white","white","black","black","black","black","black","black","black","black","white","white","black","white","black","black","black","white","white","white","black","black","black","white","black","white","white","white","white","black","white","white","black","black","white","white","black","black","black","black","white","black","white","black","black","white","white","white","white","white","black","white","black","black","white","white","white","white","black","black","white","black","black","white","black","black","white","white","white","white","black","black","black","white","black","white","white","black","black","black","black","black","black","white","black","white","black","white","white","white","white","black","black","white","white","white","white","white","black","white","white","white","black","black","black","black","black","black","black","black","white","white","white","black","white","black","black","white","black","white","white","black"],"dot_shape":"circle","background_color":"#AAA","RDK_type":3,"aperture_type":2,"reinsert_type":2,"frame_rate":16.858333333333334,"frame_rate_array":[15,17,17,17,17,16,17,17,17,17,17,17,17,16,18,16,17,16,17,17,17,17,17,16,17,17,17,17,17,17,17,17,17,17,17,17,17,17,17,17,17,17,17,17,17,16,17,17,17,17,17,16,17,17,17,17,17,16,17,17,17,17,16,17,16,17,17,17,17,17,17,17,17,17,17,16,17,17,16,17,16,17,17,17,17,17,17,17,17,17,17,17,17,16,17,17,17,17,17,17,17,17,17,17,17,17,17,17,17,16,17,17,17,17,16,17,17,17,17,17],"number_of_frames":120,"aperture_center_x":640,"aperture_center_y":360,"fixation_cross":true,"fixation_cross_width":15,"fixation_cross_height":15,"fixation_cross_color":"#111","fixation_cross_thickness":1,"border":true,"border_thickness":2,"border_color":"transparent","canvas_width":1280,"canvas_height":720,"trial_type":"rdk","trial_index":76,"plugin_version":"2.0.0","time_elapsed":221692},{"rt":5587,"stimulus":"\n        <div class=\"response-container\">\n          <div class=\"response-instruction\">\n            <p>rotate the bar by using the left and right arrow keys.</p>\n            <p>when you are determined, press the Enter key.</p>\n          </div>\n          <div class=\"response-circle\">\n            <div class=\"response-fixation\"></div>\n            <div id=\"bar\" class=\"rotating-bar\"></div>\n          </div>\n        </div>\n      ","response":"Enter","trial_type":"html-keyboard-response","trial_index":77,"plugin_version":"2.1.0","time_elapsed":227279,"random_initial_angle":270,"response_angle_css":367,"response_angle_rdk":83,"angular_error_target":125,"angular_error_distractor":20,"target_direction":318,"target_group":"black","reward_points":0},{"rt":null,"stimulus":"\n          <p style=\"color: #FF3333;\">Your reward: 0 points</p>\n        ","response":null,"trial_type":"html-keyboard-response","trial_index":78,"plugin_version":"2.1.0","time_elapsed":229285},{"rt":null,"stimulus":"<div class=\"fixation\" style=\"font-size: 60px;\">+</div>","response":null,"trial_type":"html-keyboard-response","trial_index":79,"plugin_version":"2.1.0","time_elapsed":230294},{"phase":"learning-awareness","target_group":"black","condition_label":"B_H_vs_W_L_rep18","target_direction":305,"distractor_direction":50,"session_rotation":204,"rt":-1,"response":"","correct":false,"choices":"ALL_KEYS","correct_choice":["a"],"trial_duration":2000,"flip_timestamps":[],"response_ends_trial":false,"number_of_apertures":200,"number_of_dots":[1,1,1,1,1,1,1,1,1,1,1,1,1,1,1,1,1,1,1,1,1,1,1,1,1,1,1,1,1,1,1,1,1,1,1,1,1,1,1,1,1,1,1,1,1,1,1,1,1,1,1,1,1,1,1,1,1,1,1,1,1,1,1,1,1,1,1,1,1,1,1,1,1,1,1,1,1,1,1,1,1,1,1,1,1,1,1,1,1,1,1,1,1,1,1,1,1,1,1,1,1,1,1,1,1,1,1,1,1,1,1,1,1,1,1,1,1,1,1,1,1,1,1,1,1,1,1,1,1,1,1,1,1,1,1,1,1,1,1,1,1,1,1,1,1,1,1,1,1,1,1,1,1,1,1,1,1,1,1,1,1,1,1,1,1,1,1,1,1,1,1,1,1,1,1,1,1,1,1,1,1,1,1,1,1,1,1,1,1,1,1,1,1,1,1,1,1,1,1,1],"number_of_sets":1,"coherent_direction":[305,305,305,305,50,50,50,305,50,305,305,50,305,305,50,50,305,305,50,50,305,305,305,50,305,50,305,305,50,305,50,50,305,305,305,305,50,305,50,305,50,305,305,50,50,50,305,50,50,50,50,50,305,305,50,50,50,305,50,50,305,305,305,305,305,50,50,50,305,305,305,50,305,50,50,305,305,50,50,305,50,50,50,305,50,50,50,50,305,305,305,305,50,50,305,50,50,50,305,50,305,50,50,305,305,305,50,50,50,50,305,50,50,305,305,305,50,50,305,305,305,50,305,50,305,305,50,50,50,50,50,50,305,50,305,50,50,305,50,50,305,305,50,305,305,50,305,50,50,305,305,305,305,305,305,305,50,50,50,305,305,305,305,50,50,50,305,305,50,305,305,305,50,50,305,50,305,50,305,305,50,305,50,305,305,305,50,305,50,305,50,305,50,50,50,305,50,50,50,305],"coherence":1,"opposite_coherence":0,"dot_radius":2,"dot_side_length":1,"dot_life":-1,"move_distance":1,"aperture_width":300,"aperture_height":300,"dot_color":["black","black","black","black","white","white","white","black","white","black","black","white","black","black","white","white","black","black","white","white","black","black","black","white","black","white","black","black","white","black","white","white","black","black","black","black","white","black","white","black","white","black","black","white","white","white","black","white","white","white","white","white","black","black","white","white","white","black","white","white","black","black","black","black","black","white","white","white","black","black","black","white","black","white","white","black","black","white","white","black","white","white","white","black","white","white","white","white","black","black","black","black","white","white","black","white","white","white","black","white","black","white","white","black","black","black","white","white","white","white","black","white","white","black","black","black","white","white","black","black","black","white","black","white","black","black","white","white","white","white","white","white","black","white","black","white","white","black","white","white","black","black","white","black","black","white","black","white","white","black","black","black","black","black","black","black","white","white","white","black","black","black","black","white","white","white","black","black","white","black","black","black","white","white","black","white","black","white","black","black","white","black","white","black","black","black","white","black","white","black","white","black","white","white","white","black","white","white","white","black"],"dot_shape":"circle","background_color":"#AAA","RDK_type":3,"aperture_type":2,"reinsert_type":2,"frame_rate":16.768595041322314,"frame_rate_array":[7,17,17,16,17,17,16,18,17,17,15,17,17,17,17,16,17,17,17,17,17,17,16,17,17,17,17,17,16,18,16,17,17,17,17,17,17,17,16,17,17,17,16,17,16,17,17,17,17,17,17,16,17,17,17,17,17,17,17,16,18,16,17,17,17,17,17,17,17,17,16,17,17,17,16,17,17,17,17,17,17,17,17,17,17,17,17,16,17,17,17,17,17,17,16,17,17,17,17,17,16,17,17,17,17,18,17,17,17,15,18,17,16,17,17,17,17,17,16,17,17],"number_of_frames":121,"aperture_center_x":640,"aperture_center_y":360,"fixation_cross":true,"fixation_cross_width":15,"fixation_cross_height":15,"fixation_cross_color":"#111","fixation_cross_thickness":1,"border":true,"border_thickness":2,"border_color":"transparent","canvas_width":1280,"canvas_height":720,"trial_type":"rdk","trial_index":80,"plugin_version":"2.0.0","time_elapsed":232303},{"rt":7310,"stimulus":"\n        <div class=\"response-container\">\n          <div class=\"response-instruction\">\n            <p>rotate the bar by using the left and right arrow keys.</p>\n            <p>when you are determined, press the Enter key.</p>\n          </div>\n          <div class=\"response-circle\">\n            <div class=\"response-fixation\"></div>\n            <div id=\"bar\" class=\"rotating-bar\"></div>\n          </div>\n        </div>\n      ","response":"Enter","trial_type":"html-keyboard-response","trial_index":81,"plugin_version":"2.1.0","time_elapsed":239614,"random_initial_angle":18,"response_angle_css":-195,"response_angle_rdk":285,"angular_error_target":-20,"angular_error_distractor":-125,"target_direction":305,"target_group":"black","reward_points":6},{"rt":null,"stimulus":"\n          <p style=\"color: #00FF00;\">Your reward: 6 points</p>\n        ","response":null,"trial_type":"html-keyboard-response","trial_index":82,"plugin_version":"2.1.0","time_elapsed":241630},{"rt":null,"stimulus":"<div class=\"fixation\" style=\"font-size: 60px;\">+</div>","response":null,"trial_type":"html-keyboard-response","trial_index":83,"plugin_version":"2.1.0","time_elapsed":242643},{"phase":"learning-awareness","target_group":"white","condition_label":"W_H_vs_B_L_rep12","target_direction":241,"distractor_direction":122,"session_rotation":204,"rt":-1,"response":"","correct":false,"choices":"ALL_KEYS","correct_choice":["a"],"trial_duration":2000,"flip_timestamps":[],"response_ends_trial":false,"number_of_apertures":200,"number_of_dots":[1,1,1,1,1,1,1,1,1,1,1,1,1,1,1,1,1,1,1,1,1,1,1,1,1,1,1,1,1,1,1,1,1,1,1,1,1,1,1,1,1,1,1,1,1,1,1,1,1,1,1,1,1,1,1,1,1,1,1,1,1,1,1,1,1,1,1,1,1,1,1,1,1,1,1,1,1,1,1,1,1,1,1,1,1,1,1,1,1,1,1,1,1,1,1,1,1,1,1,1,1,1,1,1,1,1,1,1,1,1,1,1,1,1,1,1,1,1,1,1,1,1,1,1,1,1,1,1,1,1,1,1,1,1,1,1,1,1,1,1,1,1,1,1,1,1,1,1,1,1,1,1,1,1,1,1,1,1,1,1,1,1,1,1,1,1,1,1,1,1,1,1,1,1,1,1,1,1,1,1,1,1,1,1,1,1,1,1,1,1,1,1,1,1,1,1,1,1,1,1],"number_of_sets":1,"coherent_direction":[122,122,241,122,122,241,241,241,122,241,241,122,122,122,241,122,241,122,122,241,241,122,122,241,241,122,241,241,122,122,241,241,241,122,122,241,241,241,122,122,241,241,241,122,241,122,241,241,122,122,241,241,241,241,122,122,122,122,122,122,122,241,241,122,241,241,122,241,241,122,122,241,241,241,241,122,122,241,122,122,241,241,241,122,122,122,122,241,241,122,241,122,122,241,241,241,122,241,122,241,122,241,122,122,241,241,241,122,122,122,241,122,241,122,122,122,241,241,122,122,241,122,241,241,241,241,122,122,122,241,122,122,122,241,122,241,122,122,241,241,241,122,122,122,122,122,241,241,241,122,122,241,241,241,122,122,241,241,122,122,241,241,122,122,241,241,122,241,241,241,241,122,241,122,122,241,241,122,122,122,122,241,241,122,122,241,122,241,122,241,241,241,241,241,241,122,122,122,122,122],"coherence":1,"opposite_coherence":0,"dot_radius":2,"dot_side_length":1,"dot_life":-1,"move_distance":1,"aperture_width":300,"aperture_height":300,"dot_color":["black","black","white","black","black","white","white","white","black","white","white","black","black","black","white","black","white","black","black","white","white","black","black","white","white","black","white","white","black","black","white","white","white","black","black","white","white","white","black","black","white","white","white","black","white","black","white","white","black","black","white","white","white","white","black","black","black","black","black","black","black","white","white","black","white","white","black","white","white","black","black","white","white","white","white","black","black","white","black","black","white","white","white","black","black","black","black","white","white","black","white","black","black","white","white","white","black","white","black","white","black","white","black","black","white","white","white","black","black","black","white","black","white","black","black","black","white","white","black","black","white","black","white","white","white","white","black","black","black","white","black","black","black","white","black","white","black","black","white","white","white","black","black","black","black","black","white","white","white","black","black","white","white","white","black","black","white","white","black","black","white","white","black","black","white","white","black","white","white","white","white","black","white","black","black","white","white","black","black","black","black","white","white","black","black","white","black","white","black","white","white","white","white","white","white","black","black","black","black","black"],"dot_shape":"circle","background_color":"#AAA","RDK_type":3,"aperture_type":2,"reinsert_type":2,"frame_rate":16.694214876033058,"frame_rate_array":[3,15,17,17,17,17,17,17,17,17,17,17,17,16,17,17,17,17,17,17,17,17,17,17,17,17,17,16,17,17,16,17,17,17,17,17,17,17,17,16,17,18,16,17,16,17,17,17,17,16,17,17,17,17,17,17,17,17,17,16,17,16,17,16,17,17,17,17,17,17,17,16,17,17,17,16,16,17,17,17,16,16,17,17,17,17,17,16,17,17,17,16,16,17,17,17,17,17,17,17,16,17,17,16,17,17,16,17,17,17,17,16,17,17,17,17,17,17,17,17,17],"number_of_frames":121,"aperture_center_x":640,"aperture_center_y":360,"fixation_cross":true,"fixation_cross_width":15,"fixation_cross_height":15,"fixation_cross_color":"#111","fixation_cross_thickness":1,"border":true,"border_thickness":2,"border_color":"transparent","canvas_width":1280,"canvas_height":720,"trial_type":"rdk","trial_index":84,"plugin_version":"2.0.0","time_elapsed":244648},{"rt":5192,"stimulus":"\n        <div class=\"response-container\">\n          <div class=\"response-instruction\">\n            <p>rotate the bar by using the left and right arrow keys.</p>\n            <p>when you are determined, press the Enter key.</p>\n          </div>\n          <div class=\"response-circle\">\n            <div class=\"response-fixation\"></div>\n            <div id=\"bar\" class=\"rotating-bar\"></div>\n          </div>\n        </div>\n      ","response":"Enter","trial_type":"html-keyboard-response","trial_index":85,"plugin_version":"2.1.0","time_elapsed":249841,"random_initial_angle":169,"response_angle_css":326,"response_angle_rdk":124,"angular_error_target":-117,"angular_error_distractor":2,"target_direction":241,"target_group":"white","reward_points":0},{"rt":null,"stimulus":"\n          <p style=\"color: #FF3333;\">Your reward: 0 points</p>\n        ","response":null,"trial_type":"html-keyboard-response","trial_index":86,"plugin_version":"2.1.0","time_elapsed":251857},{"rt":null,"stimulus":"<div class=\"fixation\" style=\"font-size: 60px;\">+</div>","response":null,"trial_type":"html-keyboard-response","trial_index":87,"plugin_version":"2.1.0","time_elapsed":252873},{"phase":"learning-awareness","target_group":"white","condition_label":"W_H_vs_B_L_rep9","target_direction":231,"distractor_direction":125,"session_rotation":204,"rt":-1,"response":"","correct":false,"choices":"ALL_KEYS","correct_choice":["a"],"trial_duration":2000,"flip_timestamps":[],"response_ends_trial":false,"number_of_apertures":200,"number_of_dots":[1,1,1,1,1,1,1,1,1,1,1,1,1,1,1,1,1,1,1,1,1,1,1,1,1,1,1,1,1,1,1,1,1,1,1,1,1,1,1,1,1,1,1,1,1,1,1,1,1,1,1,1,1,1,1,1,1,1,1,1,1,1,1,1,1,1,1,1,1,1,1,1,1,1,1,1,1,1,1,1,1,1,1,1,1,1,1,1,1,1,1,1,1,1,1,1,1,1,1,1,1,1,1,1,1,1,1,1,1,1,1,1,1,1,1,1,1,1,1,1,1,1,1,1,1,1,1,1,1,1,1,1,1,1,1,1,1,1,1,1,1,1,1,1,1,1,1,1,1,1,1,1,1,1,1,1,1,1,1,1,1,1,1,1,1,1,1,1,1,1,1,1,1,1,1,1,1,1,1,1,1,1,1,1,1,1,1,1,1,1,1,1,1,1,1,1,1,1,1,1],"number_of_sets":1,"coherent_direction":[231,231,125,231,125,125,125,125,231,231,231,231,231,231,231,231,125,231,231,125,231,125,231,125,125,125,231,231,231,231,125,231,231,125,231,125,231,231,125,125,125,125,125,125,125,125,231,125,125,125,231,125,231,125,125,125,231,231,231,231,125,125,125,125,125,231,125,231,231,231,125,125,125,231,231,125,231,231,125,125,231,231,231,125,125,231,231,125,125,125,125,231,125,125,231,125,231,231,231,231,231,231,231,125,231,125,125,125,231,231,125,125,231,125,125,125,231,125,231,125,231,125,125,231,125,231,231,231,125,125,231,231,231,125,125,125,231,231,125,125,125,125,231,231,231,125,125,125,231,125,231,125,231,231,125,231,125,231,231,231,231,125,231,231,231,125,231,231,231,231,231,125,125,231,231,125,231,125,125,231,125,231,231,125,125,125,125,231,125,125,231,125,231,231,125,125,125,125,125,231],"coherence":1,"opposite_coherence":0,"dot_radius":2,"dot_side_length":1,"dot_life":-1,"move_distance":1,"aperture_width":300,"aperture_height":300,"dot_color":["white","white","black","white","black","black","black","black","white","white","white","white","white","white","white","white","black","white","white","black","white","black","white","black","black","black","white","white","white","white","black","white","white","black","white","black","white","white","black","black","black","black","black","black","black","black","white","black","black","black","white","black","white","black","black","black","white","white","white","white","black","black","black","black","black","white","black","white","white","white","black","black","black","white","white","black","white","white","black","black","white","white","white","black","black","white","white","black","black","black","black","white","black","black","white","black","white","white","white","white","white","white","white","black","white","black","black","black","white","white","black","black","white","black","black","black","white","black","white","black","white","black","black","white","black","white","white","white","black","black","white","white","white","black","black","black","white","white","black","black","black","black","white","white","white","black","black","black","white","black","white","black","white","white","black","white","black","white","white","white","white","black","white","white","white","black","white","white","white","white","white","black","black","white","white","black","white","black","black","white","black","white","white","black","black","black","black","white","black","black","white","black","white","white","black","black","black","black","black","white"],"dot_shape":"circle","background_color":"#AAA","RDK_type":3,"aperture_type":2,"reinsert_type":2,"frame_rate":16.545454545454547,"frame_rate_array":[2,12,17,16,17,17,17,17,16,16,18,16,18,16,17,16,17,16,16,17,16,17,16,16,18,16,18,16,17,17,16,16,16,17,17,16,17,17,17,17,17,17,17,16,17,16,17,16,17,17,16,17,17,17,17,17,16,17,17,16,17,17,17,17,19,16,17,16,18,16,16,17,16,17,17,17,17,17,16,17,17,15,15,17,17,17,17,17,18,18,16,17,17,16,16,18,17,16,17,18,15,17,17,17,17,16,17,18,16,16,17,17,17,16,14,17,17,16,17,17,17],"number_of_frames":121,"aperture_center_x":640,"aperture_center_y":360,"fixation_cross":true,"fixation_cross_width":15,"fixation_cross_height":15,"fixation_cross_color":"#111","fixation_cross_thickness":1,"border":true,"border_thickness":2,"border_color":"transparent","canvas_width":1280,"canvas_height":720,"trial_type":"rdk","trial_index":88,"plugin_version":"2.0.0","time_elapsed":254891},{"rt":6806,"stimulus":"\n        <div class=\"response-container\">\n          <div class=\"response-instruction\">\n            <p>rotate the bar by using the left and right arrow keys.</p>\n            <p>when you are determined, press the Enter key.</p>\n          </div>\n          <div class=\"response-circle\">\n            <div class=\"response-fixation\"></div>\n            <div id=\"bar\" class=\"rotating-bar\"></div>\n          </div>\n        </div>\n      ","response":"Enter","trial_type":"html-keyboard-response","trial_index":89,"plugin_version":"2.1.0","time_elapsed":261698,"random_initial_angle":291,"response_angle_css":329,"response_angle_rdk":121,"angular_error_target":-110,"angular_error_distractor":-4,"target_direction":231,"target_group":"white","reward_points":0},{"rt":null,"stimulus":"\n          <p style=\"color: #FF3333;\">Your reward: 0 points</p>\n        ","response":null,"trial_type":"html-keyboard-response","trial_index":90,"plugin_version":"2.1.0","time_elapsed":263703},{"rt":null,"stimulus":"<div class=\"fixation\" style=\"font-size: 60px;\">+</div>","response":null,"trial_type":"html-keyboard-response","trial_index":91,"plugin_version":"2.1.0","time_elapsed":264716},{"phase":"learning-awareness","target_group":"white","condition_label":"W_H_vs_B_L_rep6","target_direction":238,"distractor_direction":123,"session_rotation":204,"rt":-1,"response":"","correct":false,"choices":"ALL_KEYS","correct_choice":["a"],"trial_duration":2000,"flip_timestamps":[],"response_ends_trial":false,"number_of_apertures":200,"number_of_dots":[1,1,1,1,1,1,1,1,1,1,1,1,1,1,1,1,1,1,1,1,1,1,1,1,1,1,1,1,1,1,1,1,1,1,1,1,1,1,1,1,1,1,1,1,1,1,1,1,1,1,1,1,1,1,1,1,1,1,1,1,1,1,1,1,1,1,1,1,1,1,1,1,1,1,1,1,1,1,1,1,1,1,1,1,1,1,1,1,1,1,1,1,1,1,1,1,1,1,1,1,1,1,1,1,1,1,1,1,1,1,1,1,1,1,1,1,1,1,1,1,1,1,1,1,1,1,1,1,1,1,1,1,1,1,1,1,1,1,1,1,1,1,1,1,1,1,1,1,1,1,1,1,1,1,1,1,1,1,1,1,1,1,1,1,1,1,1,1,1,1,1,1,1,1,1,1,1,1,1,1,1,1,1,1,1,1,1,1,1,1,1,1,1,1,1,1,1,1,1,1],"number_of_sets":1,"coherent_direction":[123,123,123,123,123,123,123,238,238,123,238,123,123,123,238,123,238,238,123,123,238,238,123,238,238,238,238,238,238,123,123,238,123,123,238,123,123,238,123,123,123,123,123,238,238,238,238,123,123,123,238,238,238,238,123,238,238,123,238,238,123,123,238,238,123,123,123,238,238,123,123,238,123,238,238,238,123,123,238,123,123,238,123,238,238,238,123,123,238,238,123,238,238,123,123,238,238,123,123,123,238,123,238,123,238,123,238,238,238,123,123,123,123,238,238,123,238,123,123,238,238,123,123,238,123,123,123,238,238,238,123,123,123,238,238,238,123,123,238,123,123,238,238,238,123,123,238,123,238,123,238,123,238,238,123,123,238,238,238,123,238,238,238,123,238,123,123,123,123,123,238,123,123,238,238,123,123,123,238,123,123,238,238,238,238,238,123,238,123,238,238,123,123,238,238,238,238,238,123,238],"coherence":1,"opposite_coherence":0,"dot_radius":2,"dot_side_length":1,"dot_life":-1,"move_distance":1,"aperture_width":300,"aperture_height":300,"dot_color":["black","black","black","black","black","black","black","white","white","black","white","black","black","black","white","black","white","white","black","black","white","white","black","white","white","white","white","white","white","black","black","white","black","black","white","black","black","white","black","black","black","black","black","white","white","white","white","black","black","black","white","white","white","white","black","white","white","black","white","white","black","black","white","white","black","black","black","white","white","black","black","white","black","white","white","white","black","black","white","black","black","white","black","white","white","white","black","black","white","white","black","white","white","black","black","white","white","black","black","black","white","black","white","black","white","black","white","white","white","black","black","black","black","white","white","black","white","black","black","white","white","black","black","white","black","black","black","white","white","white","black","black","black","white","white","white","black","black","white","black","black","white","white","white","black","black","white","black","white","black","white","black","white","white","black","black","white","white","white","black","white","white","white","black","white","black","black","black","black","black","white","black","black","white","white","black","black","black","white","black","black","white","white","white","white","white","black","white","black","white","white","black","black","white","white","white","white","white","black","white"],"dot_shape":"circle","background_color":"#AAA","RDK_type":3,"aperture_type":2,"reinsert_type":2,"frame_rate":16.702479338842974,"frame_rate_array":[4,13,17,17,16,17,16,17,17,17,17,17,17,16,17,17,17,16,17,16,17,17,17,16,17,17,17,16,17,17,17,17,17,16,17,17,17,17,17,17,17,16,17,17,17,18,16,17,16,18,15,17,17,17,17,17,18,17,17,16,17,16,17,16,18,16,14,17,17,17,17,19,16,17,17,17,16,15,16,17,17,17,17,17,17,17,17,17,17,17,17,17,17,17,17,17,17,17,17,17,17,17,17,17,17,17,17,17,17,17,17,17,17,17,17,17,17,17,18,16,17],"number_of_frames":121,"aperture_center_x":640,"aperture_center_y":360,"fixation_cross":true,"fixation_cross_width":15,"fixation_cross_height":15,"fixation_cross_color":"#111","fixation_cross_thickness":1,"border":true,"border_thickness":2,"border_color":"transparent","canvas_width":1280,"canvas_height":720,"trial_type":"rdk","trial_index":92,"plugin_version":"2.0.0","time_elapsed":266721},{"rt":4259,"stimulus":"\n        <div class=\"response-container\">\n          <div class=\"response-instruction\">\n            <p>rotate the bar by using the left and right arrow keys.</p>\n            <p>when you are determined, press the Enter key.</p>\n          </div>\n          <div class=\"response-circle\">\n            <div class=\"response-fixation\"></div>\n            <div id=\"bar\" class=\"rotating-bar\"></div>\n          </div>\n        </div>\n      ","response":"Enter","trial_type":"html-keyboard-response","trial_index":93,"plugin_version":"2.1.0","time_elapsed":270981,"random_initial_angle":31,"response_angle_css":-138,"response_angle_rdk":228,"angular_error_target":-10,"angular_error_distractor":105,"target_direction":238,"target_group":"white","reward_points":8},{"rt":null,"stimulus":"\n          <p style=\"color: #00FF00;\">Your reward: 8 points</p>\n        ","response":null,"trial_type":"html-keyboard-response","trial_index":94,"plugin_version":"2.1.0","time_elapsed":272999},{"rt":null,"stimulus":"<div class=\"fixation\" style=\"font-size: 60px;\">+</div>","response":null,"trial_type":"html-keyboard-response","trial_index":95,"plugin_version":"2.1.0","time_elapsed":274016},{"phase":"learning-awareness","target_group":"black","condition_label":"B_H_vs_W_L_rep20","target_direction":300,"distractor_direction":67,"session_rotation":204,"rt":-1,"response":"","correct":false,"choices":"ALL_KEYS","correct_choice":["a"],"trial_duration":2000,"flip_timestamps":[],"response_ends_trial":false,"number_of_apertures":200,"number_of_dots":[1,1,1,1,1,1,1,1,1,1,1,1,1,1,1,1,1,1,1,1,1,1,1,1,1,1,1,1,1,1,1,1,1,1,1,1,1,1,1,1,1,1,1,1,1,1,1,1,1,1,1,1,1,1,1,1,1,1,1,1,1,1,1,1,1,1,1,1,1,1,1,1,1,1,1,1,1,1,1,1,1,1,1,1,1,1,1,1,1,1,1,1,1,1,1,1,1,1,1,1,1,1,1,1,1,1,1,1,1,1,1,1,1,1,1,1,1,1,1,1,1,1,1,1,1,1,1,1,1,1,1,1,1,1,1,1,1,1,1,1,1,1,1,1,1,1,1,1,1,1,1,1,1,1,1,1,1,1,1,1,1,1,1,1,1,1,1,1,1,1,1,1,1,1,1,1,1,1,1,1,1,1,1,1,1,1,1,1,1,1,1,1,1,1,1,1,1,1,1,1],"number_of_sets":1,"coherent_direction":[300,67,300,300,300,67,67,67,67,67,67,67,300,67,67,300,67,67,300,300,67,300,67,67,67,300,67,300,300,300,300,300,67,300,67,67,300,300,67,67,300,67,67,67,67,67,67,300,67,67,67,67,67,300,67,67,67,300,300,67,67,67,300,67,300,300,300,67,300,300,300,300,300,300,67,300,67,300,67,300,300,300,300,300,67,67,300,67,67,67,300,67,67,300,300,67,67,67,67,67,300,300,300,67,67,300,300,300,67,67,300,300,67,67,300,300,300,67,67,300,300,67,67,300,300,300,300,300,300,300,67,67,67,300,300,67,300,300,300,300,300,67,300,300,300,67,300,67,300,67,300,67,300,300,300,300,300,67,300,300,300,67,300,67,67,67,300,67,300,67,300,67,300,300,67,300,67,67,67,67,300,67,300,300,67,300,67,67,67,67,300,300,67,67,67,67,300,300,67,67],"coherence":1,"opposite_coherence":0,"dot_radius":2,"dot_side_length":1,"dot_life":-1,"move_distance":1,"aperture_width":300,"aperture_height":300,"dot_color":["black","white","black","black","black","white","white","white","white","white","white","white","black","white","white","black","white","white","black","black","white","black","white","white","white","black","white","black","black","black","black","black","white","black","white","white","black","black","white","white","black","white","white","white","white","white","white","black","white","white","white","white","white","black","white","white","white","black","black","white","white","white","black","white","black","black","black","white","black","black","black","black","black","black","white","black","white","black","white","black","black","black","black","black","white","white","black","white","white","white","black","white","white","black","black","white","white","white","white","white","black","black","black","white","white","black","black","black","white","white","black","black","white","white","black","black","black","white","white","black","black","white","white","black","black","black","black","black","black","black","white","white","white","black","black","white","black","black","black","black","black","white","black","black","black","white","black","white","black","white","black","white","black","black","black","black","black","white","black","black","black","white","black","white","white","white","black","white","black","white","black","white","black","black","white","black","white","white","white","white","black","white","black","black","white","black","white","white","white","white","black","black","white","white","white","white","black","black","white","white"],"dot_shape":"circle","background_color":"#AAA","RDK_type":3,"aperture_type":2,"reinsert_type":2,"frame_rate":16.841666666666665,"frame_rate_array":[13,17,16,17,17,17,17,17,17,17,17,17,17,16,16,18,16,17,17,17,17,17,16,17,17,17,17,17,17,17,17,17,17,17,17,17,17,17,17,17,16,17,16,17,16,17,16,17,17,17,16,17,16,17,17,17,17,17,17,16,17,17,17,17,17,17,17,17,17,17,17,17,17,17,17,16,17,15,17,17,16,17,17,17,17,17,17,17,17,17,17,17,17,17,17,17,17,17,17,17,17,17,17,17,17,18,16,17,17,17,17,17,17,17,17,17,17,17,17,17],"number_of_frames":120,"aperture_center_x":640,"aperture_center_y":360,"fixation_cross":true,"fixation_cross_width":15,"fixation_cross_height":15,"fixation_cross_color":"#111","fixation_cross_thickness":1,"border":true,"border_thickness":2,"border_color":"transparent","canvas_width":1280,"canvas_height":720,"trial_type":"rdk","trial_index":96,"plugin_version":"2.0.0","time_elapsed":276032},{"rt":3708,"stimulus":"\n        <div class=\"response-container\">\n          <div class=\"response-instruction\">\n            <p>rotate the bar by using the left and right arrow keys.</p>\n            <p>when you are determined, press the Enter key.</p>\n          </div>\n          <div class=\"response-circle\">\n            <div class=\"response-fixation\"></div>\n            <div id=\"bar\" class=\"rotating-bar\"></div>\n          </div>\n        </div>\n      ","response":"Enter","trial_type":"html-keyboard-response","trial_index":97,"plugin_version":"2.1.0","time_elapsed":279741,"random_initial_angle":69,"response_angle_css":132,"response_angle_rdk":318,"angular_error_target":18,"angular_error_distractor":-109,"target_direction":300,"target_group":"black","reward_points":6},{"rt":null,"stimulus":"\n          <p style=\"color: #00FF00;\">Your reward: 6 points</p>\n        ","response":null,"trial_type":"html-keyboard-response","trial_index":98,"plugin_version":"2.1.0","time_elapsed":281743},{"rt":null,"stimulus":"<div class=\"fixation\" style=\"font-size: 60px;\">+</div>","response":null,"trial_type":"html-keyboard-response","trial_index":99,"plugin_version":"2.1.0","time_elapsed":282745},{"phase":"learning-awareness","target_group":"white","condition_label":"W_H_vs_B_L_rep2","target_direction":221,"distractor_direction":114,"session_rotation":204,"rt":-1,"response":"","correct":false,"choices":"ALL_KEYS","correct_choice":["a"],"trial_duration":2000,"flip_timestamps":[],"response_ends_trial":false,"number_of_apertures":200,"number_of_dots":[1,1,1,1,1,1,1,1,1,1,1,1,1,1,1,1,1,1,1,1,1,1,1,1,1,1,1,1,1,1,1,1,1,1,1,1,1,1,1,1,1,1,1,1,1,1,1,1,1,1,1,1,1,1,1,1,1,1,1,1,1,1,1,1,1,1,1,1,1,1,1,1,1,1,1,1,1,1,1,1,1,1,1,1,1,1,1,1,1,1,1,1,1,1,1,1,1,1,1,1,1,1,1,1,1,1,1,1,1,1,1,1,1,1,1,1,1,1,1,1,1,1,1,1,1,1,1,1,1,1,1,1,1,1,1,1,1,1,1,1,1,1,1,1,1,1,1,1,1,1,1,1,1,1,1,1,1,1,1,1,1,1,1,1,1,1,1,1,1,1,1,1,1,1,1,1,1,1,1,1,1,1,1,1,1,1,1,1,1,1,1,1,1,1,1,1,1,1,1,1],"number_of_sets":1,"coherent_direction":[114,114,221,114,221,114,114,221,221,221,221,114,221,114,221,221,221,114,221,221,114,221,114,221,114,221,114,221,114,114,221,221,114,221,114,114,221,114,114,114,221,221,221,114,114,221,114,114,221,114,114,221,221,221,221,114,221,114,221,114,221,221,114,114,114,221,221,221,114,221,221,221,114,114,221,221,221,114,114,114,114,114,221,114,221,114,114,114,114,114,221,114,114,114,221,221,114,114,221,114,221,221,221,221,114,221,221,221,114,221,114,221,221,114,114,221,114,114,114,114,114,221,221,221,114,114,221,221,221,114,221,114,114,221,114,221,221,221,221,221,221,114,114,114,221,221,114,114,221,114,221,114,114,221,221,114,221,221,114,114,221,114,114,221,114,114,221,114,221,114,221,114,114,114,221,114,114,114,221,114,221,114,221,221,221,221,114,114,114,221,221,114,221,114,221,221,114,114,221,221],"coherence":1,"opposite_coherence":0,"dot_radius":2,"dot_side_length":1,"dot_life":-1,"move_distance":1,"aperture_width":300,"aperture_height":300,"dot_color":["black","black","white","black","white","black","black","white","white","white","white","black","white","black","white","white","white","black","white","white","black","white","black","white","black","white","black","white","black","black","white","white","black","white","black","black","white","black","black","black","white","white","white","black","black","white","black","black","white","black","black","white","white","white","white","black","white","black","white","black","white","white","black","black","black","white","white","white","black","white","white","white","black","black","white","white","white","black","black","black","black","black","white","black","white","black","black","black","black","black","white","black","black","black","white","white","black","black","white","black","white","white","white","white","black","white","white","white","black","white","black","white","white","black","black","white","black","black","black","black","black","white","white","white","black","black","white","white","white","black","white","black","black","white","black","white","white","white","white","white","white","black","black","black","white","white","black","black","white","black","white","black","black","white","white","black","white","white","black","black","white","black","black","white","black","black","white","black","white","black","white","black","black","black","white","black","black","black","white","black","white","black","white","white","white","white","black","black","black","white","white","black","white","black","white","white","black","black","white","white"],"dot_shape":"circle","background_color":"#AAA","RDK_type":3,"aperture_type":2,"reinsert_type":2,"frame_rate":16.884297520661157,"frame_rate_array":[15,17,17,17,17,17,17,17,17,17,17,17,17,17,16,17,17,17,17,17,17,16,17,17,17,17,17,17,16,17,17,17,17,17,17,17,17,17,17,17,17,17,17,16,17,17,16,17,17,17,17,17,17,17,17,17,17,17,17,17,16,17,17,17,17,17,17,17,17,17,17,17,17,17,17,17,16,17,17,17,17,17,17,17,17,17,17,17,16,17,17,16,17,17,17,17,17,17,17,17,17,17,17,17,15,17,17,16,17,17,17,17,17,17,17,17,17,17,17,17,17],"number_of_frames":121,"aperture_center_x":640,"aperture_center_y":360,"fixation_cross":true,"fixation_cross_width":15,"fixation_cross_height":15,"fixation_cross_color":"#111","fixation_cross_thickness":1,"border":true,"border_thickness":2,"border_color":"transparent","canvas_width":1280,"canvas_height":720,"trial_type":"rdk","trial_index":100,"plugin_version":"2.0.0","time_elapsed":284763},{"rt":5593,"stimulus":"\n        <div class=\"response-container\">\n          <div class=\"response-instruction\">\n            <p>rotate the bar by using the left and right arrow keys.</p>\n            <p>when you are determined, press the Enter key.</p>\n          </div>\n          <div class=\"response-circle\">\n            <div class=\"response-fixation\"></div>\n            <div id=\"bar\" class=\"rotating-bar\"></div>\n          </div>\n        </div>\n      ","response":"Enter","trial_type":"html-keyboard-response","trial_index":101,"plugin_version":"2.1.0","time_elapsed":290357,"random_initial_angle":238,"response_angle_css":10,"response_angle_rdk":80,"angular_error_target":-141,"angular_error_distractor":-34,"target_direction":221,"target_group":"white","reward_points":0},{"rt":null,"stimulus":"\n          <p style=\"color: #FF3333;\">Your reward: 0 points</p>\n        ","response":null,"trial_type":"html-keyboard-response","trial_index":102,"plugin_version":"2.1.0","time_elapsed":292369},{"rt":null,"stimulus":"<div class=\"fixation\" style=\"font-size: 60px;\">+</div>","response":null,"trial_type":"html-keyboard-response","trial_index":103,"plugin_version":"2.1.0","time_elapsed":293372},{"phase":"learning-awareness","target_group":"black","condition_label":"B_H_vs_W_L_rep14","target_direction":321,"distractor_direction":57,"session_rotation":204,"rt":-1,"response":"","correct":false,"choices":"ALL_KEYS","correct_choice":["a"],"trial_duration":2000,"flip_timestamps":[],"response_ends_trial":false,"number_of_apertures":200,"number_of_dots":[1,1,1,1,1,1,1,1,1,1,1,1,1,1,1,1,1,1,1,1,1,1,1,1,1,1,1,1,1,1,1,1,1,1,1,1,1,1,1,1,1,1,1,1,1,1,1,1,1,1,1,1,1,1,1,1,1,1,1,1,1,1,1,1,1,1,1,1,1,1,1,1,1,1,1,1,1,1,1,1,1,1,1,1,1,1,1,1,1,1,1,1,1,1,1,1,1,1,1,1,1,1,1,1,1,1,1,1,1,1,1,1,1,1,1,1,1,1,1,1,1,1,1,1,1,1,1,1,1,1,1,1,1,1,1,1,1,1,1,1,1,1,1,1,1,1,1,1,1,1,1,1,1,1,1,1,1,1,1,1,1,1,1,1,1,1,1,1,1,1,1,1,1,1,1,1,1,1,1,1,1,1,1,1,1,1,1,1,1,1,1,1,1,1,1,1,1,1,1,1],"number_of_sets":1,"coherent_direction":[321,321,57,57,321,57,57,321,57,321,321,57,321,321,321,57,57,57,57,321,57,321,57,57,57,321,321,57,321,57,321,57,321,57,57,321,57,57,57,57,57,321,57,57,321,321,321,321,57,321,321,321,57,321,57,321,57,57,321,57,57,321,57,57,321,57,57,57,321,57,321,321,57,57,321,57,57,321,57,57,57,321,321,321,321,321,57,57,321,57,321,321,57,57,321,57,321,57,321,321,57,57,321,57,321,321,321,321,321,57,57,57,321,57,57,321,321,321,57,57,321,57,321,321,321,57,57,321,321,321,57,321,57,57,321,321,321,321,321,57,321,321,57,57,57,57,57,321,321,57,57,321,321,57,57,57,57,321,57,57,321,321,321,57,57,321,57,321,321,321,57,321,321,57,57,321,57,57,57,321,321,321,57,321,321,321,321,321,57,321,57,57,57,57,321,321,57,57,321,321],"coherence":1,"opposite_coherence":0,"dot_radius":2,"dot_side_length":1,"dot_life":-1,"move_distance":1,"aperture_width":300,"aperture_height":300,"dot_color":["black","black","white","white","black","white","white","black","white","black","black","white","black","black","black","white","white","white","white","black","white","black","white","white","white","black","black","white","black","white","black","white","black","white","white","black","white","white","white","white","white","black","white","white","black","black","black","black","white","black","black","black","white","black","white","black","white","white","black","white","white","black","white","white","black","white","white","white","black","white","black","black","white","white","black","white","white","black","white","white","white","black","black","black","black","black","white","white","black","white","black","black","white","white","black","white","black","white","black","black","white","white","black","white","black","black","black","black","black","white","white","white","black","white","white","black","black","black","white","white","black","white","black","black","black","white","white","black","black","black","white","black","white","white","black","black","black","black","black","white","black","black","white","white","white","white","white","black","black","white","white","black","black","white","white","white","white","black","white","white","black","black","black","white","white","black","white","black","black","black","white","black","black","white","white","black","white","white","white","black","black","black","white","black","black","black","black","black","white","black","white","white","white","white","black","black","white","white","black","black"],"dot_shape":"circle","background_color":"#AAA","RDK_type":3,"aperture_type":2,"reinsert_type":2,"frame_rate":16.883333333333333,"frame_rate_array":[18,16,16,17,17,16,17,17,17,16,16,17,17,17,17,17,17,17,17,17,17,17,17,17,17,17,17,17,17,17,17,17,17,17,17,17,17,17,17,17,17,17,17,17,17,17,17,17,17,17,17,17,17,17,17,17,17,17,17,17,17,17,17,17,17,17,17,17,17,17,17,17,17,17,17,17,17,17,17,17,17,16,17,17,17,17,17,17,17,16,16,16,17,17,17,17,17,17,17,16,17,17,17,17,16,17,17,18,16,16,17,17,16,17,17,17,16,16,19,15],"number_of_frames":120,"aperture_center_x":640,"aperture_center_y":360,"fixation_cross":true,"fixation_cross_width":15,"fixation_cross_height":15,"fixation_cross_color":"#111","fixation_cross_thickness":1,"border":true,"border_thickness":2,"border_color":"transparent","canvas_width":1280,"canvas_height":720,"trial_type":"rdk","trial_index":104,"plugin_version":"2.0.0","time_elapsed":295376},{"rt":4701,"stimulus":"\n        <div class=\"response-container\">\n          <div class=\"response-instruction\">\n            <p>rotate the bar by using the left and right arrow keys.</p>\n            <p>when you are determined, press the Enter key.</p>\n          </div>\n          <div class=\"response-circle\">\n            <div class=\"response-fixation\"></div>\n            <div id=\"bar\" class=\"rotating-bar\"></div>\n          </div>\n        </div>\n      ","response":"Enter","trial_type":"html-keyboard-response","trial_index":105,"plugin_version":"2.1.0","time_elapsed":300078,"random_initial_angle":317,"response_angle_css":476,"response_angle_rdk":334,"angular_error_target":13,"angular_error_distractor":-83,"target_direction":321,"target_group":"black","reward_points":7},{"rt":null,"stimulus":"\n          <p style=\"color: #00FF00;\">Your reward: 7 points</p>\n        ","response":null,"trial_type":"html-keyboard-response","trial_index":106,"plugin_vers