[{"rt":7312,"stimulus":"Welcome to the experiment. Press any key to begin.","response":" ","trial_type":"html-keyboard-response","trial_index":0,"plugin_version":"2.1.0","time_elapsed":7316},{"rt":12975,"stimulus":"\n        <div class=\"instructions-container\">\n          <h2>Instructions</h2>\n\n          <p>\n          In this experiment, you will see <strong>two Random Dot Kinematograms (RDKs)</strong> displayed simultaneously.\n          </p>\n\n          <p>\n          An RDK is a visual stimulus consisting of many small dots that move coherently in a single direction. \n          In this experiment, the dots will be either <strong>white</strong> or <strong>black</strong> \n          (see the short demo below for an example of an RDK stimulus).\n          </p>\n\n          <p>\n          On each trial, the two RDKs will move in different directions. \n          Your task is to decide <strong>which RDK appears to contain more dots</strong>.\n          </p>\n\n          <p>\n          The RDK that you judge to have more dots is called the <strong>target RDK</strong>. \n          For example, if the white RDK appears to have more dots than the black RDK, \n          you should report the motion direction of the white RDK.\n          </p>\n\n          <p>\n          After viewing the RDKs, you will rotate a bar to indicate the perceived direction of the target RDK \n          using the <strong>left</strong> and <strong>right arrow keys</strong>. \n          Press <strong>Enter</strong> when you are satisfied with your response.\n          When the bar is held down, the rotation speed increases.\n          </p>\n\n          <p>\n          You will receive points based on the <strong>accuracy of your response</strong>, \n          and your final <strong>bonus reward</strong> may depend on your overall performance. \n          Please try to respond as accurately as possible.\n          </p>\n\n          <p>\n          You will first complete <strong>16 practice trials</strong>. \n          Press the <strong>Enter</strong> key to start the practice phase.\n          </p>\n\n          <canvas id=\"instruction-demo-rdk\" width=\"200\" height=\"200\"style=\"display:block;margin:12px auto; border-radius: 50%;\"></canvas>\n        </div>\n      ","response":"Enter","trial_type":"html-keyboard-response","trial_index":1,"plugin_version":"2.1.0","time_elapsed":20291},{"rt":null,"stimulus":"<div class=\"fixation\" style=\"font-size: 60px;\">+</div>","response":null,"trial_type":"html-keyboard-response","trial_index":2,"plugin_version":"2.1.0","time_elapsed":21293},{"target_group":"black","target_index":1,"condition_label":"practice","rt":-1,"response":"","correct":false,"choices":"ALL_KEYS","correct_choice":["a"],"trial_duration":2000,"flip_timestamps":[],"response_ends_trial":false,"number_of_apertures":2,"number_of_dots":[86,100],"number_of_sets":1,"coherent_direction":[138,304],"coherence":1,"opposite_coherence":0,"dot_radius":2,"dot_side_length":1,"dot_life":-1,"move_distance":1,"aperture_width":300,"aperture_height":300,"dot_color":["white","black"],"dot_shape":"circle","background_color":"#AAA","RDK_type":3,"aperture_type":2,"reinsert_type":2,"frame_rate":16.675,"frame_rate_array":[8,17,19,16,17,17,17,16,17,17,16,18,17,17,15,18,16,16,18,17,16,16,16,17,18,17,16,17,18,17,16,17,16,18,15,17,17,17,16,17,16,17,17,16,17,18,17,16,16,17,16,17,17,17,16,17,17,17,17,18,16,16,16,17,16,17,17,17,17,17,16,16,17,17,17,16,17,17,16,16,16,18,16,17,17,16,18,17,16,17,17,17,15,18,16,19,17,17,16,16,17,17,17,17,16,17,17,17,18,16,17,16,17,17,16,18,15,16,18,16],"number_of_frames":120,"aperture_center_x":768,"aperture_center_y":432,"fixation_cross":true,"fixation_cross_width":15,"fixation_cross_height":15,"fixation_cross_color":"#111","fixation_cross_thickness":1,"border":true,"border_thickness":2,"border_color":"transparent","canvas_width":1536,"canvas_height":864,"trial_type":"rdk","trial_index":3,"plugin_version":"2.0.0","time_elapsed":23301,"phase":"practice","target_direction":304,"distractor_direction":138},{"rt":15968,"stimulus":"\n        <div class=\"response-container\">\n          <div class=\"response-instruction\">\n            <p>rotate the bar by using the left and right arrow keys.</p>\n            <p>when you are determined, press the Enter key.</p>\n          </div>\n          <div class=\"response-circle\">\n            <div class=\"response-fixation\"></div>\n            <div id=\"bar\" class=\"rotating-bar\"></div>\n          </div>\n        </div>\n      ","response":"Enter","trial_type":"html-keyboard-response","trial_index":4,"plugin_version":"2.1.0","time_elapsed":39269,"random_initial_angle":120,"response_angle_css":121,"response_angle_rdk":329,"angular_error_target":25,"angular_error_distractor":-169,"target_direction":304,"target_group":"black","reward_points":5},{"rt":null,"stimulus":"\n          <p style=\"color: #00FF00;\">Your reward: 5 points</p>\n        ","response":null,"trial_type":"html-keyboard-response","trial_index":5,"plugin_version":"2.1.0","time_elapsed":41282},{"rt":null,"stimulus":"<div class=\"fixation\" style=\"font-size: 60px;\">+</div>","response":null,"trial_type":"html-keyboard-response","trial_index":6,"plugin_version":"2.1.0","time_elapsed":42298},{"target_group":"black","target_index":1,"condition_label":"practice","rt":-1,"response":"","correct":false,"choices":"ALL_KEYS","correct_choice":["a"],"trial_duration":2000,"flip_timestamps":[],"response_ends_trial":false,"number_of_apertures":2,"number_of_dots":[99,100],"number_of_sets":1,"coherent_direction":[208,306],"coherence":1,"opposite_coherence":0,"dot_radius":2,"dot_side_length":1,"dot_life":-1,"move_distance":1,"aperture_width":300,"aperture_height":300,"dot_color":["white","black"],"dot_shape":"circle","background_color":"#AAA","RDK_type":3,"aperture_type":2,"reinsert_type":2,"frame_rate":16.58677685950413,"frame_rate_array":[2,19,16,17,17,17,16,15,18,17,17,16,16,17,16,18,16,17,15,18,17,15,18,16,16,18,17,16,17,18,16,17,17,17,17,17,16,17,18,16,16,16,18,16,16,17,17,16,16,16,16,18,17,16,17,16,18,17,16,17,16,18,17,17,15,17,19,15,19,16,17,17,16,17,17,16,17,16,17,17,17,18,16,16,16,17,16,18,16,16,17,16,18,16,17,16,17,17,17,15,18,16,17,16,18,16,17,16,17,16,17,16,18,16,17,16,16,17,18,16,17],"number_of_frames":121,"aperture_center_x":768,"aperture_center_y":432,"fixation_cross":true,"fixation_cross_width":15,"fixation_cross_height":15,"fixation_cross_color":"#111","fixation_cross_thickness":1,"border":true,"border_thickness":2,"border_color":"transparent","canvas_width":1536,"canvas_height":864,"trial_type":"rdk","trial_index":7,"plugin_version":"2.0.0","time_elapsed":44305,"phase":"practice","target_direction":306,"distractor_direction":208},{"rt":3617,"stimulus":"\n        <div class=\"response-container\">\n          <div class=\"response-instruction\">\n            <p>rotate the bar by using the left and right arrow keys.</p>\n            <p>when you are determined, press the Enter key.</p>\n          </div>\n          <div class=\"response-circle\">\n            <div class=\"response-fixation\"></div>\n            <div id=\"bar\" class=\"rotating-bar\"></div>\n          </div>\n        </div>\n      ","response":"Enter","trial_type":"html-keyboard-response","trial_index":8,"plugin_version":"2.1.0","time_elapsed":47923,"random_initial_angle":302,"response_angle_css":244,"response_angle_rdk":206,"angular_error_target":-100,"angular_error_distractor":-2,"target_direction":306,"target_group":"black","reward_points":0},{"rt":null,"stimulus":"\n          <p style=\"color: #FF3333;\">Your reward: 0 points</p>\n        ","response":null,"trial_type":"html-keyboard-response","trial_index":9,"plugin_version":"2.1.0","time_elapsed":49929},{"rt":null,"stimulus":"<div class=\"fixation\" style=\"font-size: 60px;\">+</div>","response":null,"trial_type":"html-keyboard-response","trial_index":10,"plugin_version":"2.1.0","time_elapsed":50941},{"target_group":"black","target_index":1,"condition_label":"practice","rt":-1,"response":"","correct":false,"choices":"ALL_KEYS","correct_choice":["a"],"trial_duration":2000,"flip_timestamps":[],"response_ends_trial":false,"number_of_apertures":2,"number_of_dots":[55,100],"number_of_sets":1,"coherent_direction":[298,90],"coherence":1,"opposite_coherence":0,"dot_radius":2,"dot_side_length":1,"dot_life":-1,"move_distance":1,"aperture_width":300,"aperture_height":300,"dot_color":["white","black"],"dot_shape":"circle","background_color":"#AAA","RDK_type":3,"aperture_type":2,"reinsert_type":2,"frame_rate":16.628099173553718,"frame_rate_array":[9,17,17,17,16,17,17,17,16,17,17,17,15,18,16,16,18,16,17,16,18,15,18,17,15,17,17,17,16,18,16,18,16,16,17,17,16,18,17,15,16,18,16,17,17,18,16,17,16,16,18,16,17,17,17,17,15,18,17,17,16,17,17,16,17,17,16,17,15,17,17,16,17,16,16,18,16,17,17,18,17,17,15,18,17,17,16,17,17,17,15,18,17,17,16,16,17,18,15,17,17,17,16,17,16,16,17,17,17,16,16,17,16,17,17,17,16,17,16,17,17],"number_of_frames":121,"aperture_center_x":768,"aperture_center_y":432,"fixation_cross":true,"fixation_cross_width":15,"fixation_cross_height":15,"fixation_cross_color":"#111","fixation_cross_thickness":1,"border":true,"border_thickness":2,"border_color":"transparent","canvas_width":1536,"canvas_height":864,"trial_type":"rdk","trial_index":11,"plugin_version":"2.0.0","time_elapsed":52954,"phase":"practice","target_direction":90,"distractor_direction":298},{"rt":7384,"stimulus":"\n        <div class=\"response-container\">\n          <div class=\"response-instruction\">\n            <p>rotate the bar by using the left and right arrow keys.</p>\n            <p>when you are determined, press the Enter key.</p>\n          </div>\n          <div class=\"response-circle\">\n            <div class=\"response-fixation\"></div>\n            <div id=\"bar\" class=\"rotating-bar\"></div>\n          </div>\n        </div>\n      ","response":"Enter","trial_type":"html-keyboard-response","trial_index":12,"plugin_version":"2.1.0","time_elapsed":60339,"random_initial_angle":214,"response_angle_css":358,"response_angle_rdk":92,"angular_error_target":2,"angular_error_distractor":154,"target_direction":90,"target_group":"black","reward_points":9},{"rt":null,"stimulus":"\n          <p style=\"color: #00FF00;\">Your reward: 9 points</p>\n        ","response":null,"trial_type":"html-keyboard-response","trial_index":13,"plugin_version":"2.1.0","time_elapsed":62344},{"rt":null,"stimulus":"<div class=\"fixation\" style=\"font-size: 60px;\">+</div>","response":null,"trial_type":"html-keyboard-response","trial_index":14,"plugin_version":"2.1.0","time_elapsed":63357},{"target_group":"white","target_index":0,"condition_label":"practice","rt":-1,"response":"","correct":false,"choices":"ALL_KEYS","correct_choice":["a"],"trial_duration":2000,"flip_timestamps":[],"response_ends_trial":false,"number_of_apertures":2,"number_of_dots":[100,67],"number_of_sets":1,"coherent_direction":[332,143],"coherence":1,"opposite_coherence":0,"dot_radius":2,"dot_side_length":1,"dot_life":-1,"move_distance":1,"aperture_width":300,"aperture_height":300,"dot_color":["white","black"],"dot_shape":"circle","background_color":"#AAA","RDK_type":3,"aperture_type":2,"reinsert_type":2,"frame_rate":16.625,"frame_rate_array":[9,17,17,16,17,16,17,17,16,16,18,16,16,17,17,17,15,17,17,17,16,18,16,16,17,16,17,16,17,16,17,17,17,15,18,17,17,16,17,17,16,17,16,17,16,18,17,17,16,17,16,17,17,17,16,18,16,17,17,17,16,18,16,17,16,16,18,17,17,16,17,17,17,16,17,17,16,17,16,17,17,16,18,16,15,18,17,17,16,17,17,17,16,15,17,17,16,18,16,17,17,16,18,17,16,17,17,16,17,17,15,18,16,18,16,17,16,17,17,17],"number_of_frames":120,"aperture_center_x":768,"aperture_center_y":432,"fixation_cross":true,"fixation_cross_width":15,"fixation_cross_height":15,"fixation_cross_color":"#111","fixation_cross_thickness":1,"border":true,"border_thickness":2,"border_color":"transparent","canvas_width":1536,"canvas_height":864,"trial_type":"rdk","trial_index":15,"plugin_version":"2.0.0","time_elapsed":65368,"phase":"practice","target_direction":332,"distractor_direction":143},{"rt":2112,"stimulus":"\n        <div class=\"response-container\">\n          <div class=\"response-instruction\">\n            <p>rotate the bar by using the left and right arrow keys.</p>\n            <p>when you are determined, press the Enter key.</p>\n          </div>\n          <div class=\"response-circle\">\n            <div class=\"response-fixation\"></div>\n            <div id=\"bar\" class=\"rotating-bar\"></div>\n          </div>\n        </div>\n      ","response":"Enter","trial_type":"html-keyboard-response","trial_index":16,"plugin_version":"2.1.0","time_elapsed":67482,"random_initial_angle":7,"response_angle_css":-43,"response_angle_rdk":133,"angular_error_target":161,"angular_error_distractor":-10,"target_direction":332,"target_group":"white","reward_points":0},{"rt":null,"stimulus":"\n          <p style=\"color: #FF3333;\">Your reward: 0 points</p>\n        ","response":null,"trial_type":"html-keyboard-response","trial_index":17,"plugin_version":"2.1.0","time_elapsed":69497},{"rt":null,"stimulus":"<div class=\"fixation\" style=\"font-size: 60px;\">+</div>","response":null,"trial_type":"html-keyboard-response","trial_index":18,"plugin_version":"2.1.0","time_elapsed":70512},{"target_group":"white","target_index":0,"condition_label":"practice","rt":-1,"response":"","correct":false,"choices":"ALL_KEYS","correct_choice":["a"],"trial_duration":2000,"flip_timestamps":[],"response_ends_trial":false,"number_of_apertures":2,"number_of_dots":[100,91],"number_of_sets":1,"coherent_direction":[38,271],"coherence":1,"opposite_coherence":0,"dot_radius":2,"dot_side_length":1,"dot_life":-1,"move_distance":1,"aperture_width":300,"aperture_height":300,"dot_color":["white","black"],"dot_shape":"circle","background_color":"#AAA","RDK_type":3,"aperture_type":2,"reinsert_type":2,"frame_rate":16.760330578512395,"frame_rate_array":[2,17,16,17,17,16,17,17,17,17,17,17,17,17,17,16,17,16,17,17,17,17,17,17,17,16,17,17,17,17,17,17,17,17,17,16,17,17,17,17,17,17,17,17,16,17,17,17,17,17,17,17,17,17,17,17,17,17,17,17,17,17,16,17,17,17,17,17,17,17,16,17,17,17,17,17,17,17,17,17,17,17,17,17,17,17,17,17,17,17,16,17,17,17,17,17,17,17,17,17,16,17,17,17,17,17,16,17,17,17,17,17,17,17,16,17,17,16,17,17,17],"number_of_frames":121,"aperture_center_x":768,"aperture_center_y":432,"fixation_cross":true,"fixation_cross_width":15,"fixation_cross_height":15,"fixation_cross_color":"#111","fixation_cross_thickness":1,"border":true,"border_thickness":2,"border_color":"transparent","canvas_width":1536,"canvas_height":864,"trial_type":"rdk","trial_index":19,"plugin_version":"2.0.0","time_elapsed":72515,"phase":"practice","target_direction":38,"distractor_direction":271},{"rt":3957,"stimulus":"\n        <div class=\"response-container\">\n          <div class=\"response-instruction\">\n            <p>rotate the bar by using the left and right arrow keys.</p>\n            <p>when you are determined, press the Enter key.</p>\n          </div>\n          <div class=\"response-circle\">\n            <div class=\"response-fixation\"></div>\n            <div id=\"bar\" class=\"rotating-bar\"></div>\n          </div>\n        </div>\n      ","response":"Enter","trial_type":"html-keyboard-response","trial_index":20,"plugin_version":"2.1.0","time_elapsed":76474,"random_initial_angle":143,"response_angle_css":197,"response_angle_rdk":253,"angular_error_target":-145,"angular_error_distractor":-18,"target_direction":38,"target_group":"white","reward_points":0},{"rt":null,"stimulus":"\n          <p style=\"color: #FF3333;\">Your reward: 0 points</p>\n        ","response":null,"trial_type":"html-keyboard-response","trial_index":21,"plugin_version":"2.1.0","time_elapsed":78480},{"rt":null,"stimulus":"<div class=\"fixation\" style=\"font-size: 60px;\">+</div>","response":null,"trial_type":"html-keyboard-response","trial_index":22,"plugin_version":"2.1.0","time_elapsed":79494},{"target_group":"black","target_index":1,"condition_label":"practice","rt":-1,"response":"","correct":false,"choices":"ALL_KEYS","correct_choice":["a"],"trial_duration":2000,"flip_timestamps":[],"response_ends_trial":false,"number_of_apertures":2,"number_of_dots":[71,100],"number_of_sets":1,"coherent_direction":[262,130],"coherence":1,"opposite_coherence":0,"dot_radius":2,"dot_side_length":1,"dot_life":-1,"move_distance":1,"aperture_width":300,"aperture_height":300,"dot_color":["white","black"],"dot_shape":"circle","background_color":"#AAA","RDK_type":3,"aperture_type":2,"reinsert_type":2,"frame_rate":16.611570247933884,"frame_rate_array":[2,18,16,16,17,17,16,18,17,16,17,16,16,17,17,17,16,17,17,17,17,16,17,17,16,16,18,16,18,16,17,16,16,17,16,18,16,18,16,15,17,17,17,17,17,17,16,17,17,16,17,17,16,18,16,17,16,17,17,16,17,16,18,17,16,17,17,16,18,17,16,16,17,16,17,17,16,16,18,17,16,17,17,17,17,17,16,17,18,16,17,16,18,17,17,16,18,16,17,17,16,17,17,17,17,16,16,18,17,17,16,16,17,17,16,18,16,17,17,17,16],"number_of_frames":121,"aperture_center_x":768,"aperture_center_y":432,"fixation_cross":true,"fixation_cross_width":15,"fixation_cross_height":15,"fixation_cross_color":"#111","fixation_cross_thickness":1,"border":true,"border_thickness":2,"border_color":"transparent","canvas_width":1536,"canvas_height":864,"trial_type":"rdk","trial_index":23,"plugin_version":"2.0.0","time_elapsed":81501,"phase":"practice","target_direction":130,"distractor_direction":262},{"rt":3490,"stimulus":"\n        <div class=\"response-container\">\n          <div class=\"response-instruction\">\n            <p>rotate the bar by using the left and right arrow keys.</p>\n            <p>when you are determined, press the Enter key.</p>\n          </div>\n          <div class=\"response-circle\">\n            <div class=\"response-fixation\"></div>\n            <div id=\"bar\" class=\"rotating-bar\"></div>\n          </div>\n        </div>\n      ","response":"Enter","trial_type":"html-keyboard-response","trial_index":24,"plugin_version":"2.1.0","time_elapsed":84992,"random_initial_angle":76,"response_angle_css":-14,"response_angle_rdk":104,"angular_error_target":-26,"angular_error_distractor":-158,"target_direction":130,"target_group":"black","reward_points":4},{"rt":null,"stimulus":"\n          <p style=\"color: #00FF00;\">Your reward: 4 points</p>\n        ","response":null,"trial_type":"html-keyboard-response","trial_index":25,"plugin_version":"2.1.0","time_elapsed":87006},{"rt":null,"stimulus":"<div class=\"fixation\" style=\"font-size: 60px;\">+</div>","response":null,"trial_type":"html-keyboard-response","trial_index":26,"plugin_version":"2.1.0","time_elapsed":88014},{"target_group":"white","target_index":0,"condition_label":"practice","rt":-1,"response":"","correct":false,"choices":"ALL_KEYS","correct_choice":["a"],"trial_duration":2000,"flip_timestamps":[],"response_ends_trial":false,"number_of_apertures":2,"number_of_dots":[100,96],"number_of_sets":1,"coherent_direction":[276,168],"coherence":1,"opposite_coherence":0,"dot_radius":2,"dot_side_length":1,"dot_life":-1,"move_distance":1,"aperture_width":300,"aperture_height":300,"dot_color":["white","black"],"dot_shape":"circle","background_color":"#AAA","RDK_type":3,"aperture_type":2,"reinsert_type":2,"frame_rate":16.908333333333335,"frame_rate_array":[14,17,17,17,17,17,17,17,17,17,17,17,16,17,17,17,17,17,17,17,17,17,17,16,17,17,16,17,17,17,17,17,17,17,17,17,17,17,17,16,17,17,17,17,17,17,17,17,17,17,17,16,17,17,17,17,17,17,16,17,17,17,17,17,17,17,17,17,17,17,17,17,17,17,17,17,17,17,17,17,17,17,17,17,17,17,17,17,17,17,17,17,17,17,17,16,17,17,17,17,17,17,16,17,17,17,17,17,17,17,17,17,17,17,17,17,17,17,17,17],"number_of_frames":120,"aperture_center_x":768,"aperture_center_y":432,"fixation_cross":true,"fixation_cross_width":15,"fixation_cross_height":15,"fixation_cross_color":"#111","fixation_cross_thickness":1,"border":true,"border_thickness":2,"border_color":"transparent","canvas_width":1536,"canvas_height":864,"trial_type":"rdk","trial_index":27,"plugin_version":"2.0.0","time_elapsed":90021,"phase":"practice","target_direction":276,"distractor_direction":168},{"rt":4369,"stimulus":"\n        <div class=\"response-container\">\n          <div class=\"response-instruction\">\n            <p>rotate the bar by using the left and right arrow keys.</p>\n            <p>when you are determined, press the Enter key.</p>\n          </div>\n          <div class=\"response-circle\">\n            <div class=\"response-fixation\"></div>\n            <div id=\"bar\" class=\"rotating-bar\"></div>\n          </div>\n        </div>\n      ","response":"Enter","trial_type":"html-keyboard-response","trial_index":28,"plugin_version":"2.1.0","time_elapsed":94390,"random_initial_angle":238,"response_angle_css":280,"response_angle_rdk":170,"angular_error_target":-106,"angular_error_distractor":2,"target_direction":276,"target_group":"white","reward_points":0},{"rt":null,"stimulus":"\n          <p style=\"color: #FF3333;\">Your reward: 0 points</p>\n        ","response":null,"trial_type":"html-keyboard-response","trial_index":29,"plugin_version":"2.1.0","time_elapsed":96395},{"rt":null,"stimulus":"<div class=\"fixation\" style=\"font-size: 60px;\">+</div>","response":null,"trial_type":"html-keyboard-response","trial_index":30,"plugin_version":"2.1.0","time_elapsed":97405},{"target_group":"white","target_index":0,"condition_label":"practice","rt":-1,"response":"","correct":false,"choices":"ALL_KEYS","correct_choice":["a"],"trial_duration":2000,"flip_timestamps":[],"response_ends_trial":false,"number_of_apertures":2,"number_of_dots":[100,70],"number_of_sets":1,"coherent_direction":[283,146],"coherence":1,"opposite_coherence":0,"dot_radius":2,"dot_side_length":1,"dot_life":-1,"move_distance":1,"aperture_width":300,"aperture_height":300,"dot_color":["white","black"],"dot_shape":"circle","background_color":"#AAA","RDK_type":3,"aperture_type":2,"reinsert_type":2,"frame_rate":16.65,"frame_rate_array":[5,17,17,17,16,16,18,16,17,16,16,18,16,16,17,17,17,17,17,16,17,16,19,16,16,18,16,18,16,17,16,17,17,16,17,17,17,17,16,17,17,16,17,18,16,17,16,17,16,18,16,18,16,17,16,17,17,17,17,17,17,17,16,19,15,17,16,17,18,16,16,17,15,18,16,17,16,17,17,17,17,16,16,18,18,15,17,17,16,17,16,17,16,17,17,17,17,17,17,16,17,17,17,17,17,16,17,17,16,16,18,16,17,18,16,17,16,17,17,17],"number_of_frames":120,"aperture_center_x":768,"aperture_center_y":432,"fixation_cross":true,"fixation_cross_width":15,"fixation_cross_height":15,"fixation_cross_color":"#111","fixation_cross_thickness":1,"border":true,"border_thickness":2,"border_color":"transparent","canvas_width":1536,"canvas_height":864,"trial_type":"rdk","trial_index":31,"plugin_version":"2.0.0","time_elapsed":99411,"phase":"practice","target_direction":283,"distractor_direction":146},{"rt":3811,"stimulus":"\n        <div class=\"response-container\">\n          <div class=\"response-instruction\">\n            <p>rotate the bar by using the left and right arrow keys.</p>\n            <p>when you are determined, press the Enter key.</p>\n          </div>\n          <div class=\"response-circle\">\n            <div class=\"response-fixation\"></div>\n            <div id=\"bar\" class=\"rotating-bar\"></div>\n          </div>\n        </div>\n      ","response":"Enter","trial_type":"html-keyboard-response","trial_index":32,"plugin_version":"2.1.0","time_elapsed":103223,"random_initial_angle":155,"response_angle_css":329,"response_angle_rdk":121,"angular_error_target":-162,"angular_error_distractor":-25,"target_direction":283,"target_group":"white","reward_points":0},{"rt":null,"stimulus":"\n          <p style=\"color: #FF3333;\">Your reward: 0 points</p>\n        ","response":null,"trial_type":"html-keyboard-response","trial_index":33,"plugin_version":"2.1.0","time_elapsed":105229},{"rt":null,"stimulus":"<div class=\"fixation\" style=\"font-size: 60px;\">+</div>","response":null,"trial_type":"html-keyboard-response","trial_index":34,"plugin_version":"2.1.0","time_elapsed":106244},{"target_group":"black","target_index":1,"condition_label":"practice","rt":-1,"response":"","correct":false,"choices":"ALL_KEYS","correct_choice":["a"],"trial_duration":2000,"flip_timestamps":[],"response_ends_trial":false,"number_of_apertures":2,"number_of_dots":[52,100],"number_of_sets":1,"coherent_direction":[31,223],"coherence":1,"opposite_coherence":0,"dot_radius":2,"dot_side_length":1,"dot_life":-1,"move_distance":1,"aperture_width":300,"aperture_height":300,"dot_color":["white","black"],"dot_shape":"circle","background_color":"#AAA","RDK_type":3,"aperture_type":2,"reinsert_type":2,"frame_rate":16.866666666666667,"frame_rate_array":[15,17,16,17,17,17,17,17,17,17,17,17,17,17,16,17,17,16,17,17,17,17,17,17,17,17,16,17,17,17,16,17,17,17,16,17,17,17,17,17,17,17,17,17,17,17,16,17,17,17,17,17,17,17,17,17,17,17,17,17,16,17,17,17,17,17,17,17,17,17,17,17,17,17,17,17,17,17,17,17,17,17,16,17,17,17,16,17,17,17,17,17,17,17,17,17,17,17,16,17,17,17,17,17,16,17,17,16,17,17,17,17,17,17,17,17,17,16,17,17],"number_of_frames":120,"aperture_center_x":768,"aperture_center_y":432,"fixation_cross":true,"fixation_cross_width":15,"fixation_cross_height":15,"fixation_cross_color":"#111","fixation_cross_thickness":1,"border":true,"border_thickness":2,"border_color":"transparent","canvas_width":1536,"canvas_height":864,"trial_type":"rdk","trial_index":35,"plugin_version":"2.0.0","time_elapsed":108249,"phase":"practice","target_direction":223,"distractor_direction":31},{"rt":1300,"stimulus":"\n        <div class=\"response-container\">\n          <div class=\"response-instruction\">\n            <p>rotate the bar by using the left and right arrow keys.</p>\n            <p>when you are determined, press the Enter key.</p>\n          </div>\n          <div class=\"response-circle\">\n            <div class=\"response-fixation\"></div>\n            <div id=\"bar\" class=\"rotating-bar\"></div>\n          </div>\n        </div>\n      ","response":"Enter","trial_type":"html-keyboard-response","trial_index":36,"plugin_version":"2.1.0","time_elapsed":109550,"random_initial_angle":201,"response_angle_css":225,"response_angle_rdk":225,"angular_error_target":2,"angular_error_distractor":-166,"target_direction":223,"target_group":"black","reward_points":9},{"rt":null,"stimulus":"\n          <p style=\"color: #00FF00;\">Your reward: 9 points</p>\n        ","response":null,"trial_type":"html-keyboard-response","trial_index":37,"plugin_version":"2.1.0","time_elapsed":111563},{"rt":null,"stimulus":"<div class=\"fixation\" style=\"font-size: 60px;\">+</div>","response":null,"trial_type":"html-keyboard-response","trial_index":38,"plugin_version":"2.1.0","time_elapsed":112575},{"target_group":"white","target_index":0,"condition_label":"practice","rt":-1,"response":"","correct":false,"choices":"ALL_KEYS","correct_choice":["a"],"trial_duration":2000,"flip_timestamps":[],"response_ends_trial":false,"number_of_apertures":2,"number_of_dots":[100,75],"number_of_sets":1,"coherent_direction":[330,228],"coherence":1,"opposite_coherence":0,"dot_radius":2,"dot_side_length":1,"dot_life":-1,"move_distance":1,"aperture_width":300,"aperture_height":300,"dot_color":["white","black"],"dot_shape":"circle","background_color":"#AAA","RDK_type":3,"aperture_type":2,"reinsert_type":2,"frame_rate":16.866666666666667,"frame_rate_array":[16,17,17,17,16,17,17,17,17,17,17,17,17,17,17,17,17,16,17,17,17,16,17,17,17,17,17,17,17,17,17,17,17,17,17,17,17,17,17,17,17,17,17,17,16,17,17,17,17,17,17,16,17,17,17,17,17,17,17,17,16,17,17,17,17,16,17,16,17,17,16,17,17,17,17,16,17,17,17,16,17,17,17,17,17,17,17,17,17,17,17,17,17,17,17,17,17,17,17,17,17,17,17,17,17,17,17,16,17,17,16,17,17,16,17,17,17,16,17,17],"number_of_frames":120,"aperture_center_x":768,"aperture_center_y":432,"fixation_cross":true,"fixation_cross_width":15,"fixation_cross_height":15,"fixation_cross_color":"#111","fixation_cross_thickness":1,"border":true,"border_thickness":2,"border_color":"transparent","canvas_width":1536,"canvas_height":864,"trial_type":"rdk","trial_index":39,"plugin_version":"2.0.0","time_elapsed":114577,"phase":"practice","target_direction":330,"distractor_direction":228},{"rt":2366,"stimulus":"\n        <div class=\"response-container\">\n          <div class=\"response-instruction\">\n            <p>rotate the bar by using the left and right arrow keys.</p>\n            <p>when you are determined, press the Enter key.</p>\n          </div>\n          <div class=\"response-circle\">\n            <div class=\"response-fixation\"></div>\n            <div id=\"bar\" class=\"rotating-bar\"></div>\n          </div>\n        </div>\n      ","response":"Enter","trial_type":"html-keyboard-response","trial_index":40,"plugin_version":"2.1.0","time_elapsed":116944,"random_initial_angle":33,"response_angle_css":132,"response_angle_rdk":318,"angular_error_target":-12,"angular_error_distractor":90,"target_direction":330,"target_group":"white","reward_points":7},{"rt":null,"stimulus":"\n          <p style=\"color: #00FF00;\">Your reward: 7 points</p>\n        ","response":null,"trial_type":"html-keyboard-response","trial_index":41,"plugin_version":"2.1.0","time_elapsed":118955},{"rt":null,"stimulus":"<div class=\"fixation\" style=\"font-size: 60px;\">+</div>","response":null,"trial_type":"html-keyboard-response","trial_index":42,"plugin_version":"2.1.0","time_elapsed":119964},{"target_group":"white","target_index":0,"condition_label":"practice","rt":-1,"response":"","correct":false,"choices":"ALL_KEYS","correct_choice":["a"],"trial_duration":2000,"flip_timestamps":[],"response_ends_trial":false,"number_of_apertures":2,"number_of_dots":[100,66],"number_of_sets":1,"coherent_direction":[253,28],"coherence":1,"opposite_coherence":0,"dot_radius":2,"dot_side_length":1,"dot_life":-1,"move_distance":1,"aperture_width":300,"aperture_height":300,"dot_color":["white","black"],"dot_shape":"circle","background_color":"#AAA","RDK_type":3,"aperture_type":2,"reinsert_type":2,"frame_rate":16.818181818181817,"frame_rate_array":[10,17,16,17,17,17,17,17,17,17,17,17,17,17,17,17,17,17,16,17,17,16,17,17,17,17,16,17,17,17,16,17,17,17,17,17,16,17,17,17,17,17,17,17,17,17,16,17,16,17,17,17,17,17,17,16,17,17,17,16,17,17,17,17,17,17,17,17,17,17,17,17,17,17,17,17,18,15,17,17,17,17,17,17,17,16,17,17,17,17,17,16,17,17,17,17,17,17,17,17,17,17,17,17,17,16,17,17,17,17,17,17,17,17,17,16,17,17,17,17,17],"number_of_frames":121,"aperture_center_x":768,"aperture_center_y":432,"fixation_cross":true,"fixation_cross_width":15,"fixation_cross_height":15,"fixation_cross_color":"#111","fixation_cross_thickness":1,"border":true,"border_thickness":2,"border_color":"transparent","canvas_width":1536,"canvas_height":864,"trial_type":"rdk","trial_index":43,"plugin_version":"2.0.0","time_elapsed":121975,"phase":"practice","target_direction":253,"distractor_direction":28},{"rt":1335,"stimulus":"\n        <div class=\"response-container\">\n          <div class=\"response-instruction\">\n            <p>rotate the bar by using the left and right arrow keys.</p>\n            <p>when you are determined, press the Enter key.</p>\n          </div>\n          <div class=\"response-circle\">\n            <div class=\"response-fixation\"></div>\n            <div id=\"bar\" class=\"rotating-bar\"></div>\n          </div>\n        </div>\n      ","response":"Enter","trial_type":"html-keyboard-response","trial_index":44,"plugin_version":"2.1.0","time_elapsed":123311,"random_initial_angle":37,"response_angle_css":37,"response_angle_rdk":53,"angular_error_target":160,"angular_error_distractor":25,"target_direction":253,"target_group":"white","reward_points":0},{"rt":null,"stimulus":"\n          <p style=\"color: #FF3333;\">Your reward: 0 points</p>\n        ","response":null,"trial_type":"html-keyboard-response","trial_index":45,"plugin_version":"2.1.0","time_elapsed":125315},{"rt":null,"stimulus":"<div class=\"fixation\" style=\"font-size: 60px;\">+</div>","response":null,"trial_type":"html-keyboard-response","trial_index":46,"plugin_version":"2.1.0","time_elapsed":126325},{"target_group":"black","target_index":1,"condition_label":"practice","rt":-1,"response":"","correct":false,"choices":"ALL_KEYS","correct_choice":["a"],"trial_duration":2000,"flip_timestamps":[],"response_ends_trial":false,"number_of_apertures":2,"number_of_dots":[50,100],"number_of_sets":1,"coherent_direction":[103,322],"coherence":1,"opposite_coherence":0,"dot_radius":2,"dot_side_length":1,"dot_life":-1,"move_distance":1,"aperture_width":300,"aperture_height":300,"dot_color":["white","black"],"dot_shape":"circle","background_color":"#AAA","RDK_type":3,"aperture_type":2,"reinsert_type":2,"frame_rate":16.875,"frame_rate_array":[14,17,17,17,17,17,17,17,17,17,17,17,17,17,17,17,17,17,17,17,17,17,17,16,17,17,17,16,17,17,17,17,17,17,17,17,17,17,17,16,17,17,17,17,16,17,17,17,17,17,17,17,17,17,16,17,17,17,17,17,17,17,17,17,17,17,17,17,16,17,17,17,17,17,17,16,17,17,17,16,17,17,17,16,17,17,16,17,17,16,17,17,17,17,17,17,17,17,17,17,17,17,17,17,17,17,17,17,17,16,17,17,17,17,17,17,17,17,17,17],"number_of_frames":120,"aperture_center_x":768,"aperture_center_y":432,"fixation_cross":true,"fixation_cross_width":15,"fixation_cross_height":15,"fixation_cross_color":"#111","fixation_cross_thickness":1,"border":true,"border_thickness":2,"border_color":"transparent","canvas_width":1536,"canvas_height":864,"trial_type":"rdk","trial_index":47,"plugin_version":"2.0.0","time_elapsed":128331,"phase":"practice","target_direction":322,"distractor_direction":103},{"rt":3222,"stimulus":"\n        <div class=\"response-container\">\n          <div class=\"response-instruction\">\n            <p>rotate the bar by using the left and right arrow keys.</p>\n            <p>when you are determined, press the Enter key.</p>\n          </div>\n          <div class=\"response-circle\">\n            <div class=\"response-fixation\"></div>\n            <div id=\"bar\" class=\"rotating-bar\"></div>\n          </div>\n        </div>\n      ","response":"Enter","trial_type":"html-keyboard-response","trial_index":48,"plugin_version":"2.1.0","time_elapsed":131554,"random_initial_angle":130,"response_angle_css":-32,"response_angle_rdk":122,"angular_error_target":160,"angular_error_distractor":19,"target_direction":322,"target_group":"black","reward_points":0},{"rt":null,"stimulus":"\n          <p style=\"color: #FF3333;\">Your reward: 0 points</p>\n        ","response":null,"trial_type":"html-keyboard-response","trial_index":49,"plugin_version":"2.1.0","time_elapsed":133557},{"rt":null,"stimulus":"<div class=\"fixation\" style=\"font-size: 60px;\">+</div>","response":null,"trial_type":"html-keyboard-response","trial_index":50,"plugin_version":"2.1.0","time_elapsed":134570},{"target_group":"white","target_index":0,"condition_label":"practice","rt":-1,"response":"","correct":false,"choices":"ALL_KEYS","correct_choice":["a"],"trial_duration":2000,"flip_timestamps":[],"response_ends_trial":false,"number_of_apertures":2,"number_of_dots":[100,91],"number_of_sets":1,"coherent_direction":[58,176],"coherence":1,"opposite_coherence":0,"dot_radius":2,"dot_side_length":1,"dot_life":-1,"move_distance":1,"aperture_width":300,"aperture_height":300,"dot_color":["white","black"],"dot_shape":"circle","background_color":"#AAA","RDK_type":3,"aperture_type":2,"reinsert_type":2,"frame_rate":16.56198347107438,"frame_rate_array":[2,18,16,17,17,17,16,17,17,17,16,18,15,17,16,17,16,16,17,17,17,16,17,17,17,17,16,17,17,17,17,17,16,18,17,16,18,16,16,17,17,17,17,16,15,17,17,17,16,18,16,16,18,16,17,16,16,18,15,17,17,16,17,18,17,16,17,16,17,17,17,17,16,17,17,17,16,16,18,16,16,17,17,16,17,17,16,16,18,17,16,16,17,17,17,17,15,17,17,16,17,16,17,17,16,17,17,17,17,15,18,16,17,16,18,17,16,17,16,17,16],"number_of_frames":121,"aperture_center_x":768,"aperture_center_y":432,"fixation_cross":true,"fixation_cross_width":15,"fixation_cross_height":15,"fixation_cross_color":"#111","fixation_cross_thickness":1,"border":true,"border_thickness":2,"border_color":"transparent","canvas_width":1536,"canvas_height":864,"trial_type":"rdk","trial_index":51,"plugin_version":"2.0.0","time_elapsed":136576,"phase":"practice","target_direction":58,"distractor_direction":176},{"rt":2655,"stimulus":"\n        <div class=\"response-container\">\n          <div class=\"response-instruction\">\n            <p>rotate the bar by using the left and right arrow keys.</p>\n            <p>when you are determined, press the Enter key.</p>\n          </div>\n          <div class=\"response-circle\">\n            <div class=\"response-fixation\"></div>\n            <div id=\"bar\" class=\"rotating-bar\"></div>\n          </div>\n        </div>\n      ","response":"Enter","trial_type":"html-keyboard-response","trial_index":52,"plugin_version":"2.1.0","time_elapsed":139231,"random_initial_angle":315,"response_angle_css":388,"response_angle_rdk":62,"angular_error_target":4,"angular_error_distractor":-114,"target_direction":58,"target_group":"white","reward_points":9},{"rt":null,"stimulus":"\n          <p style=\"color: #00FF00;\">Your reward: 9 points</p>\n        ","response":null,"trial_type":"html-keyboard-response","trial_index":53,"plugin_version":"2.1.0","time_elapsed":141234},{"rt":null,"stimulus":"<div class=\"fixation\" style=\"font-size: 60px;\">+</div>","response":null,"trial_type":"html-keyboard-response","trial_index":54,"plugin_version":"2.1.0","time_elapsed":142243},{"target_group":"white","target_index":0,"condition_label":"practice","rt":-1,"response":"","correct":false,"choices":"ALL_KEYS","correct_choice":["a"],"trial_duration":2000,"flip_timestamps":[],"response_ends_trial":false,"number_of_apertures":2,"number_of_dots":[100,86],"number_of_sets":1,"coherent_direction":[238,79],"coherence":1,"opposite_coherence":0,"dot_radius":2,"dot_side_length":1,"dot_life":-1,"move_distance":1,"aperture_width":300,"aperture_height":300,"dot_color":["white","black"],"dot_shape":"circle","background_color":"#AAA","RDK_type":3,"aperture_type":2,"reinsert_type":2,"frame_rate":16.825,"frame_rate_array":[11,17,17,17,17,17,17,17,17,16,17,17,17,17,17,17,17,17,17,17,17,17,16,17,17,17,17,17,16,17,17,16,17,17,17,17,17,17,17,17,17,17,17,17,17,17,17,16,17,16,17,17,17,17,17,17,17,17,17,16,17,17,16,17,17,17,17,17,17,16,17,17,17,17,17,17,17,17,16,17,17,17,16,17,16,17,17,17,17,17,16,17,17,17,17,17,17,16,17,17,17,16,17,17,17,17,17,17,17,17,17,17,17,17,17,17,17,17,17,17],"number_of_frames":120,"aperture_center_x":768,"aperture_center_y":432,"fixation_cross":true,"fixation_cross_width":15,"fixation_cross_height":15,"fixation_cross_color":"#111","fixation_cross_thickness":1,"border":true,"border_thickness":2,"border_color":"transparent","canvas_width":1536,"canvas_height":864,"trial_type":"rdk","trial_index":55,"plugin_version":"2.0.0","time_elapsed":144250,"phase":"practice","target_direction":238,"distractor_direction":79},{"rt":2593,"stimulus":"\n        <div class=\"response-container\">\n          <div class=\"response-instruction\">\n            <p>rotate the bar by using the left and right arrow keys.</p>\n            <p>when you are determined, press the Enter key.</p>\n          </div>\n          <div class=\"response-circle\">\n            <div class=\"response-fixation\"></div>\n            <div id=\"bar\" class=\"rotating-bar\"></div>\n          </div>\n        </div>\n      ","response":"Enter","trial_type":"html-keyboard-response","trial_index":56,"plugin_version":"2.1.0","time_elapsed":146844,"random_initial_angle":277,"response_angle_css":203,"response_angle_rdk":247,"angular_error_target":9,"angular_error_distractor":168,"target_direction":238,"target_group":"white","reward_points":8},{"rt":null,"stimulus":"\n          <p style=\"color: #00FF00;\">Your reward: 8 points</p>\n        ","response":null,"trial_type":"html-keyboard-response","trial_index":57,"plugin_version":"2.1.0","time_elapsed":148853},{"rt":null,"stimulus":"<div class=\"fixation\" style=\"font-size: 60px;\">+</div>","response":null,"trial_type":"html-keyboard-response","trial_index":58,"plugin_version":"2.1.0","time_elapsed":149861},{"target_group":"black","target_index":1,"condition_label":"practice","rt":-1,"response":"","correct":false,"choices":"ALL_KEYS","correct_choice":["a"],"trial_duration":2000,"flip_timestamps":[],"response_ends_trial":false,"number_of_apertures":2,"number_of_dots":[50,100],"number_of_sets":1,"coherent_direction":[223,59],"coherence":1,"opposite_coherence":0,"dot_radius":2,"dot_side_length":1,"dot_life":-1,"move_distance":1,"aperture_width":300,"aperture_height":300,"dot_color":["white","black"],"dot_shape":"circle","background_color":"#AAA","RDK_type":3,"aperture_type":2,"reinsert_type":2,"frame_rate":16.65,"frame_rate_array":[9,17,18,15,17,17,17,17,18,16,17,17,17,17,17,18,15,18,17,16,16,17,17,16,17,17,16,17,17,16,16,17,17,17,16,16,18,17,17,17,16,16,18,17,16,16,16,18,17,16,16,16,17,17,17,17,17,16,17,16,18,17,16,16,17,17,16,17,16,16,17,17,16,17,17,16,17,17,15,18,16,17,18,17,17,16,16,18,16,17,16,17,17,16,17,16,17,16,18,16,17,17,17,17,16,17,16,17,16,17,17,17,17,16,17,17,17,17,17,16],"number_of_frames":120,"aperture_center_x":768,"aperture_center_y":432,"fixation_cross":true,"fixation_cross_width":15,"fixation_cross_height":15,"fixation_cross_color":"#111","fixation_cross_thickness":1,"border":true,"border_thickness":2,"border_color":"transparent","canvas_width":1536,"canvas_height":864,"trial_type":"rdk","trial_index":59,"plugin_version":"2.0.0","time_elapsed":151869,"phase":"practice","target_direction":59,"distractor_direction":223},{"rt":2253,"stimulus":"\n        <div class=\"response-container\">\n          <div class=\"response-instruction\">\n            <p>rotate the bar by using the left and right arrow keys.</p>\n            <p>when you are determined, press the Enter key.</p>\n          </div>\n          <div class=\"response-circle\">\n            <div class=\"response-fixation\"></div>\n            <div id=\"bar\" class=\"rotating-bar\"></div>\n          </div>\n        </div>\n      ","response":"Enter","trial_type":"html-keyboard-response","trial_index":60,"plugin_version":"2.1.0","time_elapsed":154123,"random_initial_angle":297,"response_angle_css":223,"response_angle_rdk":227,"angular_error_target":168,"angular_error_distractor":4,"target_direction":59,"target_group":"black","reward_points":0},{"rt":null,"stimulus":"\n          <p style=\"color: #FF3333;\">Your reward: 0 points</p>\n        ","response":null,"trial_type":"html-keyboard-response","trial_index":61,"plugin_version":"2.1.0","time_elapsed":156138},{"rt":null,"stimulus":"<div class=\"fixation\" style=\"font-size: 60px;\">+</div>","response":null,"trial_type":"html-keyboard-response","trial_index":62,"plugin_version":"2.1.0","time_elapsed":157148},{"target_group":"black","target_index":1,"condition_label":"practice","rt":-1,"response":"","correct":false,"choices":"ALL_KEYS","correct_choice":["a"],"trial_duration":2000,"flip_timestamps":[],"response_ends_trial":false,"number_of_apertures":2,"number_of_dots":[72,100],"number_of_sets":1,"coherent_direction":[154,344],"coherence":1,"opposite_coherence":0,"dot_radius":2,"dot_side_length":1,"dot_life":-1,"move_distance":1,"aperture_width":300,"aperture_height":300,"dot_color":["white","black"],"dot_shape":"circle","background_color":"#AAA","RDK_type":3,"aperture_type":2,"reinsert_type":2,"frame_rate":16.56198347107438,"frame_rate_array":[4,18,18,15,16,18,16,16,17,17,15,17,16,17,16,17,16,16,17,18,16,17,16,17,17,16,18,16,17,16,17,17,16,16,18,15,17,17,16,18,16,17,16,17,17,16,17,17,16,18,17,16,18,16,17,17,17,16,17,17,15,18,16,17,16,18,16,16,17,17,17,16,18,17,16,17,17,16,17,16,17,17,16,17,16,16,17,16,17,18,16,17,17,17,16,16,17,17,18,16,17,16,20,14,17,17,16,16,18,16,16,17,17,16,17,16,16,17,17,17,16],"number_of_frames":121,"aperture_center_x":768,"aperture_center_y":432,"fixation_cross":true,"fixation_cross_width":15,"fixation_cross_height":15,"fixation_cross_color":"#111","fixation_cross_thickness":1,"border":true,"border_thickness":2,"border_color":"transparent","canvas_width":1536,"canvas_height":864,"trial_type":"rdk","trial_index":63,"plugin_version":"2.0.0","time_elapsed":159156,"phase":"practice","target_direction":344,"distractor_direction":154},{"rt":3312,"stimulus":"\n        <div class=\"response-container\">\n          <div class=\"response-instruction\">\n            <p>rotate the bar by using the left and right arrow keys.</p>\n            <p>when you are determined, press the Enter key.</p>\n          </div>\n          <div class=\"response-circle\">\n            <div class=\"response-fixation\"></div>\n            <div id=\"bar\" class=\"rotating-bar\"></div>\n          </div>\n        </div>\n      ","response":"Enter","trial_type":"html-keyboard-response","trial_index":64,"plugin_version":"2.1.0","time_elapsed":162469,"random_initial_angle":160,"response_angle_css":117,"response_angle_rdk":333,"angular_error_target":-11,"angular_error_distractor":179,"target_direction":344,"target_group":"black","reward_points":7},{"rt":null,"stimulus":"\n          <p style=\"color: #00FF00;\">Your reward: 7 points</p>\n        ","response":null,"trial_type":"html-keyboard-response","trial_index":65,"plugin_version":"2.1.0","time_elapsed":164473},{"rt":4450,"stimulus":"\n        <div class=\"instructions-container\">\n          <h2>End of Practice</h2>\n          <p>You have completed the practice trials.</p>\n          <p>Press <strong>Enter</strong> key to begin the main experiment.</p>\n        </div>\n      ","response":"Enter","trial_type":"html-keyboard-response","trial_index":66,"plugin_version":"2.1.0","time_elapsed":168925},{"rt":null,"stimulus":"<div class=\"fixation\" style=\"font-size: 60px;\">+</div>","response":null,"trial_type":"html-keyboard-response","trial_index":67,"plugin_version":"2.1.0","time_elapsed":169930},{"phase":"learning-awareness","target_group":"white","condition_label":"W_H_vs_B_L_rep1","target_direction":255,"distractor_direction":145,"session_rotation":228,"rt":-1,"response":"","correct":false,"choices":"ALL_KEYS","correct_choice":["a"],"trial_duration":2000,"flip_timestamps":[],"response_ends_trial":false,"number_of_apertures":200,"number_of_dots":[1,1,1,1,1,1,1,1,1,1,1,1,1,1,1,1,1,1,1,1,1,1,1,1,1,1,1,1,1,1,1,1,1,1,1,1,1,1,1,1,1,1,1,1,1,1,1,1,1,1,1,1,1,1,1,1,1,1,1,1,1,1,1,1,1,1,1,1,1,1,1,1,1,1,1,1,1,1,1,1,1,1,1,1,1,1,1,1,1,1,1,1,1,1,1,1,1,1,1,1,1,1,1,1,1,1,1,1,1,1,1,1,1,1,1,1,1,1,1,1,1,1,1,1,1,1,1,1,1,1,1,1,1,1,1,1,1,1,1,1,1,1,1,1,1,1,1,1,1,1,1,1,1,1,1,1,1,1,1,1,1,1,1,1,1,1,1,1,1,1,1,1,1,1,1,1,1,1,1,1,1,1,1,1,1,1,1,1,1,1,1,1,1,1,1,1,1,1,1,1],"number_of_sets":1,"coherent_direction":[145,145,255,255,145,255,145,145,145,145,145,145,145,145,145,145,255,145,255,145,255,255,145,145,145,255,145,145,255,255,145,145,255,145,255,255,145,255,255,255,255,255,255,145,145,145,145,145,145,145,145,255,145,145,255,145,255,255,145,145,255,255,255,255,145,145,255,255,145,255,255,255,145,255,145,145,255,255,255,255,255,255,145,255,145,255,255,255,255,145,255,145,145,145,145,255,145,255,145,145,145,145,145,145,145,145,145,255,255,145,145,145,255,145,145,255,145,145,145,145,255,255,255,145,255,255,145,145,255,255,255,255,145,255,255,255,145,255,255,145,145,145,255,255,255,255,145,145,255,145,255,145,145,255,145,145,145,255,255,255,255,255,145,255,255,255,255,145,255,255,145,255,145,255,145,145,145,255,255,255,145,255,145,145,255,145,145,255,145,255,255,255,255,255,255,145,145,255,255,255],"coherence":1,"opposite_coherence":0,"dot_radius":2,"dot_side_length":1,"dot_life":-1,"move_distance":1,"aperture_width":300,"aperture_height":300,"dot_color":["black","black","white","white","black","white","black","black","black","black","black","black","black","black","black","black","white","black","white","black","white","white","black","black","black","white","black","black","white","white","black","black","white","black","white","white","black","white","white","white","white","white","white","black","black","black","black","black","black","black","black","white","black","black","white","black","white","white","black","black","white","white","white","white","black","black","white","white","black","white","white","white","black","white","black","black","white","white","white","white","white","white","black","white","black","white","white","white","white","black","white","black","black","black","black","white","black","white","black","black","black","black","black","black","black","black","black","white","white","black","black","black","white","black","black","white","black","black","black","black","white","white","white","black","white","white","black","black","white","white","white","white","black","white","white","white","black","white","white","black","black","black","white","white","white","white","black","black","white","black","white","black","black","white","black","black","black","white","white","white","white","white","black","white","white","white","white","black","white","white","black","white","black","white","black","black","black","white","white","white","black","white","black","black","white","black","black","white","black","white","white","white","white","white","white","black","black","white","white","white"],"dot_shape":"circle","background_color":"#AAA","RDK_type":3,"aperture_type":2,"reinsert_type":2,"frame_rate":16.644628099173552,"frame_rate_array":[3,19,17,16,17,17,16,17,16,17,17,16,18,16,17,17,17,17,16,17,16,19,16,17,15,17,17,17,18,17,16,17,17,16,18,16,17,15,17,17,16,17,18,16,17,17,17,17,16,17,17,18,16,17,18,15,17,17,17,16,16,18,16,17,15,18,17,16,18,17,15,18,16,18,16,16,18,17,16,17,17,18,15,18,16,17,16,17,16,18,16,17,16,18,16,17,17,16,16,18,18,15,18,16,17,16,15,17,16,18,17,16,16,18,17,17,17,16,16,16,18],"number_of_frames":121,"aperture_center_x":768,"aperture_center_y":432,"fixation_cross":true,"fixation_cross_width":15,"fixation_cross_height":15,"fixation_cross_color":"#111","fixation_cross_thickness":1,"border":true,"border_thickness":2,"border_color":"transparent","canvas_width":1536,"canvas_height":864,"trial_type":"rdk","trial_index":68,"plugin_version":"2.0.0","time_elapsed":171938},{"rt":3166,"stimulus":"\n        <div class=\"response-container\">\n          <div class=\"response-instruction\">\n            <p>rotate the bar by using the left and right arrow keys.</p>\n            <p>when you are determined, press the Enter key.</p>\n          </div>\n          <div class=\"response-circle\">\n            <div class=\"response-fixation\"></div>\n            <div id=\"bar\" class=\"rotating-bar\"></div>\n          </div>\n        </div>\n      ","response":"Enter","trial_type":"html-keyboard-response","trial_index":69,"plugin_version":"2.1.0","time_elapsed":175105,"random_initial_angle":142,"response_angle_css":201,"response_angle_rdk":249,"angular_error_target":-6,"angular_error_distractor":104,"target_direction":255,"target_group":"white","reward_points":8},{"rt":null,"stimulus":"\n          <p style=\"color: #00FF00;\">Your reward: 8 points</p>\n        ","response":null,"trial_type":"html-keyboard-response","trial_index":70,"plugin_version":"2.1.0","time_elapsed":177119},{"rt":null,"stimulus":"<div class=\"fixation\" style=\"font-size: 60px;\">+</div>","response":null,"trial_type":"html-keyboard-response","trial_index":71,"plugin_version":"2.1.0","time_elapsed":178129},{"phase":"learning-awareness","target_group":"white","condition_label":"W_H_vs_B_L_rep17","target_direction":235,"distractor_direction":142,"session_rotation":228,"rt":-1,"response":"","correct":false,"choices":"ALL_KEYS","correct_choice":["a"],"trial_duration":2000,"flip_timestamps":[],"response_ends_trial":false,"number_of_apertures":200,"number_of_dots":[1,1,1,1,1,1,1,1,1,1,1,1,1,1,1,1,1,1,1,1,1,1,1,1,1,1,1,1,1,1,1,1,1,1,1,1,1,1,1,1,1,1,1,1,1,1,1,1,1,1,1,1,1,1,1,1,1,1,1,1,1,1,1,1,1,1,1,1,1,1,1,1,1,1,1,1,1,1,1,1,1,1,1,1,1,1,1,1,1,1,1,1,1,1,1,1,1,1,1,1,1,1,1,1,1,1,1,1,1,1,1,1,1,1,1,1,1,1,1,1,1,1,1,1,1,1,1,1,1,1,1,1,1,1,1,1,1,1,1,1,1,1,1,1,1,1,1,1,1,1,1,1,1,1,1,1,1,1,1,1,1,1,1,1,1,1,1,1,1,1,1,1,1,1,1,1,1,1,1,1,1,1,1,1,1,1,1,1,1,1,1,1,1,1,1,1,1,1,1,1],"number_of_sets":1,"coherent_direction":[142,235,142,142,235,235,142,142,235,142,235,235,142,142,235,235,142,142,142,235,235,235,235,142,142,142,142,235,142,235,142,235,235,235,235,235,142,235,142,142,235,235,235,235,142,142,142,235,235,235,142,142,235,235,235,142,235,235,235,142,142,235,142,235,142,235,235,235,235,142,235,235,235,142,142,142,235,235,235,235,235,235,142,142,235,235,142,235,142,142,235,235,235,235,142,142,142,235,142,235,235,235,235,142,235,142,142,142,142,142,142,235,142,142,235,142,235,142,235,142,235,142,235,235,142,235,235,142,142,142,142,235,142,235,142,142,235,235,235,235,235,235,142,235,142,142,142,142,142,142,142,235,142,142,235,235,142,142,142,142,142,235,235,142,142,235,142,142,235,142,142,235,235,235,142,142,235,142,142,142,235,142,235,142,142,235,235,235,142,142,142,142,235,235,235,235,142,142,235,142],"coherence":1,"opposite_coherence":0,"dot_radius":2,"dot_side_length":1,"dot_life":-1,"move_distance":1,"aperture_width":300,"aperture_height":300,"dot_color":["black","white","black","black","white","white","black","black","white","black","white","white","black","black","white","white","black","black","black","white","white","white","white","black","black","black","black","white","black","white","black","white","white","white","white","white","black","white","black","black","white","white","white","white","black","black","black","white","white","white","black","black","white","white","white","black","white","white","white","black","black","white","black","white","black","white","white","white","white","black","white","white","white","black","black","black","white","white","white","white","white","white","black","black","white","white","black","white","black","black","white","white","white","white","black","black","black","white","black","white","white","white","white","black","white","black","black","black","black","black","black","white","black","black","white","black","white","black","white","black","white","black","white","white","black","white","white","black","black","black","black","white","black","white","black","black","white","white","white","white","white","white","black","white","black","black","black","black","black","black","black","white","black","black","white","white","black","black","black","black","black","white","white","black","black","white","black","black","white","black","black","white","white","white","black","black","white","black","black","black","white","black","white","black","black","white","white","white","black","black","black","black","white","white","white","white","black","black","white","black"],"dot_shape":"circle","background_color":"#AAA","RDK_type":3,"aperture_type":2,"reinsert_type":2,"frame_rate":16.636363636363637,"frame_rate_array":[3,18,16,17,17,16,17,15,17,18,17,17,16,18,16,16,18,16,16,18,16,16,17,17,17,15,18,17,17,16,18,16,17,17,16,17,17,17,16,18,16,16,17,17,17,18,14,17,17,18,16,17,16,18,17,16,16,18,16,17,16,16,17,16,18,18,15,17,16,16,18,16,17,17,17,17,16,17,19,16,16,16,17,18,17,17,16,17,17,16,17,16,17,17,17,17,15,18,15,17,18,17,16,16,17,18,17,17,16,17,17,17,16,18,16,16,17,17,18,16,17],"number_of_frames":121,"aperture_center_x":768,"aperture_center_y":432,"fixation_cross":true,"fixation_cross_width":15,"fixation_cross_height":15,"fixation_cross_color":"#111","fixation_cross_thickness":1,"border":true,"border_thickness":2,"border_color":"transparent","canvas_width":1536,"canvas_height":864,"trial_type":"rdk","trial_index":72,"plugin_version":"2.0.0","time_elapsed":180137},{"rt":3200,"stimulus":"\n        <div class=\"response-container\">\n          <div class=\"response-instruction\">\n            <p>rotate the bar by using the left and right arrow keys.</p>\n            <p>when you are determined, press the Enter key.</p>\n          </div>\n          <div class=\"response-circle\">\n            <div class=\"response-fixation\"></div>\n            <div id=\"bar\" class=\"rotating-bar\"></div>\n          </div>\n        </div>\n      ","response":"Enter","trial_type":"html-keyboard-response","trial_index":73,"plugin_version":"2.1.0","time_elapsed":183337,"random_initial_angle":54,"response_angle_css":-161,"response_angle_rdk":251,"angular_error_target":16,"angular_error_distractor":109,"target_direction":235,"target_group":"white","reward_points":6},{"rt":null,"stimulus":"\n          <p style=\"color: #00FF00;\">Your reward: 6 points</p>\n        ","response":null,"trial_type":"html-keyboard-response","trial_index":74,"plugin_version":"2.1.0","time_elapsed":185353},{"rt":null,"stimulus":"<div class=\"fixation\" style=\"font-size: 60px;\">+</div>","response":null,"trial_type":"html-keyboard-response","trial_index":75,"plugin_version":"2.1.0","time_elapsed":186367},{"phase":"learning-awareness","target_group":"black","condition_label":"B_H_vs_W_L_rep18","target_direction":352,"distractor_direction":82,"session_rotation":228,"rt":-1,"response":"","correct":false,"choices":"ALL_KEYS","correct_choice":["a"],"trial_duration":2000,"flip_timestamps":[],"response_ends_trial":false,"number_of_apertures":200,"number_of_dots":[1,1,1,1,1,1,1,1,1,1,1,1,1,1,1,1,1,1,1,1,1,1,1,1,1,1,1,1,1,1,1,1,1,1,1,1,1,1,1,1,1,1,1,1,1,1,1,1,1,1,1,1,1,1,1,1,1,1,1,1,1,1,1,1,1,1,1,1,1,1,1,1,1,1,1,1,1,1,1,1,1,1,1,1,1,1,1,1,1,1,1,1,1,1,1,1,1,1,1,1,1,1,1,1,1,1,1,1,1,1,1,1,1,1,1,1,1,1,1,1,1,1,1,1,1,1,1,1,1,1,1,1,1,1,1,1,1,1,1,1,1,1,1,1,1,1,1,1,1,1,1,1,1,1,1,1,1,1,1,1,1,1,1,1,1,1,1,1,1,1,1,1,1,1,1,1,1,1,1,1,1,1,1,1,1,1,1,1,1,1,1,1,1,1,1,1,1,1,1,1],"number_of_sets":1,"coherent_direction":[352,82,352,352,352,82,352,352,82,82,352,352,352,352,82,352,352,352,352,352,82,352,82,82,352,352,82,352,352,82,352,352,352,352,352,352,352,352,82,352,352,82,352,82,82,82,82,352,352,352,82,82,82,82,352,82,352,82,352,352,82,82,82,82,82,82,352,352,352,352,82,352,352,82,82,82,352,352,352,82,82,82,82,352,82,82,82,352,82,82,82,352,352,352,82,352,82,352,352,352,352,82,82,352,82,352,82,352,352,82,82,82,82,82,82,352,352,82,82,82,82,352,82,82,82,352,82,82,352,82,82,82,352,82,82,352,352,82,82,82,82,352,82,352,352,352,82,82,352,82,352,352,352,82,352,82,82,82,82,82,352,82,82,82,82,352,352,352,352,82,352,82,352,352,352,82,82,352,352,352,352,82,82,82,352,82,82,82,352,82,352,352,82,82,352,352,82,352,352,352],"coherence":1,"opposite_coherence":0,"dot_radius":2,"dot_side_length":1,"dot_life":-1,"move_distance":1,"aperture_width":300,"aperture_height":300,"dot_color":["black","white","black","black","black","white","black","black","white","white","black","black","black","black","white","black","black","black","black","black","white","black","white","white","black","black","white","black","black","white","black","black","black","black","black","black","black","black","white","black","black","white","black","white","white","white","white","black","black","black","white","white","white","white","black","white","black","white","black","black","white","white","white","white","white","white","black","black","black","black","white","black","black","white","white","white","black","black","black","white","white","white","white","black","white","white","white","black","white","white","white","black","black","black","white","black","white","black","black","black","black","white","white","black","white","black","white","black","black","white","white","white","white","white","white","black","black","white","white","white","white","black","white","white","white","black","white","white","black","white","white","white","black","white","white","black","black","white","white","white","white","black","white","black","black","black","white","white","black","white","black","black","black","white","black","white","white","white","white","white","black","white","white","white","white","black","black","black","black","white","black","white","black","black","black","white","white","black","black","black","black","white","white","white","black","white","white","white","black","white","black","black","white","white","black","black","white","black","black","black"],"dot_shape":"circle","background_color":"#AAA","RDK_type":3,"aperture_type":2,"reinsert_type":2,"frame_rate":16.841666666666665,"frame_rate_array":[13,17,17,17,17,17,17,17,17,17,17,16,17,17,16,17,17,17,16,17,17,17,17,17,17,17,16,17,16,17,17,17,17,17,17,17,17,17,17,16,17,16,17,17,17,17,17,17,17,17,17,17,17,17,18,16,16,17,17,17,17,17,17,17,17,17,17,17,17,17,17,17,17,17,17,17,17,17,17,17,17,16,17,16,17,17,16,17,17,17,17,17,17,17,17,17,17,16,17,17,16,17,17,17,17,17,17,17,17,17,17,17,17,17,17,16,17,17,16,17],"number_of_frames":120,"aperture_center_x":768,"aperture_center_y":432,"fixation_cross":true,"fixation_cross_width":15,"fixation_cross_height":15,"fixation_cross_color":"#111","fixation_cross_thickness":1,"border":true,"border_thickness":2,"border_color":"transparent","canvas_width":1536,"canvas_height":864,"trial_type":"rdk","trial_index":76,"plugin_version":"2.0.0","time_elapsed":188374},{"rt":1536,"stimulus":"\n        <div class=\"response-container\">\n          <div class=\"response-instruction\">\n            <p>rotate the bar by using the left and right arrow keys.</p>\n            <p>when you are determined, press the Enter key.</p>\n          </div>\n          <div class=\"response-circle\">\n            <div class=\"response-fixation\"></div>\n            <div id=\"bar\" class=\"rotating-bar\"></div>\n          </div>\n        </div>\n      ","response":"Enter","trial_type":"html-keyboard-response","trial_index":77,"plugin_version":"2.1.0","time_elapsed":189910,"random_initial_angle":344,"response_angle_css":382,"response_angle_rdk":68,"angular_error_target":76,"angular_error_distractor":-14,"target_direction":352,"target_group":"black","reward_points":0},{"rt":null,"stimulus":"\n          <p style=\"color: #FF3333;\">Your reward: 0 points</p>\n        ","response":null,"trial_type":"html-keyboard-response","trial_index":78,"plugin_version":"2.1.0","time_elapsed":191917},{"rt":null,"stimulus":"<div class=\"fixation\" style=\"font-size: 60px;\">+</div>","response":null,"trial_type":"html-keyboard-response","trial_index":79,"plugin_version":"2.1.0","time_elapsed":192923},{"phase":"learning-awareness","target_group":"black","condition_label":"B_H_vs_W_L_rep7","target_direction":337,"distractor_direction":81,"session_rotation":228,"rt":-1,"response":"","correct":false,"choices":"ALL_KEYS","correct_choice":["a"],"trial_duration":2000,"flip_timestamps":[],"response_ends_trial":false,"number_of_apertures":200,"number_of_dots":[1,1,1,1,1,1,1,1,1,1,1,1,1,1,1,1,1,1,1,1,1,1,1,1,1,1,1,1,1,1,1,1,1,1,1,1,1,1,1,1,1,1,1,1,1,1,1,1,1,1,1,1,1,1,1,1,1,1,1,1,1,1,1,1,1,1,1,1,1,1,1,1,1,1,1,1,1,1,1,1,1,1,1,1,1,1,1,1,1,1,1,1,1,1,1,1,1,1,1,1,1,1,1,1,1,1,1,1,1,1,1,1,1,1,1,1,1,1,1,1,1,1,1,1,1,1,1,1,1,1,1,1,1,1,1,1,1,1,1,1,1,1,1,1,1,1,1,1,1,1,1,1,1,1,1,1,1,1,1,1,1,1,1,1,1,1,1,1,1,1,1,1,1,1,1,1,1,1,1,1,1,1,1,1,1,1,1,1,1,1,1,1,1,1,1,1,1,1,1,1],"number_of_sets":1,"coherent_direction":[337,337,81,81,337,337,81,81,81,337,337,81,337,337,337,337,81,337,81,337,337,81,337,81,337,81,337,337,337,337,337,81,81,337,337,337,81,337,81,337,337,81,337,337,81,81,337,337,337,81,81,81,337,81,337,81,337,337,81,337,81,337,81,337,81,337,337,81,81,81,81,81,81,81,81,81,337,337,337,81,337,337,81,337,81,81,337,81,81,337,337,81,81,81,81,337,337,337,337,337,81,337,81,81,81,337,81,81,337,81,337,337,337,337,337,81,81,81,337,81,81,81,337,337,81,337,81,81,81,81,337,81,81,81,337,81,81,81,81,337,337,337,81,81,81,81,337,81,81,337,337,81,81,337,81,81,81,81,81,337,81,337,337,81,337,81,337,337,337,81,81,337,81,81,81,337,337,81,337,337,81,81,337,337,337,337,81,337,337,337,81,337,337,81,337,337,81,337,337,81],"coherence":1,"opposite_coherence":0,"dot_radius":2,"dot_side_length":1,"dot_life":-1,"move_distance":1,"aperture_width":300,"aperture_height":300,"dot_color":["black","black","white","white","black","black","white","white","white","black","black","white","black","black","black","black","white","black","white","black","black","white","black","white","black","white","black","black","black","black","black","white","white","black","black","black","white","black","white","black","black","white","black","black","white","white","black","black","black","white","white","white","black","white","black","white","black","black","white","black","white","black","white","black","white","black","black","white","white","white","white","white","white","white","white","white","black","black","black","white","black","black","white","black","white","white","black","white","white","black","black","white","white","white","white","black","black","black","black","black","white","black","white","white","white","black","white","white","black","white","black","black","black","black","black","white","white","white","black","white","white","white","black","black","white","black","white","white","white","white","black","white","white","white","black","white","white","white","white","black","black","black","white","white","white","white","black","white","white","black","black","white","white","black","white","white","white","white","white","black","white","black","black","white","black","white","black","black","black","white","white","black","white","white","white","black","black","white","black","black","white","white","black","black","black","black","white","black","black","black","white","black","black","white","black","black","white","black","black","white"],"dot_shape":"circle","background_color":"#AAA","RDK_type":3,"aperture_type":2,"reinsert_type":2,"frame_rate":16.65,"frame_rate_array":[9,17,17,16,15,17,18,16,16,17,17,16,17,17,16,18,16,18,17,17,15,16,18,15,18,16,17,20,13,17,17,17,18,16,17,16,17,16,17,17,16,17,17,18,17,16,16,17,16,17,18,17,17,17,16,16,17,16,17,17,17,16,18,15,17,17,16,17,17,17,17,16,18,17,17,16,16,17,17,15,18,16,17,17,16,17,17,17,17,15,18,17,17,17,16,17,18,16,16,18,16,17,17,16,17,18,16,17,16,16,17,16,17,16,17,17,16,18,15,18],"number_of_frames":120,"aperture_center_x":768,"aperture_center_y":432,"fixation_cross":true,"fixation_cross_width":15,"fixation_cross_height":15,"fixation_cross_color":"#111","fixation_cross_thickness":1,"border":true,"border_thickness":2,"border_color":"transparent","canvas_width":1536,"canvas_height":864,"trial_type":"rdk","trial_index":80,"plugin_version":"2.0.0","time_elapsed":194926},{"rt":2402,"stimulus":"\n        <div class=\"response-container\">\n          <div class=\"response-instruction\">\n            <p>rotate the bar by using the left and right arrow keys.</p>\n            <p>when you are determined, press the Enter key.</p>\n          </div>\n          <div class=\"response-circle\">\n            <div class=\"response-fixation\"></div>\n            <div id=\"bar\" class=\"rotating-bar\"></div>\n          </div>\n        </div>\n      ","response":"Enter","trial_type":"html-keyboard-response","trial_index":81,"plugin_version":"2.1.0","time_elapsed":197328,"random_initial_angle":118,"response_angle_css":19,"response_angle_rdk":71,"angular_error_target":94,"angular_error_distractor":-10,"target_direction":337,"target_group":"black","reward_points":0},{"rt":null,"stimulus":"\n          <p style=\"color: #FF3333;\">Your reward: 0 points</p>\n        ","response":null,"trial_type":"html-keyboard-response","trial_index":82,"plugin_version":"2.1.0","time_elapsed":199331},{"rt":null,"stimulus":"<div class=\"fixation\" style=\"font-size: 60px;\">+</div>","response":null,"trial_type":"html-keyboard-response","trial_index":83,"plugin_version":"2.1.0","time_elapsed":200338},{"phase":"learning-awareness","target_group":"black","condition_label":"B_H_vs_W_L_rep1","target_direction":325,"distractor_direction":61,"session_rotation":228,"rt":-1,"response":"","correct":false,"choices":"ALL_KEYS","correct_choice":["a"],"trial_duration":2000,"flip_timestamps":[],"response_ends_trial":false,"number_of_apertures":200,"number_of_dots":[1,1,1,1,1,1,1,1,1,1,1,1,1,1,1,1,1,1,1,1,1,1,1,1,1,1,1,1,1,1,1,1,1,1,1,1,1,1,1,1,1,1,1,1,1,1,1,1,1,1,1,1,1,1,1,1,1,1,1,1,1,1,1,1,1,1,1,1,1,1,1,1,1,1,1,1,1,1,1,1,1,1,1,1,1,1,1,1,1,1,1,1,1,1,1,1,1,1,1,1,1,1,1,1,1,1,1,1,1,1,1,1,1,1,1,1,1,1,1,1,1,1,1,1,1,1,1,1,1,1,1,1,1,1,1,1,1,1,1,1,1,1,1,1,1,1,1,1,1,1,1,1,1,1,1,1,1,1,1,1,1,1,1,1,1,1,1,1,1,1,1,1,1,1,1,1,1,1,1,1,1,1,1,1,1,1,1,1,1,1,1,1,1,1,1,1,1,1,1,1],"number_of_sets":1,"coherent_direction":[61,61,325,325,325,325,325,61,325,325,61,61,61,325,61,325,325,325,325,61,325,325,61,325,61,61,325,325,61,61,325,325,61,61,325,325,61,61,325,325,61,325,61,325,325,325,61,61,325,325,325,61,61,325,325,325,325,325,61,325,325,61,61,325,325,61,61,61,325,325,61,61,61,325,325,61,325,61,325,325,61,61,61,61,61,61,61,325,325,61,325,325,61,61,325,325,61,61,61,61,61,325,325,325,61,325,61,325,325,61,61,325,325,61,325,325,325,61,325,61,61,61,61,61,325,325,325,61,325,325,61,61,325,61,325,325,61,61,61,325,325,61,61,61,61,325,325,325,325,61,61,61,61,61,61,325,325,61,61,325,325,61,325,61,61,325,61,61,61,61,61,325,325,325,325,325,325,325,325,61,61,325,325,61,325,61,325,61,61,61,325,61,325,61,61,325,61,61,61,325],"coherence":1,"opposite_coherence":0,"dot_radius":2,"dot_side_length":1,"dot_life":-1,"move_distance":1,"aperture_width":300,"aperture_height":300,"dot_color":["white","white","black","black","black","black","black","white","black","black","white","white","white","black","white","black","black","black","black","white","black","black","white","black","white","white","black","black","white","white","black","black","white","white","black","black","white","white","black","black","white","black","white","black","black","black","white","white","black","black","black","white","white","black","black","black","black","black","white","black","black","white","white","black","black","white","white","white","black","black","white","white","white","black","black","white","black","white","black","black","white","white","white","white","white","white","white","black","black","white","black","black","white","white","black","black","white","white","white","white","white","black","black","black","white","black","white","black","black","white","white","black","black","white","black","black","black","white","black","white","white","white","white","white","black","black","black","white","black","black","white","white","black","white","black","black","white","white","white","black","black","white","white","white","white","black","black","black","black","white","white","white","white","white","white","black","black","white","white","black","black","white","black","white","white","black","white","white","white","white","white","black","black","black","black","black","black","black","black","white","white","black","black","white","black","white","black","white","white","white","black","white","black","white","white","black","white","white","white","black"],"dot_shape":"circle","background_color":"#AAA","RDK_type":3,"aperture_type":2,"reinsert_type":2,"frame_rate":16.675,"frame_rate_array":[9,18,16,17,16,18,17,16,16,17,17,17,16,17,17,17,17,16,17,16,17,17,16,17,17,17,16,17,18,16,17,16,17,18,16,17,15,18,17,16,16,17,17,17,16,18,17,17,15,17,16,18,17,17,17,17,17,16,17,17,17,16,16,16,18,16,17,17,16,18,16,16,17,16,18,18,16,17,16,18,16,17,17,17,17,17,17,16,17,16,18,15,18,17,17,16,18,15,18,16,18,16,16,17,17,15,17,17,17,18,16,16,17,17,16,18,16,17,16,16],"number_of_frames":120,"aperture_center_x":768,"aperture_center_y":432,"fixation_cross":true,"fixation_cross_width":15,"fixation_cross_height":15,"fixation_cross_color":"#111","fixation_cross_thickness":1,"border":true,"border_thickness":2,"border_color":"transparent","canvas_width":1536,"canvas_height":864,"trial_type":"rdk","trial_index":84,"plugin_version":"2.0.0","time_elapsed":202344},{"rt":2715,"stimulus":"\n        <div class=\"response-container\">\n          <div class=\"response-instruction\">\n            <p>rotate the bar by using the left and right arrow keys.</p>\n            <p>when you are determined, press the Enter key.</p>\n          </div>\n          <div class=\"response-circle\">\n            <div class=\"response-fixation\"></div>\n            <div id=\"bar\" class=\"rotating-bar\"></div>\n          </div>\n        </div>\n      ","response":"Enter","trial_type":"html-keyboard-response","trial_index":85,"plugin_version":"2.1.0","time_elapsed":205060,"random_initial_angle":177,"response_angle_css":33,"response_angle_rdk":57,"angular_error_target":92,"angular_error_distractor":-4,"target_direction":325,"target_group":"black","reward_points":0},{"rt":null,"stimulus":"\n          <p style=\"color: #FF3333;\">Your reward: 0 points</p>\n        ","response":null,"trial_type":"html-keyboard-response","trial_index":86,"plugin_version":"2.1.0","time_elapsed":207073},{"rt":null,"stimulus":"<div class=\"fixation\" style=\"font-size: 60px;\">+</div>","response":null,"trial_type":"html-keyboard-response","trial_index":87,"plugin_version":"2.1.0","time_elapsed":208089},{"phase":"learning-awareness","target_group":"black","condition_label":"B_H_vs_W_L_rep21","target_direction":338,"distractor_direction":73,"session_rotation":228,"rt":-1,"response":"","correct":false,"choices":"ALL_KEYS","correct_choice":["a"],"trial_duration":2000,"flip_timestamps":[],"response_ends_trial":false,"number_of_apertures":200,"number_of_dots":[1,1,1,1,1,1,1,1,1,1,1,1,1,1,1,1,1,1,1,1,1,1,1,1,1,1,1,1,1,1,1,1,1,1,1,1,1,1,1,1,1,1,1,1,1,1,1,1,1,1,1,1,1,1,1,1,1,1,1,1,1,1,1,1,1,1,1,1,1,1,1,1,1,1,1,1,1,1,1,1,1,1,1,1,1,1,1,1,1,1,1,1,1,1,1,1,1,1,1,1,1,1,1,1,1,1,1,1,1,1,1,1,1,1,1,1,1,1,1,1,1,1,1,1,1,1,1,1,1,1,1,1,1,1,1,1,1,1,1,1,1,1,1,1,1,1,1,1,1,1,1,1,1,1,1,1,1,1,1,1,1,1,1,1,1,1,1,1,1,1,1,1,1,1,1,1,1,1,1,1,1,1,1,1,1,1,1,1,1,1,1,1,1,1,1,1,1,1,1,1],"number_of_sets":1,"coherent_direction":[73,338,338,338,73,338,73,73,73,338,338,338,338,338,338,73,73,73,338,338,338,338,338,338,338,73,73,338,73,73,73,73,73,338,73,73,338,338,338,338,73,338,73,73,73,338,73,338,338,73,338,338,338,73,73,73,338,338,338,73,73,338,73,73,73,73,338,73,73,73,338,73,73,73,338,73,73,338,338,338,338,73,73,73,338,338,338,73,338,338,338,73,73,73,73,338,338,73,338,73,338,73,338,338,73,73,73,338,338,73,73,73,338,338,338,73,338,73,73,73,73,338,73,338,338,73,338,73,73,73,73,73,73,73,338,73,73,338,73,73,338,338,338,338,338,338,73,73,73,73,338,338,73,338,73,338,73,338,338,338,73,338,338,338,338,338,73,73,338,338,73,73,338,338,73,73,338,338,73,73,338,73,338,338,338,73,338,338,73,73,338,73,73,73,73,338,338,338,338,73],"coherence":1,"opposite_coherence":0,"dot_radius":2,"dot_side_length":1,"dot_life":-1,"move_distance":1,"aperture_width":300,"aperture_height":300,"dot_color":["white","black","black","black","white","black","white","white","white","black","black","black","black","black","black","white","white","white","black","black","black","black","black","black","black","white","white","black","white","white","white","white","white","black","white","white","black","black","black","black","white","black","white","white","white","black","white","black","black","white","black","black","black","white","white","white","black","black","black","white","white","black","white","white","white","white","black","white","white","white","black","white","white","white","black","white","white","black","black","black","black","white","white","white","black","black","black","white","black","black","black","white","white","white","white","black","black","white","black","white","black","white","black","black","white","white","white","black","black","white","white","white","black","black","black","white","black","white","white","white","white","black","white","black","black","white","black","white","white","white","white","white","white","white","black","white","white","black","white","white","black","black","black","black","black","black","white","white","white","white","black","black","white","black","white","black","white","black","black","black","white","black","black","black","black","black","white","white","black","black","white","white","black","black","white","white","black","black","white","white","black","white","black","black","black","white","black","black","white","white","black","white","white","white","white","black","black","black","black","white"],"dot_shape":"circle","background_color":"#AAA","RDK_type":3,"aperture_type":2,"reinsert_type":2,"frame_rate":16.625,"frame_rate_array":[9,16,16,17,17,17,16,15,18,17,15,18,16,16,19,16,17,16,18,17,17,16,17,18,15,17,17,16,18,17,15,18,16,17,17,17,16,18,16,17,17,17,16,17,16,17,16,18,17,16,16,17,18,17,15,18,16,17,18,15,18,16,16,17,15,17,18,15,18,16,17,16,17,16,18,16,16,16,18,17,16,17,17,17,17,16,17,17,17,17,15,18,17,17,16,17,17,17,16,16,16,18,17,17,17,16,16,16,17,17,17,16,17,16,17,17,16,18,15,17],"number_of_frames":120,"aperture_center_x":768,"aperture_center_y":432,"fixation_cross":true,"fixation_cross_width":15,"fixation_cross_height":15,"fixation_cross_color":"#111","fixation_cross_thickness":1,"border":true,"border_thickness":2,"border_color":"transparent","canvas_width":1536,"canvas_height":864,"trial_type":"rdk","trial_index":88,"plugin_version":"2.0.0","time_elapsed":210096},{"rt":1188,"stimulus":"\n        <div class=\"response-container\">\n          <div class=\"response-instruction\">\n            <p>rotate the bar by using the left and right arrow keys.</p>\n            <p>when you are determined, press the Enter key.</p>\n          </div>\n          <div class=\"response-circle\">\n            <div class=\"response-fixation\"></div>\n            <div id=\"bar\" class=\"rotating-bar\"></div>\n          </div>\n        </div>\n      ","response":"Enter","trial_type":"html-keyboard-response","trial_index":89,"plugin_version":"2.1.0","time_elapsed":211283,"random_initial_angle":96,"response_angle_css":126,"response_angle_rdk":324,"angular_error_target":-14,"angular_error_distractor":-109,"target_direction":338,"target_group":"black","reward_points":7},{"rt":null,"stimulus":"\n          <p style=\"color: #00FF00;\">Your reward: 7 points</p>\n        ","response":null,"trial_type":"html-keyboard-response","trial_index":90,"plugin_version":"2.1.0","time_elapsed":213291},{"rt":null,"stimulus":"<div class=\"fixation\" style=\"font-size: 60px;\">+</div>","response":null,"trial_type":"html-keyboard-response","trial_index":91,"plugin_version":"2.1.0","time_elapsed":214302},{"phase":"learning-awareness","target_group":"white","condition_label":"W_H_vs_B_L_rep5","target_direction":239,"distractor_direction":146,"session_rotation":228,"rt":-1,"response":"","correct":false,"choices":"ALL_KEYS","correct_choice":["a"],"trial_duration":2000,"flip_timestamps":[],"response_ends_trial":false,"number_of_apertures":200,"number_of_dots":[1,1,1,1,1,1,1,1,1,1,1,1,1,1,1,1,1,1,1,1,1,1,1,1,1,1,1,1,1,1,1,1,1,1,1,1,1,1,1,1,1,1,1,1,1,1,1,1,1,1,1,1,1,1,1,1,1,1,1,1,1,1,1,1,1,1,1,1,1,1,1,1,1,1,1,1,1,1,1,1,1,1,1,1,1,1,1,1,1,1,1,1,1,1,1,1,1,1,1,1,1,1,1,1,1,1,1,1,1,1,1,1,1,1,1,1,1,1,1,1,1,1,1,1,1,1,1,1,1,1,1,1,1,1,1,1,1,1,1,1,1,1,1,1,1,1,1,1,1,1,1,1,1,1,1,1,1,1,1,1,1,1,1,1,1,1,1,1,1,1,1,1,1,1,1,1,1,1,1,1,1,1,1,1,1,1,1,1,1,1,1,1,1,1,1,1,1,1,1,1],"number_of_sets":1,"coherent_direction":[239,239,146,146,239,146,239,146,239,239,146,146,146,239,239,146,146,239,239,146,146,146,146,146,146,239,146,239,146,146,239,239,239,146,239,239,146,146,239,239,239,239,146,146,239,146,239,239,146,239,239,239,146,239,239,239,239,146,146,146,146,239,146,146,146,146,239,239,146,239,239,146,239,146,239,146,239,146,239,239,146,146,146,146,239,239,239,146,146,146,239,239,146,146,146,239,239,146,239,146,239,239,146,239,239,239,239,146,239,146,146,239,239,239,239,146,239,239,239,146,239,239,239,146,146,239,239,146,146,239,239,239,146,146,146,239,239,146,239,239,146,146,146,146,239,239,239,146,239,146,239,239,146,146,239,239,239,146,239,239,146,146,239,146,239,239,239,146,146,239,146,146,146,146,146,146,146,239,146,239,146,239,239,146,146,146,146,146,239,239,146,146,146,146,239,146,146,146,239,239],"coherence":1,"opposite_coherence":0,"dot_radius":2,"dot_side_length":1,"dot_life":-1,"move_distance":1,"aperture_width":300,"aperture_height":300,"dot_color":["white","white","black","black","white","black","white","black","white","white","black","black","black","white","white","black","black","white","white","black","black","black","black","black","black","white","black","white","black","black","white","white","white","black","white","white","black","black","white","white","white","white","black","black","white","black","white","white","black","white","white","white","black","white","white","white","white","black","black","black","black","white","black","black","black","black","white","white","black","white","white","black","white","black","white","black","white","black","white","white","black","black","black","black","white","white","white","black","black","black","white","white","black","black","black","white","white","black","white","black","white","white","black","white","white","white","white","black","white","black","black","white","white","white","white","black","white","white","white","black","white","white","white","black","black","white","white","black","black","white","white","white","black","black","black","white","white","black","white","white","black","black","black","black","white","white","white","black","white","black","white","white","black","black","white","white","white","black","white","white","black","black","white","black","white","white","white","black","black","white","black","black","black","black","black","black","black","white","black","white","black","white","white","black","black","black","black","black","white","white","black","black","black","black","white","black","black","black","white","white"],"dot_shape":"circle","background_color":"#AAA","RDK_type":3,"aperture_type":2,"reinsert_type":2,"frame_rate":16.675,"frame_rate_array":[9,18,17,16,18,16,16,17,16,18,16,16,17,18,17,16,17,15,18,16,18,17,16,17,17,16,16,18,16,18,16,18,16,18,16,17,16,17,17,17,18,15,16,17,17,18,17,16,16,16,18,17,16,17,16,18,16,17,16,16,18,15,18,16,17,17,16,19,15,17,17,17,17,16,16,19,16,17,17,16,18,17,16,16,17,16,17,16,17,16,18,16,17,16,17,17,17,17,17,17,16,18,15,17,16,18,16,17,17,17,16,17,16,17,17,17,17,16,17,16],"number_of_frames":120,"aperture_center_x":768,"aperture_center_y":432,"fixation_cross":true,"fixation_cross_width":15,"fixation_cross_height":15,"fixation_cross_color":"#111","fixation_cross_thickness":1,"border":true,"border_thickness":2,"border_color":"transparent","canvas_width":1536,"canvas_height":864,"trial_type":"rdk","trial_index":92,"plugin_version":"2.0.0","time_elapsed":216308},{"rt":2607,"stimulus":"\n        <div class=\"response-container\">\n          <div class=\"response-instruction\">\n            <p>rotate the bar by using the left and right arrow keys.</p>\n            <p>when you are determined, press the Enter key.</p>\n          </div>\n          <div class=\"response-circle\">\n            <div class=\"response-fixation\"></div>\n            <div id=\"bar\" class=\"rotating-bar\"></div>\n          </div>\n        </div>\n      ","response":"Enter","trial_type":"html-keyboard-response","trial_index":93,"plugin_version":"2.1.0","time_elapsed":218916,"random_initial_angle":306,"response_angle_css":220,"response_angle_rdk":230,"angular_error_target":-9,"angular_error_distractor":84,"target_direction":239,"target_group":"white","reward_points":8},{"rt":null,"stimulus":"\n          <p style=\"color: #00FF00;\">Your reward: 8 points</p>\n        ","response":null,"trial_type":"html-keyboard-response","trial_index":94,"plugin_version":"2.1.0","time_elapsed":220921},{"rt":null,"stimulus":"<div class=\"fixation\" style=\"font-size: 60px;\">+</div>","response":null,"trial_type":"html-keyboard-response","trial_index":95,"plugin_version":"2.1.0","time_elapsed":221930},{"phase":"learning-awareness","target_group":"black","condition_label":"B_H_vs_W_L_rep20","target_direction":334,"distractor_direction":90,"session_rotation":228,"rt":1879,"response":"ArrowLeft","correct":false,"choices":"ALL_KEYS","correct_choice":["a"],"trial_duration":2000,"flip_timestamps":[],"response_ends_trial":false,"number_of_apertures":200,"number_of_dots":[1,1,1,1,1,1,1,1,1,1,1,1,1,1,1,1,1,1,1,1,1,1,1,1,1,1,1,1,1,1,1,1,1,1,1,1,1,1,1,1,1,1,1,1,1,1,1,1,1,1,1,1,1,1,1,1,1,1,1,1,1,1,1,1,1,1,1,1,1,1,1,1,1,1,1,1,1,1,1,1,1,1,1,1,1,1,1,1,1,1,1,1,1,1,1,1,1,1,1,1,1,1,1,1,1,1,1,1,1,1,1,1,1,1,1,1,1,1,1,1,1,1,1,1,1,1,1,1,1,1,1,1,1,1,1,1,1,1,1,1,1,1,1,1,1,1,1,1,1,1,1,1,1,1,1,1,1,1,1,1,1,1,1,1,1,1,1,1,1,1,1,1,1,1,1,1,1,1,1,1,1,1,1,1,1,1,1,1,1,1,1,1,1,1,1,1,1,1,1,1],"number_of_sets":1,"coherent_direction":[334,334,334,90,334,334,334,90,334,334,334,90,90,90,90,334,334,334,90,334,90,334,334,90,90,90,90,334,90,90,334,90,334,334,334,334,90,334,334,334,90,334,334,334,90,334,334,90,90,334,90,334,334,90,334,90,90,334,334,90,334,334,334,90,90,334,334,90,90,334,334,90,90,90,334,334,334,90,334,90,334,90,334,90,334,334,334,90,90,90,90,334,334,334,334,334,90,334,334,90,90,334,90,334,90,334,90,90,334,90,334,334,90,90,90,90,90,90,334,334,90,334,90,90,334,334,90,334,90,90,90,90,90,90,90,334,334,334,334,334,90,90,90,334,334,334,334,334,334,90,334,334,334,334,90,334,90,90,90,90,90,334,90,90,90,90,334,334,90,334,334,90,334,334,90,90,90,90,90,90,334,90,90,334,90,90,334,90,90,334,90,334,90,334,90,90,90,90,334,90],"coherence":1,"opposite_coherence":0,"dot_radius":2,"dot_side_length":1,"dot_life":-1,"move_distance":1,"aperture_width":300,"aperture_height":300,"dot_color":["black","black","black","white","black","black","black","white","black","black","black","white","white","white","white","black","black","black","white","black","white","black","black","white","white","white","white","black","white","white","black","white","black","black","black","black","white","black","black","black","white","black","black","black","white","black","black","white","white","black","white","black","black","white","black","white","white","black","black","white","black","black","black","white","white","black","black","white","white","black","black","white","white","white","black","black","black","white","black","white","black","white","black","white","black","black","black","white","white","white","white","black","black","black","black","black","white","black","black","white","white","black","white","black","white","black","white","white","black","white","black","black","white","white","white","white","white","white","black","black","white","black","white","white","black","black","white","black","white","white","white","white","white","white","white","black","black","black","black","black","white","white","white","black","black","black","black","black","black","white","black","black","black","black","white","black","white","white","white","white","white","black","white","white","white","white","black","black","white","black","black","white","black","black","white","white","white","white","white","white","black","white","white","black","white","white","black","white","white","black","white","black","white","black","white","white","white","white","black","white"],"dot_shape":"circle","background_color":"#AAA","RDK_type":3,"aperture_type":2,"reinsert_type":2,"frame_rate":16.816666666666666,"frame_rate_array":[13,17,17,17,17,16,17,17,17,17,17,17,17,17,16,17,17,17,17,17,17,17,17,17,17,17,17,17,16,17,17,17,17,17,17,17,17,17,17,17,16,17,17,17,17,17,17,17,17,17,17,17,17,17,17,16,17,17,17,16,17,17,17,16,17,17,16,17,17,16,17,16,17,16,17,17,16,17,17,17,17,17,16,17,16,17,17,17,17,17,17,16,17,17,17,17,17,17,17,16,17,16,17,17,17,17,16,17,17,17,17,17,17,17,17,17,17,17,17,17],"number_of_frames":120,"aperture_center_x":768,"aperture_center_y":432,"fixation_cross":true,"fixation_cross_width":15,"fixation_cross_height":15,"fixation_cross_color":"#111","fixation_cross_thickness":1,"border":true,"border_thickness":2,"border_color":"transparent","canvas_width":1536,"canvas_height":864,"trial_type":"rdk","trial_index":96,"plugin_version":"2.0.0","time_elapsed":223936},{"rt":3742,"stimulus":"\n        <div class=\"response-container\">\n          <div class=\"response-instruction\">\n            <p>rotate the bar by using the left and right arrow keys.</p>\n            <p>when you are determined, press the Enter key.</p>\n          </div>\n          <div class=\"response-circle\">\n            <div class=\"response-fixation\"></div>\n            <div id=\"bar\" class=\"rotating-bar\"></div>\n          </div>\n        </div>\n      ","response":"Enter","trial_type":"html-keyboard-response","trial_index":97,"plugin_version":"2.1.0","time_elapsed":227679,"random_initial_angle":237,"response_angle_css":487,"response_angle_rdk":323,"angular_error_target":-11,"angular_error_distractor":-127,"target_direction":334,"target_group":"black","reward_points":7},{"rt":null,"stimulus":"\n          <p style=\"color: #00FF00;\">Your reward: 7 points</p>\n        ","response":null,"trial_type":"html-keyboard-response","trial_index":98,"plugin_version":"2.1.0","time_elapsed":229690},{"rt":null,"stimulus":"<div class=\"fixation\" style=\"font-size: 60px;\">+</div>","response":null,"trial_type":"html-keyboard-response","trial_index":99,"plugin_version":"2.1.0","time_elapsed":230701},{"phase":"learning-awareness","target_group":"black","condition_label":"B_H_vs_W_L_rep22","target_direction":323,"distractor_direction":79,"session_rotation":228,"rt":-1,"response":"","correct":false,"choices":"ALL_KEYS","correct_choice":["a"],"trial_duration":2000,"flip_timestamps":[],"response_ends_trial":false,"number_of_apertures":200,"number_of_dots":[1,1,1,1,1,1,1,1,1,1,1,1,1,1,1,1,1,1,1,1,1,1,1,1,1,1,1,1,1,1,1,1,1,1,1,1,1,1,1,1,1,1,1,1,1,1,1,1,1,1,1,1,1,1,1,1,1,1,1,1,1,1,1,1,1,1,1,1,1,1,1,1,1,1,1,1,1,1,1,1,1,1,1,1,1,1,1,1,1,1,1,1,1,1,1,1,1,1,1,1,1,1,1,1,1,1,1,1,1,1,1,1,1,1,1,1,1,1,1,1,1,1,1,1,1,1,1,1,1,1,1,1,1,1,1,1,1,1,1,1,1,1,1,1,1,1,1,1,1,1,1,1,1,1,1,1,1,1,1,1,1,1,1,1,1,1,1,1,1,1,1,1,1,1,1,1,1,1,1,1,1,1,1,1,1,1,1,1,1,1,1,1,1,1,1,1,1,1,1,1],"number_of_sets":1,"coherent_direction":[323,323,79,79,323,323,323,79,323,323,79,79,323,79,323,79,79,79,79,323,323,79,323,79,79,323,323,323,79,323,323,323,79,323,79,323,79,79,79,323,79,79,79,323,79,323,79,323,323,79,323,323,79,323,323,323,79,323,79,79,79,323,79,323,323,323,323,79,79,323,323,323,79,323,323,323,79,79,79,79,323,323,79,323,323,323,79,79,323,79,323,79,323,79,323,323,79,323,323,79,79,79,323,79,323,323,79,79,79,323,323,79,323,79,323,79,79,79,79,79,79,79,79,323,323,79,323,79,79,79,323,323,323,323,79,79,79,323,323,79,323,323,323,323,79,323,323,323,79,79,79,79,79,323,79,323,79,323,323,323,79,323,79,79,79,79,323,323,323,79,79,323,79,79,79,323,79,79,79,79,79,79,79,79,79,323,323,323,323,323,323,323,79,323,323,79,79,323,323,323],"coherence":1,"opposite_coherence":0,"dot_radius":2,"dot_side_length":1,"dot_life":-1,"move_distance":1,"aperture_width":300,"aperture_height":300,"dot_color":["black","black","white","white","black","black","black","white","black","black","white","white","black","white","black","white","white","white","white","black","black","white","black","white","white","black","black","black","white","black","black","black","white","black","white","black","white","white","white","black","white","white","white","black","white","black","white","black","black","white","black","black","white","black","black","black","white","black","white","white","white","black","white","black","black","black","black","white","white","black","black","black","white","black","black","black","white","white","white","white","black","black","white","black","black","black","white","white","black","white","black","white","black","white","black","black","white","black","black","white","white","white","black","white","black","black","white","white","white","black","black","white","black","white","black","white","white","white","white","white","white","white","white","black","black","white","black","white","white","white","black","black","black","black","white","white","white","black","black","white","black","black","black","black","white","black","black","black","white","white","white","white","white","black","white","black","white","black","black","black","white","black","white","white","white","white","black","black","black","white","white","black","white","white","white","black","white","white","white","white","white","white","white","white","white","black","black","black","black","black","black","black","white","black","black","white","white","black","black","black"],"dot_shape":"circle","background_color":"#AAA","RDK_type":3,"aperture_type":2,"reinsert_type":2,"frame_rate":16.644628099173552,"frame_rate_array":[9,17,16,16,16,18,16,17,17,16,17,18,16,17,16,19,15,17,17,17,16,16,18,16,16,17,16,16,18,17,15,17,18,17,15,17,17,18,16,17,17,16,17,16,17,17,16,18,16,17,17,18,16,17,16,17,17,18,16,16,17,16,17,17,15,18,16,17,17,16,17,17,16,17,17,15,19,16,17,17,17,16,17,16,18,17,17,16,18,15,20,15,17,16,16,17,17,16,17,15,18,17,16,17,17,17,16,17,15,17,18,17,16,15,18,18,17,16,16,17,17],"number_of_frames":121,"aperture_center_x":768,"aperture_center_y":432,"fixation_cross":true,"fixation_cross_width":15,"fixation_cross_height":15,"fixation_cross_color":"#111","fixation_cross_thickness":1,"border":true,"border_thickness":2,"border_color":"transparent","canvas_width":1536,"canvas_height":864,"trial_type":"rdk","trial_index":100,"plugin_version":"2.0.0","time_elapsed":232714},{"rt":3481,"stimulus":"\n        <div class=\"response-container\">\n          <div class=\"response-instruction\">\n            <p>rotate the bar by using the left and right arrow keys.</p>\n            <p>when you are determined, press the Enter key.</p>\n          </div>\n          <div class=\"response-circle\">\n            <div class=\"response-fixation\"></div>\n            <div id=\"bar\" class=\"rotating-bar\"></div>\n          </div>\n        </div>\n      ","response":"Enter","trial_type":"html-keyboard-response","trial_index":101,"plugin_version":"2.1.0","time_elapsed":236196,"random_initial_angle":187,"response_angle_css":-3,"response_angle_rdk":93,"angular_error_target":130,"angular_error_distractor":14,"target_direction":323,"target_group":"black","reward_points":0},{"rt":null,"stimulus":"\n          <p style=\"color: #FF3333;\">Your reward: 0 points</p>\n        ","response":null,"trial_type":"html-keyboard-response","trial_index":102,"plugin_version":"2.1.0","time_elapsed":238201},{"rt":null,"stimulus":"<div class=\"fixation\" style=\"font-size: 60px;\">+</div>","response":null,"trial_type":"html-keyboard-response","trial_index":103,"plugin_version":"2.1.0","time_elapsed":239209},{"phase":"learning-awareness","target_group":"white","condition_label":"W_H_vs_B_L_rep10","target_direction":256,"distractor_direction":155,"session_rotation":228,"rt":-1,"response":"","correct":false,"choices":"ALL_KEYS","correct_choice":["a"],"trial_duration":2000,"flip_timestamps":[],"response_ends_trial":false,"number_of_apertures":200,"number_of_dots":[1,1,1,1,1,1,1,1,1,1,1,1,1,1,1,1,1,1,1,1,1,1,1,1,1,1,1,1,1,1,1,1,1,1,1,1,1,1,1,1,1,1,1,1,1,1,1,1,1,1,1,1,1,1,1,1,1,1,1,1,1,1,1,1,1,1,1,1,1,1,1,1,1,1,1,1,1,1,1,1,1,1,1,1,1,1,1,1,1,1,1,1,1,1,1,1,1,1,1,1,1,1,1,1,1,1,1,1,1,1,1,1,1,1,1,1,1,1,1,1,1,1,1,1,1,1,1,1,1,1,1,1,1,1,1,1,1,1,1,1,1,1,1,1,1,1,1,1,1,1,1,1,1,1,1,1,1,1,1,1,1,1,1,1,1,1,1,1,1,1,1,1,1,1,1,1,1,1,1,1,1,1,1,1,1,1,1,1,1,1,1,1,1,1,1,1,1,1,1,1],"number_of_sets":1,"coherent_direction":[256,155,155,256,155,155,256,256,155,155,256,256,155,155,256,256,155,155,256,256,155,256,256,155,256,256,256,256,256,256,256,155,155,256,155,256,256,155,155,155,155,256,155,256,155,155,256,256,256,155,155,155,155,256,155,155,155,155,155,155,256,256,256,256,155,256,256,256,155,155,256,256,155,155,155,155,155,155,256,256,256,155,155,256,155,155,155,256,256,155,155,256,155,256,155,256,155,155,155,256,256,256,256,256,155,155,256,155,256,155,256,155,256,256,256,155,256,256,155,155,256,256,256,155,256,256,256,256,155,256,256,256,155,256,155,155,256,155,256,256,155,256,155,256,155,256,256,256,155,155,155,155,155,256,256,256,155,256,155,155,155,256,256,155,155,256,256,155,155,155,256,256,256,256,256,155,155,155,256,155,155,256,155,256,155,155,256,155,256,155,155,155,155,256,256,155,155,256,256,155],"coherence":1,"opposite_coherence":0,"dot_radius":2,"dot_side_length":1,"dot_life":-1,"move_distance":1,"aperture_width":300,"aperture_height":300,"dot_color":["white","black","black","white","black","black","white","white","black","black","white","white","black","black","white","white","black","black","white","white","black","white","white","black","white","white","white","white","white","white","white","black","black","white","black","white","white","black","black","black","black","white","black","white","black","black","white","white","white","black","black","black","black","white","black","black","black","black","black","black","white","white","white","white","black","white","white","white","black","black","white","white","black","black","black","black","black","black","white","white","white","black","black","white","black","black","black","white","white","black","black","white","black","white","black","white","black","black","black","white","white","white","white","white","black","black","white","black","white","black","white","black","white","white","white","black","white","white","black","black","white","white","white","black","white","white","white","white","black","white","white","white","black","white","black","black","white","black","white","white","black","white","black","white","black","white","white","white","black","black","black","black","black","white","white","white","black","white","black","black","black","white","white","black","black","white","white","black","black","black","white","white","white","white","white","black","black","black","white","black","black","white","black","white","black","black","white","black","white","black","black","black","black","white","white","black","black","white","white","black"],"dot_shape":"circle","background_color":"#AAA","RDK_type":3,"aperture_type":2,"reinsert_type":2,"frame_rate":16.825,"frame_rate_array":[17,16,17,17,17,17,16,17,17,17,17,16,17,17,17,17,17,17,17,17,17,17,17,16,17,17,17,16,17,17,17,17,17,16,17,16,17,17,17,17,17,17,17,17,16,17,16,16,17,17,17,16,17,17,17,16,17,17,17,17,17,17,17,17,17,17,17,17,17,17,17,17,17,17,17,17,17,16,17,17,17,17,17,17,17,17,17,17,17,17,17,17,17,16,17,17,17,17,17,17,16,17,16,17,16,17,16,17,17,16,17,17,17,17,17,16,17,16,17,17],"number_of_frames":120,"aperture_center_x":768,"aperture_center_y":432,"fixation_cross":true,"fixation_cross_width":15,"fixation_cross_height":15,"fixation_cross_color":"#111","fixation_cross_thickness":1,"border":true,"border_thickness":2,"border_color":"transparent","canvas_width":1536,"canvas_height":864,"trial_type":"rdk","trial_index":104,"plugin_version":"2.0.0","time_elapsed":241210},{"rt":3523,"stimulus":"\n        <div class=\"response-container\">\n          <div class=\"response-instruction\">\n            <p>rotate the bar by using the left and right arrow keys.</p>\n            <p>when you are determined, press the Enter key.</p>\n          </div>\n          <div class=\"response-circle\">\n            <div class=\"response-fixation\"></div>\n            <div id=\"bar\" class=\"rotating-bar\"></div>\n          </div>\n        </div>\n      ","response":"Enter","trial_type":"html-keyboard-response","trial_index":105,"plugin_version":"2.1.0","time_elapsed":244734,"random_initial_angle":90,"response_angle_css":-70,"response_angle_rdk":160,"angular_error_target":-96,"angular_error_distractor":5,"target_direction":256,"target_group":"white","reward_points":0},{"rt":null,"stimulus":"\n          <p style=\"color: #FF3333;\">Your reward: 0 points</p>\n        ","response":null,"trial_type":"html-keyboard-response","trial_index":106,"plugin_version":"2.1.0","time_elapsed":246744},{"rt":null,"stimulus":"<div class=\"fixation\" style=\"font-size: 60px;\">+</div>","response":null,"trial_type":"html-keyboard-response","trial_index":107,"plugin_version":"2.1.0","time_elapsed":247756