[{"rt":2442,"stimulus":"Welcome to the experiment. Press any key to begin.","response":"j","trial_type":"html-keyboard-response","trial_index":0,"plugin_version":"2.1.0","time_elapsed":2445},{"rt":137683,"stimulus":"\n        <div class=\"instructions-container\">\n          <h2>Instructions</h2>\n\n          <p>\n          In this experiment, you will see <strong>two Random Dot Kinematograms (RDKs)</strong> displayed simultaneously.\n          </p>\n\n          <p>\n          An RDK is a visual stimulus consisting of many small dots that move coherently in a single direction. \n          In this experiment, the dots will be either <strong>white</strong> or <strong>black</strong> \n          (see the short demo below for an example of an RDK stimulus).\n          </p>\n\n          <p>\n          On each trial, the two RDKs will move in different directions. \n          Your task is to decide <strong>which RDK appears to contain more dots</strong>.\n          </p>\n\n          <p>\n          The RDK that you judge to have more dots is called the <strong>target RDK</strong>. \n          For example, if the white RDK appears to have more dots than the black RDK, \n          you should report the motion direction of the white RDK.\n          </p>\n\n          <p>\n          After viewing the RDKs, you will rotate a bar to indicate the perceived direction of the target RDK \n          using the <strong>left</strong> and <strong>right arrow keys</strong>. \n          Press <strong>Enter</strong> when you are satisfied with your response.\n          </p>\n\n          <p>\n          You will receive points based on the <strong>accuracy of your response</strong>, \n          and your final <strong>bonus reward</strong> may depend on your overall performance. \n          Please try to respond as accurately as possible.\n          </p>\n\n          <p>\n          You will first complete <strong>three practice trials</strong>. \n          Press the <strong>Enter</strong> key to start the practice phase.\n          </p>\n\n          <canvas id=\"instruction-demo-rdk\" width=\"300\" height=\"300\"style=\"display:block;margin:12px auto; border-radius: 50%;\"></canvas>\n        </div>\n      ","response":"Enter","trial_type":"html-keyboard-response","trial_index":1,"plugin_version":"2.1.0","time_elapsed":140131},{"rt":null,"stimulus":"<div class=\"fixation\" style=\"font-size: 60px;\">+</div>","response":null,"trial_type":"html-keyboard-response","trial_index":2,"plugin_version":"2.1.0","time_elapsed":141135},{"target_group":"black","target_index":1,"condition_label":"B_H_vs_W_L","rt":-1,"response":"","correct":false,"choices":"ALL_KEYS","correct_choice":["a"],"trial_duration":2000,"flip_timestamps":[],"response_ends_trial":false,"number_of_apertures":2,"number_of_dots":[50,100],"number_of_sets":1,"coherent_direction":[10,100],"coherence":1,"opposite_coherence":0,"dot_radius":2,"dot_side_length":1,"dot_life":-1,"move_distance":1,"aperture_width":300,"aperture_height":300,"dot_color":["white","black"],"dot_shape":"circle","background_color":"#AAA","RDK_type":3,"aperture_type":2,"reinsert_type":2,"frame_rate":16.775,"frame_rate_array":[14,17,17,17,17,17,17,17,17,17,17,17,16,17,17,17,17,17,17,16,17,17,17,16,17,16,16,17,17,17,17,17,17,17,17,17,17,16,17,17,17,16,17,16,17,16,17,17,17,17,17,16,17,17,17,16,16,17,17,17,17,16,17,17,16,17,17,17,17,16,17,16,17,17,17,17,16,17,17,16,17,17,17,17,18,16,17,16,17,17,16,17,17,17,17,17,17,17,17,16,17,17,17,17,17,17,17,16,17,17,17,17,17,16,17,17,17,16,17,17],"number_of_frames":120,"aperture_center_x":800,"aperture_center_y":450,"fixation_cross":true,"fixation_cross_width":15,"fixation_cross_height":15,"fixation_cross_color":"#111","fixation_cross_thickness":1,"border":true,"border_thickness":2,"border_color":"transparent","canvas_width":1600,"canvas_height":900,"trial_type":"rdk","trial_index":3,"plugin_version":"2.0.0","time_elapsed":143149,"target_direction":100,"distractor_direction":10},{"rt":10200,"stimulus":"\n        <div class=\"response-container\">\n          <div class=\"response-instruction\">\n            <p>rotate the bar by using the left and right arrow keys.</p>\n            <p>when you are determined, press the Enter key.</p>\n          </div>\n          <div class=\"response-circle\">\n            <div class=\"response-fixation\"></div>\n            <div id=\"bar\" class=\"rotating-bar\"></div>\n          </div>\n        </div>\n      ","response":"Enter","trial_type":"html-keyboard-response","trial_index":4,"plugin_version":"2.1.0","time_elapsed":153351,"response_angle_css":-48,"response_angle_rdk":138,"angular_error_target":38,"angular_error_distractor":128,"target_direction":100,"target_group":"black","reward_points":2},{"rt":null,"stimulus":"\n          <p style=\"color: #FF3333;\">Your reward: 2 points</p>\n        ","response":null,"trial_type":"html-keyboard-response","trial_index":5,"plugin_version":"2.1.0","time_elapsed":155352},{"rt":null,"stimulus":"<div class=\"fixation\" style=\"font-size: 60px;\">+</div>","response":null,"trial_type":"html-keyboard-response","trial_index":6,"plugin_version":"2.1.0","time_elapsed":156367},{"target_group":"white","target_index":0,"condition_label":"W_H_vs_B_L","rt":-1,"response":"","correct":false,"choices":"ALL_KEYS","correct_choice":["a"],"trial_duration":2000,"flip_timestamps":[],"response_ends_trial":false,"number_of_apertures":2,"number_of_dots":[100,50],"number_of_sets":1,"coherent_direction":[150,30],"coherence":1,"opposite_coherence":0,"dot_radius":2,"dot_side_length":1,"dot_life":-1,"move_distance":1,"aperture_width":300,"aperture_height":300,"dot_color":["white","black"],"dot_shape":"circle","background_color":"#AAA","RDK_type":3,"aperture_type":2,"reinsert_type":2,"frame_rate":16.66115702479339,"frame_rate_array":[3,17,17,17,17,16,17,17,17,17,17,17,17,16,17,17,17,17,17,16,16,17,17,17,17,16,17,17,17,17,17,17,17,17,16,17,16,17,17,17,16,16,18,16,17,17,17,16,17,17,17,16,17,17,17,16,17,17,17,17,17,17,17,16,17,17,17,17,17,17,17,16,17,17,16,16,18,17,16,17,16,18,17,17,17,17,16,17,17,17,17,17,16,16,17,16,17,17,16,17,16,17,17,17,17,17,17,16,16,17,17,17,16,17,17,17,16,17,17,17,16],"number_of_frames":121,"aperture_center_x":800,"aperture_center_y":450,"fixation_cross":true,"fixation_cross_width":15,"fixation_cross_height":15,"fixation_cross_color":"#111","fixation_cross_thickness":1,"border":true,"border_thickness":2,"border_color":"transparent","canvas_width":1600,"canvas_height":900,"trial_type":"rdk","trial_index":7,"plugin_version":"2.0.0","time_elapsed":158378,"target_direction":150,"distractor_direction":30},{"rt":4014,"stimulus":"\n        <div class=\"response-container\">\n          <div class=\"response-instruction\">\n            <p>rotate the bar by using the left and right arrow keys.</p>\n            <p>when you are determined, press the Enter key.</p>\n          </div>\n          <div class=\"response-circle\">\n            <div class=\"response-fixation\"></div>\n            <div id=\"bar\" class=\"rotating-bar\"></div>\n          </div>\n        </div>\n      ","response":"Enter","trial_type":"html-keyboard-response","trial_index":8,"plugin_version":"2.1.0","time_elapsed":162394,"response_angle_css":-55,"response_angle_rdk":145,"angular_error_target":-5,"angular_error_distractor":115,"target_direction":150,"target_group":"white","reward_points":9},{"rt":null,"stimulus":"\n          <p style=\"color: #00FF00;\">Your reward: 9 points</p>\n        ","response":null,"trial_type":"html-keyboard-response","trial_index":9,"plugin_version":"2.1.0","time_elapsed":164406},{"rt":null,"stimulus":"<div class=\"fixation\" style=\"font-size: 60px;\">+</div>","response":null,"trial_type":"html-keyboard-response","trial_index":10,"plugin_version":"2.1.0","time_elapsed":165418},{"target_group":"black","target_index":1,"condition_label":"B_H_vs_W_L","rt":-1,"response":"","correct":false,"choices":"ALL_KEYS","correct_choice":["a"],"trial_duration":2000,"flip_timestamps":[],"response_ends_trial":false,"number_of_apertures":2,"number_of_dots":[50,100],"number_of_sets":1,"coherent_direction":[270,180],"coherence":1,"opposite_coherence":0,"dot_radius":2,"dot_side_length":1,"dot_life":-1,"move_distance":1,"aperture_width":300,"aperture_height":300,"dot_color":["white","black"],"dot_shape":"circle","background_color":"#AAA","RDK_type":3,"aperture_type":2,"reinsert_type":2,"frame_rate":16.625,"frame_rate_array":[6,13,17,17,16,17,17,17,16,17,16,17,17,17,16,17,17,17,16,17,16,17,17,16,17,16,17,17,16,17,16,17,16,17,17,17,16,17,17,17,17,17,16,17,17,16,17,17,17,16,17,16,17,17,17,17,17,16,17,17,17,17,17,17,17,16,17,17,17,17,17,17,17,17,17,17,17,17,17,17,16,16,17,17,17,17,16,17,16,17,17,17,16,17,17,16,17,17,16,16,17,17,17,16,17,17,17,17,17,17,17,17,16,17,17,17,16,17,16,17],"number_of_frames":120,"aperture_center_x":800,"aperture_center_y":450,"fixation_cross":true,"fixation_cross_width":15,"fixation_cross_height":15,"fixation_cross_color":"#111","fixation_cross_thickness":1,"border":true,"border_thickness":2,"border_color":"transparent","canvas_width":1600,"canvas_height":900,"trial_type":"rdk","trial_index":11,"plugin_version":"2.0.0","time_elapsed":167426,"target_direction":180,"distractor_direction":270},{"rt":4777,"stimulus":"\n        <div class=\"response-container\">\n          <div class=\"response-instruction\">\n            <p>rotate the bar by using the left and right arrow keys.</p>\n            <p>when you are determined, press the Enter key.</p>\n          </div>\n          <div class=\"response-circle\">\n            <div class=\"response-fixation\"></div>\n            <div id=\"bar\" class=\"rotating-bar\"></div>\n          </div>\n        </div>\n      ","response":"Enter","trial_type":"html-keyboard-response","trial_index":12,"plugin_version":"2.1.0","time_elapsed":172206,"response_angle_css":-87,"response_angle_rdk":177,"angular_error_target":-3,"angular_error_distractor":-93,"target_direction":180,"target_group":"black","reward_points":9},{"rt":null,"stimulus":"\n          <p style=\"color: #00FF00;\">Your reward: 9 points</p>\n        ","response":null,"trial_type":"html-keyboard-response","trial_index":13,"plugin_version":"2.1.0","time_elapsed":174214},{"rt":1905,"stimulus":"\n        <div class=\"instructions-container\">\n          <h2>End of Practice</h2>\n          <p>You have completed the practice trials.</p>\n          <p>Press <strong>Enter</strong> key to begin the main experiment.</p>\n        </div>\n      ","response":"Enter","trial_type":"html-keyboard-response","trial_index":14,"plugin_version":"2.1.0","time_elapsed":176120},{"rt":null,"stimulus":"<div class=\"fixation\" style=\"font-size: 60px;\">+</div>","response":null,"trial_type":"html-keyboard-response","trial_index":15,"plugin_version":"2.1.0","time_elapsed":177133},{"target_group":"black","condition_label":"B_H_vs_W_L_rep8","target_direction":22,"distractor_direction":117,"session_rotation":277,"rt":-1,"response":"","correct":false,"choices":"ALL_KEYS","correct_choice":["a"],"trial_duration":2000,"flip_timestamps":[],"response_ends_trial":false,"number_of_apertures":200,"number_of_dots":[1,1,1,1,1,1,1,1,1,1,1,1,1,1,1,1,1,1,1,1,1,1,1,1,1,1,1,1,1,1,1,1,1,1,1,1,1,1,1,1,1,1,1,1,1,1,1,1,1,1,1,1,1,1,1,1,1,1,1,1,1,1,1,1,1,1,1,1,1,1,1,1,1,1,1,1,1,1,1,1,1,1,1,1,1,1,1,1,1,1,1,1,1,1,1,1,1,1,1,1,1,1,1,1,1,1,1,1,1,1,1,1,1,1,1,1,1,1,1,1,1,1,1,1,1,1,1,1,1,1,1,1,1,1,1,1,1,1,1,1,1,1,1,1,1,1,1,1,1,1,1,1,1,1,1,1,1,1,1,1,1,1,1,1,1,1,1,1,1,1,1,1,1,1,1,1,1,1,1,1,1,1,1,1,1,1,1,1,1,1,1,1,1,1,1,1,1,1,1,1],"number_of_sets":1,"coherent_direction":[117,22,22,117,22,117,117,117,22,22,117,22,117,117,117,117,117,117,117,22,117,22,117,22,22,22,117,22,22,117,117,22,117,117,117,22,117,117,117,22,22,22,117,22,117,117,22,117,22,117,117,117,117,117,117,117,22,117,22,117,117,22,22,22,117,22,117,22,22,117,117,22,22,22,22,117,22,22,117,117,22,22,22,22,117,22,117,117,22,22,22,22,117,117,22,22,117,117,117,117,117,117,117,22,22,22,22,117,117,117,22,22,22,117,22,117,117,117,117,22,22,117,22,117,117,117,22,22,22,117,22,117,117,117,117,22,117,22,22,117,117,117,117,22,22,117,22,22,117,22,22,22,22,22,22,117,117,22,22,117,117,22,22,22,22,22,22,117,117,117,117,117,117,117,22,22,117,22,117,117,22,22,117,117,117,117,22,22,117,22,22,22,22,22,22,22,22,22,22,22],"coherence":1,"opposite_coherence":0,"dot_radius":2,"dot_side_length":1,"dot_life":-1,"move_distance":1,"aperture_width":300,"aperture_height":300,"dot_color":["white","black","black","white","black","white","white","white","black","black","white","black","white","white","white","white","white","white","white","black","white","black","white","black","black","black","white","black","black","white","white","black","white","white","white","black","white","white","white","black","black","black","white","black","white","white","black","white","black","white","white","white","white","white","white","white","black","white","black","white","white","black","black","black","white","black","white","black","black","white","white","black","black","black","black","white","black","black","white","white","black","black","black","black","white","black","white","white","black","black","black","black","white","white","black","black","white","white","white","white","white","white","white","black","black","black","black","white","white","white","black","black","black","white","black","white","white","white","white","black","black","white","black","white","white","white","black","black","black","white","black","white","white","white","white","black","white","black","black","white","white","white","white","black","black","white","black","black","white","black","black","black","black","black","black","white","white","black","black","white","white","black","black","black","black","black","black","white","white","white","white","white","white","white","black","black","white","black","white","white","black","black","white","white","white","white","black","black","white","black","black","black","black","black","black","black","black","black","black","black"],"dot_shape":"circle","background_color":"#AAA","RDK_type":3,"aperture_type":2,"reinsert_type":2,"frame_rate":16.58677685950413,"frame_rate_array":[4,16,17,18,17,15,18,17,17,17,18,16,15,16,17,17,17,17,18,16,16,17,16,17,17,17,17,17,16,17,17,16,16,18,17,15,16,25,8,17,17,17,16,17,17,17,17,17,16,17,16,17,17,16,17,16,17,17,17,17,16,16,17,16,17,17,17,17,16,17,17,16,17,17,17,16,17,16,17,17,16,17,16,17,17,16,17,17,16,16,18,17,17,16,17,17,17,16,17,17,16,17,17,16,18,16,17,16,17,17,16,17,17,17,17,16,15,18,16,17,17],"number_of_frames":121,"aperture_center_x":800,"aperture_center_y":450,"fixation_cross":true,"fixation_cross_width":15,"fixation_cross_height":15,"fixation_cross_color":"#111","fixation_cross_thickness":1,"border":true,"border_thickness":2,"border_color":"transparent","canvas_width":1600,"canvas_height":900,"trial_type":"rdk","trial_index":16,"plugin_version":"2.0.0","time_elapsed":179145},{"rt":2911,"stimulus":"\n        <div class=\"response-container\">\n          <div class=\"response-instruction\">\n            <p>rotate the bar by using the left and right arrow keys.</p>\n            <p>when you are determined, press the Enter key.</p>\n          </div>\n          <div class=\"response-circle\">\n            <div class=\"response-fixation\"></div>\n            <div id=\"bar\" class=\"rotating-bar\"></div>\n          </div>\n        </div>\n      ","response":"Enter","trial_type":"html-keyboard-response","trial_index":17,"plugin_version":"2.1.0","time_elapsed":182057,"response_angle_css":297,"response_angle_rdk":153,"angular_error_target":131,"angular_error_distractor":36,"target_direction":22,"target_group":"black","reward_points":0},{"rt":null,"stimulus":"\n          <p style=\"color: #FF3333;\">Your reward: 0 points</p>\n        ","response":null,"trial_type":"html-keyboard-response","trial_index":18,"plugin_version":"2.1.0","time_elapsed":184066},{"rt":null,"stimulus":"<div class=\"fixation\" style=\"font-size: 60px;\">+</div>","response":null,"trial_type":"html-keyboard-response","trial_index":19,"plugin_version":"2.1.0","time_elapsed":185082},{"target_group":"white","condition_label":"W_H_vs_B_L_rep14","target_direction":314,"distractor_direction":216,"session_rotation":277,"rt":-1,"response":"","correct":false,"choices":"ALL_KEYS","correct_choice":["a"],"trial_duration":2000,"flip_timestamps":[],"response_ends_trial":false,"number_of_apertures":200,"number_of_dots":[1,1,1,1,1,1,1,1,1,1,1,1,1,1,1,1,1,1,1,1,1,1,1,1,1,1,1,1,1,1,1,1,1,1,1,1,1,1,1,1,1,1,1,1,1,1,1,1,1,1,1,1,1,1,1,1,1,1,1,1,1,1,1,1,1,1,1,1,1,1,1,1,1,1,1,1,1,1,1,1,1,1,1,1,1,1,1,1,1,1,1,1,1,1,1,1,1,1,1,1,1,1,1,1,1,1,1,1,1,1,1,1,1,1,1,1,1,1,1,1,1,1,1,1,1,1,1,1,1,1,1,1,1,1,1,1,1,1,1,1,1,1,1,1,1,1,1,1,1,1,1,1,1,1,1,1,1,1,1,1,1,1,1,1,1,1,1,1,1,1,1,1,1,1,1,1,1,1,1,1,1,1,1,1,1,1,1,1,1,1,1,1,1,1,1,1,1,1,1,1],"number_of_sets":1,"coherent_direction":[216,314,314,216,216,314,314,314,314,314,216,216,216,216,216,314,216,314,216,216,216,216,314,216,216,314,314,216,314,216,314,314,314,216,314,216,314,314,216,216,314,314,216,216,314,216,314,314,216,314,216,216,216,216,216,216,314,216,314,216,314,314,314,314,314,216,216,216,314,314,314,314,216,216,216,216,314,314,216,314,314,216,314,216,216,216,216,314,216,314,216,314,314,314,216,314,314,314,216,216,314,216,216,216,216,216,314,216,216,314,216,314,314,216,314,314,216,216,314,314,314,314,314,216,216,216,314,314,314,216,314,216,314,314,314,216,216,216,314,314,216,216,216,314,216,314,216,216,314,216,314,314,314,314,216,314,216,314,216,314,314,314,314,216,314,216,314,216,314,314,314,314,216,314,216,216,314,314,216,216,216,314,216,216,314,216,216,216,314,314,216,216,216,314,314,314,216,216,314,216],"coherence":1,"opposite_coherence":0,"dot_radius":2,"dot_side_length":1,"dot_life":-1,"move_distance":1,"aperture_width":300,"aperture_height":300,"dot_color":["black","white","white","black","black","white","white","white","white","white","black","black","black","black","black","white","black","white","black","black","black","black","white","black","black","white","white","black","white","black","white","white","white","black","white","black","white","white","black","black","white","white","black","black","white","black","white","white","black","white","black","black","black","black","black","black","white","black","white","black","white","white","white","white","white","black","black","black","white","white","white","white","black","black","black","black","white","white","black","white","white","black","white","black","black","black","black","white","black","white","black","white","white","white","black","white","white","white","black","black","white","black","black","black","black","black","white","black","black","white","black","white","white","black","white","white","black","black","white","white","white","white","white","black","black","black","white","white","white","black","white","black","white","white","white","black","black","black","white","white","black","black","black","white","black","white","black","black","white","black","white","white","white","white","black","white","black","white","black","white","white","white","white","black","white","black","white","black","white","white","white","white","black","white","black","black","white","white","black","black","black","white","black","black","white","black","black","black","white","white","black","black","black","white","white","white","black","black","white","black"],"dot_shape":"circle","background_color":"#AAA","RDK_type":3,"aperture_type":2,"reinsert_type":2,"frame_rate":16.6,"frame_rate_array":[6,14,18,16,16,16,17,16,17,17,16,17,16,17,16,16,17,17,17,17,16,17,17,18,16,17,17,17,17,17,15,16,17,17,17,17,17,17,17,16,17,16,17,17,17,17,16,18,16,17,17,17,17,17,16,17,17,16,16,17,17,17,16,18,16,17,16,17,17,16,17,17,17,17,18,16,17,17,16,17,17,17,16,17,17,17,17,16,17,18,16,17,17,17,17,17,16,16,17,16,16,17,17,17,16,16,17,17,17,17,16,16,17,17,17,17,16,17,16,16],"number_of_frames":120,"aperture_center_x":800,"aperture_center_y":450,"fixation_cross":true,"fixation_cross_width":15,"fixation_cross_height":15,"fixation_cross_color":"#111","fixation_cross_thickness":1,"border":true,"border_thickness":2,"border_color":"transparent","canvas_width":1600,"canvas_height":900,"trial_type":"rdk","trial_index":20,"plugin_version":"2.0.0","time_elapsed":187089},{"rt":1811,"stimulus":"\n        <div class=\"response-container\">\n          <div class=\"response-instruction\">\n            <p>rotate the bar by using the left and right arrow keys.</p>\n            <p>when you are determined, press the Enter key.</p>\n          </div>\n          <div class=\"response-circle\">\n            <div class=\"response-fixation\"></div>\n            <div id=\"bar\" class=\"rotating-bar\"></div>\n          </div>\n        </div>\n      ","response":"Enter","trial_type":"html-keyboard-response","trial_index":21,"plugin_version":"2.1.0","time_elapsed":188902,"response_angle_css":253,"response_angle_rdk":197,"angular_error_target":-117,"angular_error_distractor":-19,"target_direction":314,"target_group":"white","reward_points":0},{"rt":null,"stimulus":"\n          <p style=\"color: #FF3333;\">Your reward: 0 points</p>\n        ","response":null,"trial_type":"html-keyboard-response","trial_index":22,"plugin_version":"2.1.0","time_elapsed":190915},{"rt":null,"stimulus":"<div class=\"fixation\" style=\"font-size: 60px;\">+</div>","response":null,"trial_type":"html-keyboard-response","trial_index":23,"plugin_version":"2.1.0","time_elapsed":191932},{"target_group":"black","condition_label":"B_H_vs_W_L_rep12","target_direction":21,"distractor_direction":116,"session_rotation":277,"rt":-1,"response":"","correct":false,"choices":"ALL_KEYS","correct_choice":["a"],"trial_duration":2000,"flip_timestamps":[],"response_ends_trial":false,"number_of_apertures":200,"number_of_dots":[1,1,1,1,1,1,1,1,1,1,1,1,1,1,1,1,1,1,1,1,1,1,1,1,1,1,1,1,1,1,1,1,1,1,1,1,1,1,1,1,1,1,1,1,1,1,1,1,1,1,1,1,1,1,1,1,1,1,1,1,1,1,1,1,1,1,1,1,1,1,1,1,1,1,1,1,1,1,1,1,1,1,1,1,1,1,1,1,1,1,1,1,1,1,1,1,1,1,1,1,1,1,1,1,1,1,1,1,1,1,1,1,1,1,1,1,1,1,1,1,1,1,1,1,1,1,1,1,1,1,1,1,1,1,1,1,1,1,1,1,1,1,1,1,1,1,1,1,1,1,1,1,1,1,1,1,1,1,1,1,1,1,1,1,1,1,1,1,1,1,1,1,1,1,1,1,1,1,1,1,1,1,1,1,1,1,1,1,1,1,1,1,1,1,1,1,1,1,1,1],"number_of_sets":1,"coherent_direction":[116,116,21,116,116,21,116,21,21,21,116,116,21,21,21,116,116,116,21,21,21,116,116,21,116,21,116,116,116,116,21,116,116,21,21,116,21,21,116,116,116,21,21,116,116,21,21,116,21,21,116,21,116,116,116,116,21,21,21,21,21,21,21,21,116,21,21,21,116,21,116,116,116,21,116,116,116,116,21,116,116,21,21,21,116,116,116,116,21,21,116,21,21,116,21,21,116,116,116,116,21,116,21,21,21,116,116,116,116,21,116,116,116,21,21,21,116,116,116,116,116,21,21,116,21,21,21,116,21,21,21,21,116,21,116,21,21,116,21,116,116,21,21,21,116,116,116,116,116,21,21,21,21,116,21,116,116,21,116,116,116,21,21,21,116,21,21,116,21,116,116,21,116,116,116,21,21,21,21,116,21,21,21,116,21,21,116,21,116,116,116,21,21,116,116,116,116,21,21,21],"coherence":1,"opposite_coherence":0,"dot_radius":2,"dot_side_length":1,"dot_life":-1,"move_distance":1,"aperture_width":300,"aperture_height":300,"dot_color":["white","white","black","white","white","black","white","black","black","black","white","white","black","black","black","white","white","white","black","black","black","white","white","black","white","black","white","white","white","white","black","white","white","black","black","white","black","black","white","white","white","black","black","white","white","black","black","white","black","black","white","black","white","white","white","white","black","black","black","black","black","black","black","black","white","black","black","black","white","black","white","white","white","black","white","white","white","white","black","white","white","black","black","black","white","white","white","white","black","black","white","black","black","white","black","black","white","white","white","white","black","white","black","black","black","white","white","white","white","black","white","white","white","black","black","black","white","white","white","white","white","black","black","white","black","black","black","white","black","black","black","black","white","black","white","black","black","white","black","white","white","black","black","black","white","white","white","white","white","black","black","black","black","white","black","white","white","black","white","white","white","black","black","black","white","black","black","white","black","white","white","black","white","white","white","black","black","black","black","white","black","black","black","white","black","black","white","black","white","white","white","black","black","white","white","white","white","black","black","black"],"dot_shape":"circle","background_color":"#AAA","RDK_type":3,"aperture_type":2,"reinsert_type":2,"frame_rate":16.611570247933884,"frame_rate_array":[4,17,17,17,17,17,17,17,17,17,16,18,16,16,17,17,17,16,17,17,17,17,16,17,17,16,17,17,17,17,16,17,17,16,16,17,17,16,17,17,17,16,17,17,17,16,16,17,17,17,17,17,16,17,16,17,17,17,16,17,17,17,17,16,17,17,17,16,17,17,17,16,17,16,16,17,17,18,17,16,17,16,17,17,17,17,16,16,17,16,17,16,16,17,18,16,18,16,17,16,17,17,17,17,17,16,17,17,17,16,17,17,16,17,16,16,17,17,17,16,16],"number_of_frames":121,"aperture_center_x":800,"aperture_center_y":450,"fixation_cross":true,"fixation_cross_width":15,"fixation_cross_height":15,"fixation_cross_color":"#111","fixation_cross_thickness":1,"border":true,"border_thickness":2,"border_color":"transparent","canvas_width":1600,"canvas_height":900,"trial_type":"rdk","trial_index":24,"plugin_version":"2.0.0","time_elapsed":193941},{"rt":2629,"stimulus":"\n        <div class=\"response-container\">\n          <div class=\"response-instruction\">\n            <p>rotate the bar by using the left and right arrow keys.</p>\n            <p>when you are determined, press the Enter key.</p>\n          </div>\n          <div class=\"response-circle\">\n            <div class=\"response-fixation\"></div>\n            <div id=\"bar\" class=\"rotating-bar\"></div>\n          </div>\n        </div>\n      ","response":"Enter","trial_type":"html-keyboard-response","trial_index":25,"plugin_version":"2.1.0","time_elapsed":196571,"response_angle_css":-29,"response_angle_rdk":119,"angular_error_target":98,"angular_error_distractor":3,"target_direction":21,"target_group":"black","reward_points":0},{"rt":null,"stimulus":"\n          <p style=\"color: #FF3333;\">Your reward: 0 points</p>\n        ","response":null,"trial_type":"html-keyboard-response","trial_index":26,"plugin_version":"2.1.0","time_elapsed":198581},{"rt":null,"stimulus":"<div class=\"fixation\" style=\"font-size: 60px;\">+</div>","response":null,"trial_type":"html-keyboard-response","trial_index":27,"plugin_version":"2.1.0","time_elapsed":199595},{"target_group":"white","condition_label":"W_H_vs_B_L_rep5","target_direction":305,"distractor_direction":195,"session_rotation":277,"rt":-1,"response":"","correct":false,"choices":"ALL_KEYS","correct_choice":["a"],"trial_duration":2000,"flip_timestamps":[],"response_ends_trial":false,"number_of_apertures":200,"number_of_dots":[1,1,1,1,1,1,1,1,1,1,1,1,1,1,1,1,1,1,1,1,1,1,1,1,1,1,1,1,1,1,1,1,1,1,1,1,1,1,1,1,1,1,1,1,1,1,1,1,1,1,1,1,1,1,1,1,1,1,1,1,1,1,1,1,1,1,1,1,1,1,1,1,1,1,1,1,1,1,1,1,1,1,1,1,1,1,1,1,1,1,1,1,1,1,1,1,1,1,1,1,1,1,1,1,1,1,1,1,1,1,1,1,1,1,1,1,1,1,1,1,1,1,1,1,1,1,1,1,1,1,1,1,1,1,1,1,1,1,1,1,1,1,1,1,1,1,1,1,1,1,1,1,1,1,1,1,1,1,1,1,1,1,1,1,1,1,1,1,1,1,1,1,1,1,1,1,1,1,1,1,1,1,1,1,1,1,1,1,1,1,1,1,1,1,1,1,1,1,1,1],"number_of_sets":1,"coherent_direction":[195,305,305,305,195,305,305,195,195,305,195,195,305,305,195,195,195,305,195,195,195,195,305,305,305,305,305,195,305,305,305,195,195,195,195,195,195,305,305,195,195,305,305,305,305,195,305,305,305,305,195,195,305,305,305,305,305,195,195,305,195,305,195,305,305,305,195,195,195,305,195,305,305,195,305,195,195,305,305,195,305,195,305,195,305,305,195,195,305,195,305,305,305,195,195,305,305,195,195,195,305,195,305,195,195,195,305,305,305,195,305,305,195,195,195,195,195,305,305,195,305,305,195,195,305,305,305,195,305,195,305,305,305,305,195,195,305,195,305,305,305,195,305,195,195,195,195,305,305,305,195,195,195,305,195,195,195,195,195,195,195,305,195,305,305,305,195,305,305,305,195,195,195,305,195,195,195,305,305,195,195,195,305,305,195,305,305,195,195,305,305,195,195,195,195,195,305,195,305,305],"coherence":1,"opposite_coherence":0,"dot_radius":2,"dot_side_length":1,"dot_life":-1,"move_distance":1,"aperture_width":300,"aperture_height":300,"dot_color":["black","white","white","white","black","white","white","black","black","white","black","black","white","white","black","black","black","white","black","black","black","black","white","white","white","white","white","black","white","white","white","black","black","black","black","black","black","white","white","black","black","white","white","white","white","black","white","white","white","white","black","black","white","white","white","white","white","black","black","white","black","white","black","white","white","white","black","black","black","white","black","white","white","black","white","black","black","white","white","black","white","black","white","black","white","white","black","black","white","black","white","white","white","black","black","white","white","black","black","black","white","black","white","black","black","black","white","white","white","black","white","white","black","black","black","black","black","white","white","black","white","white","black","black","white","white","white","black","white","black","white","white","white","white","black","black","white","black","white","white","white","black","white","black","black","black","black","white","white","white","black","black","black","white","black","black","black","black","black","black","black","white","black","white","white","white","black","white","white","white","black","black","black","white","black","black","black","white","white","black","black","black","white","white","black","white","white","black","black","white","white","black","black","black","black","black","white","black","white","white"],"dot_shape":"circle","background_color":"#AAA","RDK_type":3,"aperture_type":2,"reinsert_type":2,"frame_rate":16.677685950413224,"frame_rate_array":[7,16,16,17,18,17,17,15,18,17,16,17,16,16,18,17,17,16,17,17,16,17,16,18,16,16,18,16,17,17,16,17,16,17,17,17,16,17,16,17,17,17,17,17,16,17,18,17,16,18,15,17,17,17,17,16,17,17,17,17,17,17,16,17,17,17,16,17,16,17,17,17,17,17,16,17,17,18,15,17,17,16,17,17,16,17,16,17,17,17,16,18,17,17,16,16,17,17,17,17,17,17,16,17,17,17,17,16,18,17,17,17,17,16,17,17,17,17,16,17,16],"number_of_frames":121,"aperture_center_x":800,"aperture_center_y":450,"fixation_cross":true,"fixation_cross_width":15,"fixation_cross_height":15,"fixation_cross_color":"#111","fixation_cross_thickness":1,"border":true,"border_thickness":2,"border_color":"transparent","canvas_width":1600,"canvas_height":900,"trial_type":"rdk","trial_index":28,"plugin_version":"2.0.0","time_elapsed":201606},{"rt":6355,"stimulus":"\n        <div class=\"response-container\">\n          <div class=\"response-instruction\">\n            <p>rotate the bar by using the left and right arrow keys.</p>\n            <p>when you are determined, press the Enter key.</p>\n          </div>\n          <div class=\"response-circle\">\n            <div class=\"response-fixation\"></div>\n            <div id=\"bar\" class=\"rotating-bar\"></div>\n          </div>\n        </div>\n      ","response":"Enter","trial_type":"html-keyboard-response","trial_index":29,"plugin_version":"2.1.0","time_elapsed":207962,"response_angle_css":134,"response_angle_rdk":316,"angular_error_target":11,"angular_error_distractor":121,"target_direction":305,"target_group":"white","reward_points":7},{"rt":null,"stimulus":"\n          <p style=\"color: #00FF00;\">Your reward: 7 points</p>\n        ","response":null,"trial_type":"html-keyboard-response","trial_index":30,"plugin_version":"2.1.0","time_elapsed":209967},{"rt":null,"stimulus":"<div class=\"fixation\" style=\"font-size: 60px;\">+</div>","response":null,"trial_type":"html-keyboard-response","trial_index":31,"plugin_version":"2.1.0","time_elapsed":210981},{"target_group":"white","condition_label":"W_H_vs_B_L_rep16","target_direction":292,"distractor_direction":188,"session_rotation":277,"rt":-1,"response":"","correct":false,"choices":"ALL_KEYS","correct_choice":["a"],"trial_duration":2000,"flip_timestamps":[],"response_ends_trial":false,"number_of_apertures":200,"number_of_dots":[1,1,1,1,1,1,1,1,1,1,1,1,1,1,1,1,1,1,1,1,1,1,1,1,1,1,1,1,1,1,1,1,1,1,1,1,1,1,1,1,1,1,1,1,1,1,1,1,1,1,1,1,1,1,1,1,1,1,1,1,1,1,1,1,1,1,1,1,1,1,1,1,1,1,1,1,1,1,1,1,1,1,1,1,1,1,1,1,1,1,1,1,1,1,1,1,1,1,1,1,1,1,1,1,1,1,1,1,1,1,1,1,1,1,1,1,1,1,1,1,1,1,1,1,1,1,1,1,1,1,1,1,1,1,1,1,1,1,1,1,1,1,1,1,1,1,1,1,1,1,1,1,1,1,1,1,1,1,1,1,1,1,1,1,1,1,1,1,1,1,1,1,1,1,1,1,1,1,1,1,1,1,1,1,1,1,1,1,1,1,1,1,1,1,1,1,1,1,1,1],"number_of_sets":1,"coherent_direction":[292,292,292,188,188,188,292,188,292,188,292,188,292,292,292,292,188,292,292,188,292,188,292,188,188,188,188,292,292,188,188,292,188,292,188,292,188,188,292,188,188,292,292,188,292,188,188,188,292,188,188,292,292,292,292,292,292,188,292,292,188,188,292,292,188,292,188,188,188,292,292,292,188,188,292,292,188,292,188,292,188,188,188,188,292,188,292,188,292,292,292,188,188,292,292,292,188,188,292,188,188,292,292,188,292,292,292,292,292,188,292,292,188,188,292,188,188,188,292,292,292,188,292,188,188,188,188,292,188,292,188,188,292,188,292,188,188,188,188,188,188,188,292,292,188,188,292,188,188,188,188,188,188,292,292,188,188,188,188,292,292,292,188,292,188,292,292,292,188,292,292,292,292,188,188,292,188,292,188,292,292,292,188,188,292,292,188,188,292,292,292,188,292,292,292,188,188,188,292,292],"coherence":1,"opposite_coherence":0,"dot_radius":2,"dot_side_length":1,"dot_life":-1,"move_distance":1,"aperture_width":300,"aperture_height":300,"dot_color":["white","white","white","black","black","black","white","black","white","black","white","black","white","white","white","white","black","white","white","black","white","black","white","black","black","black","black","white","white","black","black","white","black","white","black","white","black","black","white","black","black","white","white","black","white","black","black","black","white","black","black","white","white","white","white","white","white","black","white","white","black","black","white","white","black","white","black","black","black","white","white","white","black","black","white","white","black","white","black","white","black","black","black","black","white","black","white","black","white","white","white","black","black","white","white","white","black","black","white","black","black","white","white","black","white","white","white","white","white","black","white","white","black","black","white","black","black","black","white","white","white","black","white","black","black","black","black","white","black","white","black","black","white","black","white","black","black","black","black","black","black","black","white","white","black","black","white","black","black","black","black","black","black","white","white","black","black","black","black","white","white","white","black","white","black","white","white","white","black","white","white","white","white","black","black","white","black","white","black","white","white","white","black","black","white","white","black","black","white","white","white","black","white","white","white","black","black","black","white","white"],"dot_shape":"circle","background_color":"#AAA","RDK_type":3,"aperture_type":2,"reinsert_type":2,"frame_rate":16.628099173553718,"frame_rate_array":[12,5,16,16,17,17,16,17,16,17,16,17,17,16,17,17,17,17,17,17,17,17,16,17,17,17,16,17,17,17,16,17,17,16,17,17,17,16,18,17,17,16,16,18,17,16,17,17,17,16,17,17,17,16,16,17,17,17,17,17,16,17,18,17,17,17,17,17,17,17,17,16,17,16,17,17,16,17,17,16,17,16,17,17,17,16,17,16,17,17,17,17,17,17,17,17,17,17,16,17,17,17,17,17,17,16,17,16,17,17,17,17,18,16,17,17,16,17,16,17,16],"number_of_frames":121,"aperture_center_x":800,"aperture_center_y":450,"fixation_cross":true,"fixation_cross_width":15,"fixation_cross_height":15,"fixation_cross_color":"#111","fixation_cross_thickness":1,"border":true,"border_thickness":2,"border_color":"transparent","canvas_width":1600,"canvas_height":900,"trial_type":"rdk","trial_index":32,"plugin_version":"2.0.0","time_elapsed":212989},{"rt":3707,"stimulus":"\n        <div class=\"response-container\">\n          <div class=\"response-instruction\">\n            <p>rotate the bar by using the left and right arrow keys.</p>\n            <p>when you are determined, press the Enter key.</p>\n          </div>\n          <div class=\"response-circle\">\n            <div class=\"response-fixation\"></div>\n            <div id=\"bar\" class=\"rotating-bar\"></div>\n          </div>\n        </div>\n      ","response":"Enter","trial_type":"html-keyboard-response","trial_index":33,"plugin_version":"2.1.0","time_elapsed":216698,"response_angle_css":136,"response_angle_rdk":314,"angular_error_target":22,"angular_error_distractor":126,"target_direction":292,"target_group":"white","reward_points":5},{"rt":null,"stimulus":"\n          <p style=\"color: #00FF00;\">Your reward: 5 points</p>\n        ","response":null,"trial_type":"html-keyboard-response","trial_index":34,"plugin_version":"2.1.0","time_elapsed":218703},{"rt":null,"stimulus":"<div class=\"fixation\" style=\"font-size: 60px;\">+</div>","response":null,"trial_type":"html-keyboard-response","trial_index":35,"plugin_version":"2.1.0","time_elapsed":219719},{"target_group":"black","condition_label":"B_H_vs_W_L_rep24","target_direction":17,"distractor_direction":135,"session_rotation":277,"rt":-1,"response":"","correct":false,"choices":"ALL_KEYS","correct_choice":["a"],"trial_duration":2000,"flip_timestamps":[],"response_ends_trial":false,"number_of_apertures":200,"number_of_dots":[1,1,1,1,1,1,1,1,1,1,1,1,1,1,1,1,1,1,1,1,1,1,1,1,1,1,1,1,1,1,1,1,1,1,1,1,1,1,1,1,1,1,1,1,1,1,1,1,1,1,1,1,1,1,1,1,1,1,1,1,1,1,1,1,1,1,1,1,1,1,1,1,1,1,1,1,1,1,1,1,1,1,1,1,1,1,1,1,1,1,1,1,1,1,1,1,1,1,1,1,1,1,1,1,1,1,1,1,1,1,1,1,1,1,1,1,1,1,1,1,1,1,1,1,1,1,1,1,1,1,1,1,1,1,1,1,1,1,1,1,1,1,1,1,1,1,1,1,1,1,1,1,1,1,1,1,1,1,1,1,1,1,1,1,1,1,1,1,1,1,1,1,1,1,1,1,1,1,1,1,1,1,1,1,1,1,1,1,1,1,1,1,1,1,1,1,1,1,1,1],"number_of_sets":1,"coherent_direction":[17,135,135,135,135,17,17,17,135,17,135,17,135,17,17,135,135,17,135,135,17,17,135,135,17,17,17,17,17,17,17,17,135,135,135,135,135,17,135,135,135,17,135,135,135,135,17,17,17,135,17,135,135,17,17,135,135,135,17,135,17,17,135,135,135,17,17,135,135,17,135,17,17,135,17,135,17,135,135,135,17,17,135,17,17,135,135,135,135,135,135,17,135,17,135,17,135,135,17,17,17,135,17,17,17,17,17,135,135,135,17,135,17,17,135,17,17,135,17,17,17,17,135,135,17,135,17,17,17,17,17,135,135,135,135,135,17,135,135,135,17,17,17,17,135,17,17,17,135,17,17,135,17,17,135,135,135,17,135,135,17,135,135,17,17,135,135,135,135,17,135,17,17,135,17,135,17,135,135,17,17,135,17,17,135,135,17,135,17,17,17,135,17,17,135,135,135,17,17,135],"coherence":1,"opposite_coherence":0,"dot_radius":2,"dot_side_length":1,"dot_life":-1,"move_distance":1,"aperture_width":300,"aperture_height":300,"dot_color":["black","white","white","white","white","black","black","black","white","black","white","black","white","black","black","white","white","black","white","white","black","black","white","white","black","black","black","black","black","black","black","black","white","white","white","white","white","black","white","white","white","black","white","white","white","white","black","black","black","white","black","white","white","black","black","white","white","white","black","white","black","black","white","white","white","black","black","white","white","black","white","black","black","white","black","white","black","white","white","white","black","black","white","black","black","white","white","white","white","white","white","black","white","black","white","black","white","white","black","black","black","white","black","black","black","black","black","white","white","white","black","white","black","black","white","black","black","white","black","black","black","black","white","white","black","white","black","black","black","black","black","white","white","white","white","white","black","white","white","white","black","black","black","black","white","black","black","black","white","black","black","white","black","black","white","white","white","black","white","white","black","white","white","black","black","white","white","white","white","black","white","black","black","white","black","white","black","white","white","black","black","white","black","black","white","white","black","white","black","black","black","white","black","black","white","white","white","black","black","white"],"dot_shape":"circle","background_color":"#AAA","RDK_type":3,"aperture_type":2,"reinsert_type":2,"frame_rate":16.708333333333332,"frame_rate_array":[10,15,17,17,17,17,17,17,17,16,16,17,17,17,16,17,16,17,16,17,17,17,17,17,16,16,17,17,17,16,16,17,17,17,17,17,17,16,16,17,17,17,17,17,17,17,16,17,17,17,16,17,16,17,16,17,17,17,17,17,16,17,17,17,17,17,16,17,17,17,17,16,17,17,17,17,18,16,17,16,17,17,18,16,18,16,17,17,16,18,17,16,16,17,17,17,16,17,16,17,17,16,17,18,16,17,16,17,17,17,18,16,17,17,17,17,17,17,17,16],"number_of_frames":120,"aperture_center_x":800,"aperture_center_y":450,"fixation_cross":true,"fixation_cross_width":15,"fixation_cross_height":15,"fixation_cross_color":"#111","fixation_cross_thickness":1,"border":true,"border_thickness":2,"border_color":"transparent","canvas_width":1600,"canvas_height":900,"trial_type":"rdk","trial_index":36,"plugin_version":"2.0.0","time_elapsed":221730},{"rt":2876,"stimulus":"\n        <div class=\"response-container\">\n          <div class=\"response-instruction\">\n            <p>rotate the bar by using the left and right arrow keys.</p>\n            <p>when you are determined, press the Enter key.</p>\n          </div>\n          <div class=\"response-circle\">\n            <div class=\"response-fixation\"></div>\n            <div id=\"bar\" class=\"rotating-bar\"></div>\n          </div>\n        </div>\n      ","response":"Enter","trial_type":"html-keyboard-response","trial_index":37,"plugin_version":"2.1.0","time_elapsed":224607,"response_angle_css":298,"response_angle_rdk":152,"angular_error_target":135,"angular_error_distractor":17,"target_direction":17,"target_group":"black","reward_points":0},{"rt":null,"stimulus":"\n          <p style=\"color: #FF3333;\">Your reward: 0 points</p>\n        ","response":null,"trial_type":"html-keyboard-response","trial_index":38,"plugin_version":"2.1.0","time_elapsed":226617},{"rt":null,"stimulus":"<div class=\"fixation\" style=\"font-size: 60px;\">+</div>","response":null,"trial_type":"html-keyboard-response","trial_index":39,"plugin_version":"2.1.0","time_elapsed":227632},{"target_group":"white","condition_label":"W_H_vs_B_L_rep11","target_direction":308,"distractor_direction":199,"session_rotation":277,"rt":-1,"response":"","correct":false,"choices":"ALL_KEYS","correct_choice":["a"],"trial_duration":2000,"flip_timestamps":[],"response_ends_trial":false,"number_of_apertures":200,"number_of_dots":[1,1,1,1,1,1,1,1,1,1,1,1,1,1,1,1,1,1,1,1,1,1,1,1,1,1,1,1,1,1,1,1,1,1,1,1,1,1,1,1,1,1,1,1,1,1,1,1,1,1,1,1,1,1,1,1,1,1,1,1,1,1,1,1,1,1,1,1,1,1,1,1,1,1,1,1,1,1,1,1,1,1,1,1,1,1,1,1,1,1,1,1,1,1,1,1,1,1,1,1,1,1,1,1,1,1,1,1,1,1,1,1,1,1,1,1,1,1,1,1,1,1,1,1,1,1,1,1,1,1,1,1,1,1,1,1,1,1,1,1,1,1,1,1,1,1,1,1,1,1,1,1,1,1,1,1,1,1,1,1,1,1,1,1,1,1,1,1,1,1,1,1,1,1,1,1,1,1,1,1,1,1,1,1,1,1,1,1,1,1,1,1,1,1,1,1,1,1,1,1],"number_of_sets":1,"coherent_direction":[199,199,199,308,308,199,199,199,199,199,199,308,308,199,199,308,199,199,308,199,199,308,308,199,199,199,199,308,308,199,308,199,308,199,308,199,199,199,308,199,308,199,199,199,199,308,308,199,308,199,308,308,308,308,308,199,199,308,199,308,308,308,199,308,308,308,308,199,308,199,308,199,199,199,308,199,308,308,308,308,308,308,199,308,308,199,199,199,199,308,199,199,199,308,199,199,308,308,308,199,308,199,308,199,199,308,308,199,199,308,199,308,308,199,199,199,308,199,308,199,308,199,308,199,308,308,199,199,308,199,199,199,308,308,199,199,199,308,199,308,308,199,308,308,199,199,199,308,308,199,199,199,308,199,199,308,199,308,199,199,199,308,199,308,308,199,308,199,199,308,308,308,308,308,308,308,308,308,308,308,199,308,308,308,308,199,308,308,199,308,308,308,308,199,308,308,199,199,199,199],"coherence":1,"opposite_coherence":0,"dot_radius":2,"dot_side_length":1,"dot_life":-1,"move_distance":1,"aperture_width":300,"aperture_height":300,"dot_color":["black","black","black","white","white","black","black","black","black","black","black","white","white","black","black","white","black","black","white","black","black","white","white","black","black","black","black","white","white","black","white","black","white","black","white","black","black","black","white","black","white","black","black","black","black","white","white","black","white","black","white","white","white","white","white","black","black","white","black","white","white","white","black","white","white","white","white","black","white","black","white","black","black","black","white","black","white","white","white","white","white","white","black","white","white","black","black","black","black","white","black","black","black","white","black","black","white","white","white","black","white","black","white","black","black","white","white","black","black","white","black","white","white","black","black","black","white","black","white","black","white","black","white","black","white","white","black","black","white","black","black","black","white","white","black","black","black","white","black","white","white","black","white","white","black","black","black","white","white","black","black","black","white","black","black","white","black","white","black","black","black","white","black","white","white","black","white","black","black","white","white","white","white","white","white","white","white","white","white","white","black","white","white","white","white","black","white","white","black","white","white","white","white","black","white","white","black","black","black","black"],"dot_shape":"circle","background_color":"#AAA","RDK_type":3,"aperture_type":2,"reinsert_type":2,"frame_rate":16.56198347107438,"frame_rate_array":[5,8,15,17,17,16,17,16,16,16,18,17,17,17,16,17,17,17,16,17,17,17,16,18,16,17,16,17,16,17,17,16,16,18,17,16,17,17,17,16,17,16,17,17,17,17,17,17,17,16,17,17,16,18,16,16,16,17,17,17,16,17,16,17,17,18,16,17,17,17,16,18,16,17,16,17,17,17,16,17,16,17,16,17,17,17,17,17,15,17,17,17,17,17,18,16,16,16,17,17,17,17,17,17,17,17,17,17,17,16,17,17,17,16,17,17,17,17,16,18,16],"number_of_frames":121,"aperture_center_x":800,"aperture_center_y":450,"fixation_cross":true,"fixation_cross_width":15,"fixation_cross_height":15,"fixation_cross_color":"#111","fixation_cross_thickness":1,"border":true,"border_thickness":2,"border_color":"transparent","canvas_width":1600,"canvas_height":900,"trial_type":"rdk","trial_index":40,"plugin_version":"2.0.0","time_elapsed":229641},{"rt":2968,"stimulus":"\n        <div class=\"response-container\">\n          <div class=\"response-instruction\">\n            <p>rotate the bar by using the left and right arrow keys.</p>\n            <p>when you are determined, press the Enter key.</p>\n          </div>\n          <div class=\"response-circle\">\n            <div class=\"response-fixation\"></div>\n            <div id=\"bar\" class=\"rotating-bar\"></div>\n          </div>\n        </div>\n      ","response":"Enter","trial_type":"html-keyboard-response","trial_index":41,"plugin_version":"2.1.0","time_elapsed":232610,"response_angle_css":-109,"response_angle_rdk":199,"angular_error_target":-109,"angular_error_distractor":0,"target_direction":308,"target_group":"white","reward_points":0},{"rt":null,"stimulus":"\n          <p style=\"color: #FF3333;\">Your reward: 0 points</p>\n        ","response":null,"trial_type":"html-keyboard-response","trial_index":42,"plugin_version":"2.1.0","time_elapsed":234617},{"rt":null,"stimulus":"<div class=\"fixation\" style=\"font-size: 60px;\">+</div>","response":null,"trial_type":"html-keyboard-response","trial_index":43,"plugin_version":"2.1.0","time_elapsed":235632},{"target_group":"white","condition_label":"W_H_vs_B_L_rep19","target_direction":293,"distractor_direction":201,"session_rotation":277,"rt":-1,"response":"","correct":false,"choices":"ALL_KEYS","correct_choice":["a"],"trial_duration":2000,"flip_timestamps":[],"response_ends_trial":false,"number_of_apertures":200,"number_of_dots":[1,1,1,1,1,1,1,1,1,1,1,1,1,1,1,1,1,1,1,1,1,1,1,1,1,1,1,1,1,1,1,1,1,1,1,1,1,1,1,1,1,1,1,1,1,1,1,1,1,1,1,1,1,1,1,1,1,1,1,1,1,1,1,1,1,1,1,1,1,1,1,1,1,1,1,1,1,1,1,1,1,1,1,1,1,1,1,1,1,1,1,1,1,1,1,1,1,1,1,1,1,1,1,1,1,1,1,1,1,1,1,1,1,1,1,1,1,1,1,1,1,1,1,1,1,1,1,1,1,1,1,1,1,1,1,1,1,1,1,1,1,1,1,1,1,1,1,1,1,1,1,1,1,1,1,1,1,1,1,1,1,1,1,1,1,1,1,1,1,1,1,1,1,1,1,1,1,1,1,1,1,1,1,1,1,1,1,1,1,1,1,1,1,1,1,1,1,1,1,1],"number_of_sets":1,"coherent_direction":[293,201,201,201,293,201,201,201,201,201,293,293,201,201,201,293,293,201,201,201,293,293,201,201,293,293,293,201,293,293,201,201,201,293,293,293,201,201,293,293,201,293,293,201,293,293,293,201,201,293,201,201,293,293,293,293,293,201,201,293,201,293,201,293,293,201,201,293,293,293,201,201,201,293,201,201,201,293,293,293,201,293,293,293,293,201,201,293,201,201,293,293,293,293,293,201,293,201,201,293,201,201,201,293,293,293,201,201,201,293,201,201,293,293,293,293,201,201,201,293,293,201,201,201,201,201,201,201,293,293,201,201,201,201,201,201,293,201,293,293,293,293,293,293,293,201,293,201,293,201,293,201,293,201,201,293,293,201,293,201,201,293,293,201,293,201,201,293,201,293,293,293,293,293,293,201,293,201,201,201,201,293,201,201,293,293,201,201,293,293,201,201,293,293,201,201,293,201,293,293],"coherence":1,"opposite_coherence":0,"dot_radius":2,"dot_side_length":1,"dot_life":-1,"move_distance":1,"aperture_width":300,"aperture_height":300,"dot_color":["white","black","black","black","white","black","black","black","black","black","white","white","black","black","black","white","white","black","black","black","white","white","black","black","white","white","white","black","white","white","black","black","black","white","white","white","black","black","white","white","black","white","white","black","white","white","white","black","black","white","black","black","white","white","white","white","white","black","black","white","black","white","black","white","white","black","black","white","white","white","black","black","black","white","black","black","black","white","white","white","black","white","white","white","white","black","black","white","black","black","white","white","white","white","white","black","white","black","black","white","black","black","black","white","white","white","black","black","black","white","black","black","white","white","white","white","black","black","black","white","white","black","black","black","black","black","black","black","white","white","black","black","black","black","black","black","white","black","white","white","white","white","white","white","white","black","white","black","white","black","white","black","white","black","black","white","white","black","white","black","black","white","white","black","white","black","black","white","black","white","white","white","white","white","white","black","white","black","black","black","black","white","black","black","white","white","black","black","white","white","black","black","white","white","black","black","white","black","white","white"],"dot_shape":"circle","background_color":"#AAA","RDK_type":3,"aperture_type":2,"reinsert_type":2,"frame_rate":16.783333333333335,"frame_rate_array":[16,16,17,16,17,17,17,17,17,17,16,17,17,17,17,22,10,17,17,17,17,16,17,16,17,17,17,17,16,17,17,17,17,17,16,17,17,16,18,16,17,17,16,17,17,16,18,16,17,17,17,16,17,16,17,17,17,17,17,17,17,17,17,16,17,17,17,16,17,17,17,17,17,17,17,17,17,17,17,18,15,17,17,17,17,17,16,16,17,17,17,17,17,17,16,17,17,17,16,17,16,17,17,17,16,17,17,18,16,16,18,17,16,17,17,16,17,17,17,17],"number_of_frames":120,"aperture_center_x":800,"aperture_center_y":450,"fixation_cross":true,"fixation_cross_width":15,"fixation_cross_height":15,"fixation_cross_color":"#111","fixation_cross_thickness":1,"border":true,"border_thickness":2,"border_color":"transparent","canvas_width":1600,"canvas_height":900,"trial_type":"rdk","trial_index":44,"plugin_version":"2.0.0","time_elapsed":237653},{"rt":1796,"stimulus":"\n        <div class=\"response-container\">\n          <div class=\"response-instruction\">\n            <p>rotate the bar by using the left and right arrow keys.</p>\n            <p>when you are determined, press the Enter key.</p>\n          </div>\n          <div class=\"response-circle\">\n            <div class=\"response-fixation\"></div>\n            <div id=\"bar\" class=\"rotating-bar\"></div>\n          </div>\n        </div>\n      ","response":"Enter","trial_type":"html-keyboard-response","trial_index":45,"plugin_version":"2.1.0","time_elapsed":239450,"response_angle_css":269,"response_angle_rdk":181,"angular_error_target":-112,"angular_error_distractor":-20,"target_direction":293,"target_group":"white","reward_points":0},{"rt":null,"stimulus":"\n          <p style=\"color: #FF3333;\">Your reward: 0 points</p>\n        ","response":null,"trial_type":"html-keyboard-response","trial_index":46,"plugin_version":"2.1.0","time_elapsed":241454},{"rt":null,"stimulus":"<div class=\"fixation\" style=\"font-size: 60px;\">+</div>","response":null,"trial_type":"html-keyboard-response","trial_index":47,"plugin_version":"2.1.0","time_elapsed":242470},{"target_group":"black","condition_label":"B_H_vs_W_L_rep15","target_direction":19,"distractor_direction":126,"session_rotation":277,"rt":-1,"response":"","correct":false,"choices":"ALL_KEYS","correct_choice":["a"],"trial_duration":2000,"flip_timestamps":[],"response_ends_trial":false,"number_of_apertures":200,"number_of_dots":[1,1,1,1,1,1,1,1,1,1,1,1,1,1,1,1,1,1,1,1,1,1,1,1,1,1,1,1,1,1,1,1,1,1,1,1,1,1,1,1,1,1,1,1,1,1,1,1,1,1,1,1,1,1,1,1,1,1,1,1,1,1,1,1,1,1,1,1,1,1,1,1,1,1,1,1,1,1,1,1,1,1,1,1,1,1,1,1,1,1,1,1,1,1,1,1,1,1,1,1,1,1,1,1,1,1,1,1,1,1,1,1,1,1,1,1,1,1,1,1,1,1,1,1,1,1,1,1,1,1,1,1,1,1,1,1,1,1,1,1,1,1,1,1,1,1,1,1,1,1,1,1,1,1,1,1,1,1,1,1,1,1,1,1,1,1,1,1,1,1,1,1,1,1,1,1,1,1,1,1,1,1,1,1,1,1,1,1,1,1,1,1,1,1,1,1,1,1,1,1],"number_of_sets":1,"coherent_direction":[126,126,19,126,19,126,19,126,126,19,19,19,126,19,126,126,19,126,126,126,19,126,19,19,19,19,19,19,126,126,126,126,126,19,19,126,19,19,126,19,19,126,126,19,126,126,126,19,19,126,126,19,19,126,19,19,19,126,19,19,19,126,19,126,19,126,126,19,126,19,126,126,126,126,126,126,126,19,126,126,19,19,19,19,19,126,19,126,19,19,126,126,126,126,126,19,126,126,19,126,126,19,19,19,126,19,126,126,19,19,126,19,19,126,126,126,126,19,19,19,19,19,19,19,19,126,126,19,126,19,126,19,19,126,19,19,19,19,19,19,126,126,126,19,126,19,126,126,126,126,126,126,126,126,19,19,19,19,126,19,126,19,126,19,19,19,19,126,126,19,19,19,19,19,19,126,19,126,19,126,126,126,19,126,126,126,19,126,19,126,19,19,126,19,126,126,126,126,19,126],"coherence":1,"opposite_coherence":0,"dot_radius":2,"dot_side_length":1,"dot_life":-1,"move_distance":1,"aperture_width":300,"aperture_height":300,"dot_color":["white","white","black","white","black","white","black","white","white","black","black","black","white","black","white","white","black","white","white","white","black","white","black","black","black","black","black","black","white","white","white","white","white","black","black","white","black","black","white","black","black","white","white","black","white","white","white","black","black","white","white","black","black","white","black","black","black","white","black","black","black","white","black","white","black","white","white","black","white","black","white","white","white","white","white","white","white","black","white","white","black","black","black","black","black","white","black","white","black","black","white","white","white","white","white","black","white","white","black","white","white","black","black","black","white","black","white","white","black","black","white","black","black","white","white","white","white","black","black","black","black","black","black","black","black","white","white","black","white","black","white","black","black","white","black","black","black","black","black","black","white","white","white","black","white","black","white","white","white","white","white","white","white","white","black","black","black","black","white","black","white","black","white","black","black","black","black","white","white","black","black","black","black","black","black","white","black","white","black","white","white","white","black","white","white","white","black","white","black","white","black","black","white","black","white","white","white","white","black","white"],"dot_shape":"circle","background_color":"#AAA","RDK_type":3,"aperture_type":2,"reinsert_type":2,"frame_rate":16.65,"frame_rate_array":[9,17,17,17,17,17,17,16,17,17,16,17,16,17,17,16,17,17,17,17,17,16,17,17,17,17,17,17,17,17,17,16,16,17,16,17,17,16,17,16,17,17,16,16,17,17,16,19,15,16,17,16,17,17,16,16,18,17,16,16,18,16,17,17,16,17,17,16,17,17,16,17,17,16,16,16,17,17,17,17,16,17,16,17,17,17,17,16,17,16,16,17,17,18,16,17,17,16,17,17,17,17,16,18,16,17,16,18,17,16,16,17,17,17,17,17,16,18,16,17],"number_of_frames":120,"aperture_center_x":800,"aperture_center_y":450,"fixation_cross":true,"fixation_cross_width":15,"fixation_cross_height":15,"fixation_cross_color":"#111","fixation_cross_thickness":1,"border":true,"border_thickness":2,"border_color":"transparent","canvas_width":1600,"canvas_height":900,"trial_type":"rdk","trial_index":48,"plugin_version":"2.0.0","time_elapsed":244483},{"rt":3348,"stimulus":"\n        <div class=\"response-container\">\n          <div class=\"response-instruction\">\n            <p>rotate the bar by using the left and right arrow keys.</p>\n            <p>when you are determined, press the Enter key.</p>\n          </div>\n          <div class=\"response-circle\">\n            <div class=\"response-fixation\"></div>\n            <div id=\"bar\" class=\"rotating-bar\"></div>\n          </div>\n        </div>\n      ","response":"Enter","trial_type":"html-keyboard-response","trial_index":49,"plugin_version":"2.1.0","time_elapsed":247832,"response_angle_css":308,"response_angle_rdk":142,"angular_error_target":123,"angular_error_distractor":16,"target_direction":19,"target_group":"black","reward_points":0},{"rt":null,"stimulus":"\n          <p style=\"color: #FF3333;\">Your reward: 0 points</p>\n        ","response":null,"trial_type":"html-keyboard-response","trial_index":50,"plugin_version":"2.1.0","time_elapsed":249836},{"rt":null,"stimulus":"<div class=\"fixation\" style=\"font-size: 60px;\">+</div>","response":null,"trial_type":"html-keyboard-response","trial_index":51,"plugin_version":"2.1.0","time_elapsed":250849},{"target_group":"white","condition_label":"W_H_vs_B_L_rep4","target_direction":313,"distractor_direction":196,"session_rotation":277,"rt":-1,"response":"","correct":false,"choices":"ALL_KEYS","correct_choice":["a"],"trial_duration":2000,"flip_timestamps":[],"response_ends_trial":false,"number_of_apertures":200,"number_of_dots":[1,1,1,1,1,1,1,1,1,1,1,1,1,1,1,1,1,1,1,1,1,1,1,1,1,1,1,1,1,1,1,1,1,1,1,1,1,1,1,1,1,1,1,1,1,1,1,1,1,1,1,1,1,1,1,1,1,1,1,1,1,1,1,1,1,1,1,1,1,1,1,1,1,1,1,1,1,1,1,1,1,1,1,1,1,1,1,1,1,1,1,1,1,1,1,1,1,1,1,1,1,1,1,1,1,1,1,1,1,1,1,1,1,1,1,1,1,1,1,1,1,1,1,1,1,1,1,1,1,1,1,1,1,1,1,1,1,1,1,1,1,1,1,1,1,1,1,1,1,1,1,1,1,1,1,1,1,1,1,1,1,1,1,1,1,1,1,1,1,1,1,1,1,1,1,1,1,1,1,1,1,1,1,1,1,1,1,1,1,1,1,1,1,1,1,1,1,1,1,1],"number_of_sets":1,"coherent_direction":[196,196,313,313,313,313,313,196,313,313,196,196,196,196,313,313,196,196,196,196,196,196,196,196,196,313,196,196,196,196,196,196,313,196,313,196,313,313,313,313,313,196,196,196,196,313,313,196,313,196,313,196,196,313,196,196,196,196,313,196,196,196,196,196,196,313,196,196,196,196,196,313,313,313,313,196,313,313,196,313,313,313,313,313,196,196,313,313,313,196,196,313,196,196,196,196,313,196,313,313,196,196,196,196,196,196,196,196,313,196,313,313,313,313,313,196,313,313,196,313,313,313,196,313,196,196,196,196,313,196,313,196,313,313,196,196,196,313,313,313,313,196,196,313,313,313,313,196,313,313,313,313,313,313,196,313,313,196,313,313,313,313,196,313,313,196,313,313,196,196,196,313,313,313,313,196,313,196,313,196,196,313,196,313,313,196,313,313,313,196,313,313,196,313,196,313,313,313,196,196],"coherence":1,"opposite_coherence":0,"dot_radius":2,"dot_side_length":1,"dot_life":-1,"move_distance":1,"aperture_width":300,"aperture_height":300,"dot_color":["black","black","white","white","white","white","white","black","white","white","black","black","black","black","white","white","black","black","black","black","black","black","black","black","black","white","black","black","black","black","black","black","white","black","white","black","white","white","white","white","white","black","black","black","black","white","white","black","white","black","white","black","black","white","black","black","black","black","white","black","black","black","black","black","black","white","black","black","black","black","black","white","white","white","white","black","white","white","black","white","white","white","white","white","black","black","white","white","white","black","black","white","black","black","black","black","white","black","white","white","black","black","black","black","black","black","black","black","white","black","white","white","white","white","white","black","white","white","black","white","white","white","black","white","black","black","black","black","white","black","white","black","white","white","black","black","black","white","white","white","white","black","black","white","white","white","white","black","white","white","white","white","white","white","black","white","white","black","white","white","white","white","black","white","white","black","white","white","black","black","black","white","white","white","white","black","white","black","white","black","black","white","black","white","white","black","white","white","white","black","white","white","black","white","black","white","white","white","black","black"],"dot_shape":"circle","background_color":"#AAA","RDK_type":3,"aperture_type":2,"reinsert_type":2,"frame_rate":16.633333333333333,"frame_rate_array":[9,17,17,17,17,16,18,16,17,17,16,17,18,16,16,18,15,17,17,17,16,17,17,17,15,17,17,17,17,17,16,17,17,16,16,17,17,17,16,17,17,17,16,17,16,17,16,16,17,17,16,17,17,16,17,17,17,17,16,17,17,17,17,17,16,16,17,16,17,17,17,17,16,17,16,17,17,17,17,17,16,17,17,17,17,16,18,16,16,17,16,17,16,18,16,16,17,17,16,17,17,17,17,17,16,17,16,17,16,17,16,17,17,17,17,16,17,17,17,16],"number_of_frames":120,"aperture_center_x":800,"aperture_center_y":450,"fixation_cross":true,"fixation_cross_width":15,"fixation_cross_height":15,"fixation_cross_color":"#111","fixation_cross_thickness":1,"border":true,"border_thickness":2,"border_color":"transparent","canvas_width":1600,"canvas_height":900,"trial_type":"rdk","trial_index":52,"plugin_version":"2.0.0","time_elapsed":252863},{"rt":3734,"stimulus":"\n        <div class=\"response-container\">\n          <div class=\"response-instruction\">\n            <p>rotate the bar by using the left and right arrow keys.</p>\n            <p>when you are determined, press the Enter key.</p>\n          </div>\n          <div class=\"response-circle\">\n            <div class=\"response-fixation\"></div>\n            <div id=\"bar\" class=\"rotating-bar\"></div>\n          </div>\n        </div>\n      ","response":"Enter","trial_type":"html-keyboard-response","trial_index":53,"plugin_version":"2.1.0","time_elapsed":256598,"response_angle_css":-95,"response_angle_rdk":185,"angular_error_target":-128,"angular_error_distractor":-11,"target_direction":313,"target_group":"white","reward_points":0},{"rt":null,"stimulus":"\n          <p style=\"color: #FF3333;\">Your reward: 0 points</p>\n        ","response":null,"trial_type":"html-keyboard-response","trial_index":54,"plugin_version":"2.1.0","time_elapsed":258608},{"rt":null,"stimulus":"<div class=\"fixation\" style=\"font-size: 60px;\">+</div>","response":null,"trial_type":"html-keyboard-response","trial_index":55,"plugin_version":"2.1.0","time_elapsed":259619},{"target_group":"black","condition_label":"B_H_vs_W_L_rep21","target_direction":14,"distractor_direction":125,"session_rotation":277,"rt":-1,"response":"","correct":false,"choices":"ALL_KEYS","correct_choice":["a"],"trial_duration":2000,"flip_timestamps":[],"response_ends_trial":false,"number_of_apertures":200,"number_of_dots":[1,1,1,1,1,1,1,1,1,1,1,1,1,1,1,1,1,1,1,1,1,1,1,1,1,1,1,1,1,1,1,1,1,1,1,1,1,1,1,1,1,1,1,1,1,1,1,1,1,1,1,1,1,1,1,1,1,1,1,1,1,1,1,1,1,1,1,1,1,1,1,1,1,1,1,1,1,1,1,1,1,1,1,1,1,1,1,1,1,1,1,1,1,1,1,1,1,1,1,1,1,1,1,1,1,1,1,1,1,1,1,1,1,1,1,1,1,1,1,1,1,1,1,1,1,1,1,1,1,1,1,1,1,1,1,1,1,1,1,1,1,1,1,1,1,1,1,1,1,1,1,1,1,1,1,1,1,1,1,1,1,1,1,1,1,1,1,1,1,1,1,1,1,1,1,1,1,1,1,1,1,1,1,1,1,1,1,1,1,1,1,1,1,1,1,1,1,1,1,1],"number_of_sets":1,"coherent_direction":[125,125,14,14,125,125,125,125,125,14,14,125,14,125,125,125,125,14,14,14,14,14,125,125,14,14,14,14,14,14,14,125,125,125,14,125,125,125,125,125,125,14,125,14,14,125,125,14,14,125,125,14,14,14,125,125,125,14,14,14,14,125,125,125,14,125,14,125,14,14,14,125,14,14,125,14,125,14,14,14,125,125,14,14,14,125,125,14,14,125,14,14,14,14,125,14,14,14,125,125,14,14,14,125,14,14,14,14,125,125,125,125,125,125,125,14,125,14,125,125,125,14,14,125,14,14,125,125,125,125,14,14,14,14,14,14,125,125,125,14,125,14,14,125,14,125,14,14,125,125,125,14,125,14,14,125,125,125,14,125,125,125,14,125,125,14,125,125,14,125,125,14,125,125,125,14,14,14,14,14,125,14,125,125,125,125,14,14,14,125,125,125,14,125,125,14,14,125,14,14],"coherence":1,"opposite_coherence":0,"dot_radius":2,"dot_side_length":1,"dot_life":-1,"move_distance":1,"aperture_width":300,"aperture_height":300,"dot_color":["white","white","black","black","white","white","white","white","white","black","black","white","black","white","white","white","white","black","black","black","black","black","white","white","black","black","black","black","black","black","black","white","white","white","black","white","white","white","white","white","white","black","white","black","black","white","white","black","black","white","white","black","black","black","white","white","white","black","black","black","black","white","white","white","black","white","black","white","black","black","black","white","black","black","white","black","white","black","black","black","white","white","black","black","black","white","white","black","black","white","black","black","black","black","white","black","black","black","white","white","black","black","black","white","black","black","black","black","white","white","white","white","white","white","white","black","white","black","white","white","white","black","black","white","black","black","white","white","white","white","black","black","black","black","black","black","white","white","white","black","white","black","black","white","black","white","black","black","white","white","white","black","white","black","black","white","white","white","black","white","white","white","black","white","white","black","white","white","black","white","white","black","white","white","white","black","black","black","black","black","white","black","white","white","white","white","black","black","black","white","white","white","black","white","white","black","black","white","black","black"],"dot_shape":"circle","background_color":"#AAA","RDK_type":3,"aperture_type":2,"reinsert_type":2,"frame_rate":16.65289256198347,"frame_rate_array":[6,16,17,17,17,17,17,16,18,16,17,17,16,17,17,17,16,17,16,16,17,17,17,16,17,17,17,16,17,16,17,17,16,17,17,16,17,17,17,17,17,17,16,17,17,16,17,17,17,17,16,18,16,17,16,17,17,16,17,17,16,17,17,16,16,16,18,17,16,17,17,17,16,17,17,16,17,16,16,18,16,16,17,17,17,17,17,17,17,17,17,17,16,19,15,17,17,17,17,16,17,16,17,17,17,17,17,17,17,17,16,17,17,16,17,17,17,16,17,17,17],"number_of_frames":121,"aperture_center_x":800,"aperture_center_y":450,"fixation_cross":true,"fixation_cross_width":15,"fixation_cross_height":15,"fixation_cross_color":"#111","fixation_cross_thickness":1,"border":true,"border_thickness":2,"border_color":"transparent","canvas_width":1600,"canvas_height":900,"trial_type":"rdk","trial_index":56,"plugin_version":"2.0.0","time_elapsed":261633},{"rt":2118,"stimulus":"\n        <div class=\"response-container\">\n          <div class=\"response-instruction\">\n            <p>rotate the bar by using the left and right arrow keys.</p>\n            <p>when you are determined, press the Enter key.</p>\n          </div>\n          <div class=\"response-circle\">\n            <div class=\"response-fixation\"></div>\n            <div id=\"bar\" class=\"rotating-bar\"></div>\n          </div>\n        </div>\n      ","response":"Enter","trial_type":"html-keyboard-response","trial_index":57,"plugin_version":"2.1.0","time_elapsed":263752,"response_angle_css":295,"response_angle_rdk":155,"angular_error_target":141,"angular_error_distractor":30,"target_direction":14,"target_group":"black","reward_points":0},{"rt":null,"stimulus":"\n          <p style=\"color: #FF3333;\">Your reward: 0 points</p>\n        ","response":null,"trial_type":"html-keyboard-response","trial_index":58,"plugin_version":"2.1.0","time_elapsed":265768},{"rt":null,"stimulus":"<div class=\"fixation\" style=\"font-size: 60px;\">+</div>","response":null,"trial_type":"html-keyboard-response","trial_index":59,"plugin_version":"2.1.0","time_elapsed":266779},{"target_group":"black","condition_label":"B_H_vs_W_L_rep2","target_direction":18,"distractor_direction":121,"session_rotation":277,"rt":-1,"response":"","correct":false,"choices":"ALL_KEYS","correct_choice":["a"],"trial_duration":2000,"flip_timestamps":[],"response_ends_trial":false,"number_of_apertures":200,"number_of_dots":[1,1,1,1,1,1,1,1,1,1,1,1,1,1,1,1,1,1,1,1,1,1,1,1,1,1,1,1,1,1,1,1,1,1,1,1,1,1,1,1,1,1,1,1,1,1,1,1,1,1,1,1,1,1,1,1,1,1,1,1,1,1,1,1,1,1,1,1,1,1,1,1,1,1,1,1,1,1,1,1,1,1,1,1,1,1,1,1,1,1,1,1,1,1,1,1,1,1,1,1,1,1,1,1,1,1,1,1,1,1,1,1,1,1,1,1,1,1,1,1,1,1,1,1,1,1,1,1,1,1,1,1,1,1,1,1,1,1,1,1,1,1,1,1,1,1,1,1,1,1,1,1,1,1,1,1,1,1,1,1,1,1,1,1,1,1,1,1,1,1,1,1,1,1,1,1,1,1,1,1,1,1,1,1,1,1,1,1,1,1,1,1,1,1,1,1,1,1,1,1],"number_of_sets":1,"coherent_direction":[18,121,121,121,121,18,18,18,121,18,18,18,18,18,121,18,18,18,121,121,18,121,18,121,18,18,18,18,121,18,18,18,121,18,121,121,18,18,121,121,121,121,18,18,18,18,121,18,18,121,121,18,18,18,121,18,18,18,121,18,121,18,121,18,18,121,121,121,18,121,18,121,18,121,18,121,18,121,121,18,121,18,121,121,18,121,121,18,121,18,18,18,18,121,121,121,121,121,121,18,18,18,18,18,121,121,18,121,18,121,121,121,18,121,121,18,121,18,121,18,121,18,121,121,18,18,121,18,121,121,18,18,18,121,121,121,121,18,18,18,121,121,18,121,121,18,18,121,18,18,18,121,121,121,121,18,18,18,18,18,18,121,18,121,18,18,121,121,121,121,121,121,121,18,121,121,18,121,18,121,18,121,121,18,121,121,18,18,121,18,121,18,121,121,18,121,121,121,18,121],"coherence":1,"opposite_coherence":0,"dot_radius":2,"dot_side_length":1,"dot_life":-1,"move_distance":1,"aperture_width":300,"aperture_height":300,"dot_color":["black","white","white","white","white","black","black","black","white","black","black","black","black","black","white","black","black","black","white","white","black","white","black","white","black","black","black","black","white","black","black","black","white","black","white","white","black","black","white","white","white","white","black","black","black","black","white","black","black","white","white","black","black","black","white","black","black","black","white","black","white","black","white","black","black","white","white","white","black","white","black","white","black","white","black","white","black","white","white","black","white","black","white","white","black","white","white","black","white","black","black","black","black","white","white","white","white","white","white","black","black","black","black","black","white","white","black","white","black","white","white","white","black","white","white","black","white","black","white","black","white","black","white","white","black","black","white","black","white","white","black","black","black","white","white","white","white","black","black","black","white","white","black","white","white","black","black","white","black","black","black","white","white","white","white","black","black","black","black","black","black","white","black","white","black","black","white","white","white","white","white","white","white","black","white","white","black","white","black","white","black","white","white","black","white","white","black","black","white","black","white","black","white","white","black","white","white","white","black","white"],"dot_shape":"circle","background_color":"#AAA","RDK_type":3,"aperture_type":2,"reinsert_type":2,"frame_rate":16.658333333333335,"frame_rate_array":[13,17,16,16,17,16,17,16,16,17,18,16,16,16,17,17,16,16,17,17,17,17,16,17,17,17,17,16,18,16,16,17,17,16,17,17,17,18,15,17,17,16,18,16,17,16,17,17,16,16,17,17,16,16,16,17,16,18,17,16,17,17,16,18,16,17,16,18,17,16,17,16,18,16,17,16,17,17,17,16,17,17,16,17,17,17,17,16,18,16,16,16,17,17,17,17,17,17,17,17,17,16,17,17,17,17,16,17,17,17,16,17,16,17,16,18,15,17,18,16],"number_of_frames":120,"aperture_center_x":800,"aperture_center_y":450,"fixation_cross":true,"fixation_cross_width":15,"fixation_cross_height":15,"fixation_cross_color":"#111","fixation_cross_thickness":1,"border":true,"border_thickness":2,"border_color":"transparent","canvas_width":1600,"canvas_height":900,"trial_type":"rdk","trial_index":60,"plugin_version":"2.0.0","time_elapsed":268790},{"rt":2785,"stimulus":"\n        <div class=\"response-container\">\n          <div class=\"response-instruction\">\n            <p>rotate the bar by using the left and right arrow keys.</p>\n            <p>when you are determined, press the Enter key.</p>\n          </div>\n          <div class=\"response-circle\">\n            <div class=\"response-fixation\"></div>\n            <div id=\"bar\" class=\"rotating-bar\"></div>\n          </div>\n        </div>\n      ","response":"Enter","trial_type":"html-keyboard-response","trial_index":61,"plugin_version":"2.1.0","time_elapsed":271575,"response_angle_css":88,"response_angle_rdk":2,"angular_error_target":-16,"angular_error_distractor":-119,"target_direction":18,"target_group":"black","reward_points":6},{"rt":null,"stimulus":"\n          <p style=\"color: #00FF00;\">Your reward: 6 points</p>\n        ","response":null,"trial_type":"html-keyboard-response","trial_index":62,"plugin_version":"2.1.0","time_elapsed":273586},{"rt":null,"stimulus":"<div class=\"fixation\" style=\"font-size: 60px;\">+</div>","response":null,"trial_type":"html-keyboard-response","trial_index":63,"plugin_version":"2.1.0","time_elapsed":274599},{"target_group":"black","condition_label":"B_H_vs_W_L_rep11","target_direction":42,"distractor_direction":132,"session_rotation":277,"rt":-1,"response":"","correct":false,"choices":"ALL_KEYS","correct_choice":["a"],"trial_duration":2000,"flip_timestamps":[],"response_ends_trial":false,"number_of_apertures":200,"number_of_dots":[1,1,1,1,1,1,1,1,1,1,1,1,1,1,1,1,1,1,1,1,1,1,1,1,1,1,1,1,1,1,1,1,1,1,1,1,1,1,1,1,1,1,1,1,1,1,1,1,1,1,1,1,1,1,1,1,1,1,1,1,1,1,1,1,1,1,1,1,1,1,1,1,1,1,1,1,1,1,1,1,1,1,1,1,1,1,1,1,1,1,1,1,1,1,1,1,1,1,1,1,1,1,1,1,1,1,1,1,1,1,1,1,1,1,1,1,1,1,1,1,1,1,1,1,1,1,1,1,1,1,1,1,1,1,1,1,1,1,1,1,1,1,1,1,1,1,1,1,1,1,1,1,1,1,1,1,1,1,1,1,1,1,1,1,1,1,1,1,1,1,1,1,1,1,1,1,1,1,1,1,1,1,1,1,1,1,1,1,1,1,1,1,1,1,1,1,1,1,1,1],"number_of_sets":1,"coherent_direction":[42,132,132,42,132,132,132,42,42,42,132,42,132,132,132,42,132,42,132,42,42,42,42,132,42,132,42,132,132,42,42,132,132,132,42,132,132,42,42,132,132,132,42,42,132,42,132,132,132,132,42,42,132,42,132,132,42,42,42,42,42,132,132,132,132,132,132,42,42,42,132,42,132,42,42,42,42,42,132,132,132,132,132,132,42,42,132,42,42,42,42,132,132,132,132,132,42,132,132,132,42,132,42,42,132,42,42,42,132,42,42,42,132,42,42,42,42,132,42,132,132,132,132,42,132,132,42,132,132,132,132,42,132,132,42,132,42,42,42,42,132,132,42,42,132,42,132,132,132,42,42,132,132,42,42,132,42,42,132,132,132,42,132,132,42,42,132,132,132,132,42,42,42,132,132,42,42,42,42,42,132,42,42,42,42,42,42,132,132,132,42,42,42,132,42,132,42,132,42,132],"coherence":1,"opposite_coherence":0,"dot_radius":2,"dot_side_length":1,"dot_life":-1,"move_distance":1,"aperture_width":300,"aperture_height":300,"dot_color":["black","white","white","black","white","white","white","black","black","black","white","black","white","white","white","black","white","black","white","black","black","black","black","white","black","white","black","white","white","black","black","white","white","white","black","white","white","black","black","white","white","white","black","black","white","black","white","white","white","white","black","black","white","black","white","white","black","black","black","black","black","white","white","white","white","white","white","black","black","black","white","black","white","black","black","black","black","black","white","white","white","white","white","white","black","black","white","black","black","black","black","white","white","white","white","white","black","white","white","white","black","white","black","black","white","black","black","black","white","black","black","black","white","black","black","black","black","white","black","white","white","white","white","black","white","white","black","white","white","white","white","black","white","white","black","white","black","black","black","black","white","white","black","black","white","black","white","white","white","black","black","white","white","black","black","white","black","black","white","white","white","black","white","white","black","black","white","white","white","white","black","black","black","white","white","black","black","black","black","black","white","black","black","black","black","black","black","white","white","white","black","black","black","white","black","white","black","white","black","white"],"dot_shape":"circle","background_color":"#AAA","RDK_type":3,"aperture_type":2,"reinsert_type":2,"frame_rate":16.708333333333332,"frame_rate_array":[9,16,17,17,17,17,17,17,17,17,16,17,17,16,17,17,17,16,17,17,17,17,16,16,18,16,17,17,17,18,16,17,17,16,17,17,17,16,17,17,16,18,16,17,17,17,17,16,17,18,15,16,16,18,17,16,17,16,18,16,18,17,17,17,17,17,16,17,16,17,17,17,16,16,18,16,18,17,17,17,16,17,18,15,17,17,17,16,17,17,17,17,16,17,16,16,17,17,16,17,18,17,16,17,16,17,16,17,16,17,17,17,16,17,17,17,17,17,17,17],"number_of_frames":120,"aperture_center_x":800,"aperture_center_y":450,"fixation_cross":true,"fixation_cross_width":15,"fixation_cross_height":15,"fixation_cross_color":"#111","fixation_cross_thickness":1,"border":true,"border_thickness":2,"border_color":"transparent","canvas_width":1600,"canvas_height":900,"trial_type":"rdk","trial_index":64,"plugin_version":"2.0.0","time_elapsed":276607},{"rt":2746,"stimulus":"\n        <div class=\"response-container\">\n          <div class=\"response-instruction\">\n            <p>rotate the bar by using the left and right arrow keys.</p>\n            <p>when you are determined, press the Enter key.</p>\n          </div>\n          <div class=\"response-circle\">\n            <div class=\"response-fixation\"></div>\n            <div id=\"bar\" class=\"rotating-bar\"></div>\n          </div>\n        </div>\n      ","response":"Enter","trial_type":"html-keyboard-response","trial_index":65,"plugin_version":"2.1.0","time_elapsed":279354,"response_angle_css":53,"response_angle_rdk":37,"angular_error_target":-5,"angular_error_distractor":-95,"target_direction":42,"target_group":"black","reward_points":9},{"rt":null,"stimulus":"\n          <p style=\"color: #00FF00;\">Your reward: 9 points</p>\n        ","response":null,"trial_type":"html-keyboard-response","trial_index":66,"plugin_version":"2.1.0","time_elapsed":281370},{"rt":null,"stimulus":"<div class=\"fixation\" style=\"font-size: 60px;\">+</div>","response":null,"trial_type":"html-keyboard-response","trial_index":67,"plugin_version":"2.1.0","time_elapsed":282381},{"target_group":"white","condition_label":"W_H_vs_B_L_rep23","target_direction":313,"distractor_direction":196,"session_rotation":277,"rt":-1,"response":"","correct":false,"choices":"ALL_KEYS","correct_choice":["a"],"trial_duration":2000,"flip_timestamps":[],"response_ends_trial":false,"number_of_apertures":200,"number_of_dots":[1,1,1,1,1,1,1,1,1,1,1,1,1,1,1,1,1,1,1,1,1,1,1,1,1,1,1,1,1,1,1,1,1,1,1,1,1,1,1,1,1,1,1,1,1,1,1,1,1,1,1,1,1,1,1,1,1,1,1,1,1,1,1,1,1,1,1,1,1,1,1,1,1,1,1,1,1,1,1,1,1,1,1,1,1,1,1,1,1,1,1,1,1,1,1,1,1,1,1,1,1,1,1,1,1,1,1,1,1,1,1,1,1,1,1,1,1,1,1,1,1,1,1,1,1,1,1,1,1,1,1,1,1,1,1,1,1,1,1,1,1,1,1,1,1,1,1,1,1,1,1,1,1,1,1,1,1,1,1,1,1,1,1,1,1,1,1,1,1,1,1,1,1,1,1,1,1,1,1,1,1,1,1,1,1,1,1,1,1,1,1,1,1,1,1,1,1,1,1,1],"number_of_sets":1,"coherent_direction":[196,313,196,196,196,313,196,313,313,196,313,313,196,313,313,313,196,313,196,196,313,313,196,313,196,196,313,313,196,313,196,313,196,313,196,313,196,196,313,313,313,196,196,313,313,196,313,313,313,196,196,313,196,196,196,196,196,196,196,196,313,313,196,196,313,313,313,196,196,313,196,313,313,313,196,196,313,313,313,313,196,313,313,196,196,313,196,313,313,196,313,196,196,196,196,196,196,196,313,313,313,313,313,313,313,196,313,196,196,196,196,196,196,313,313,196,196,196,196,313,313,313,196,196,196,313,196,196,313,313,313,313,313,196,313,313,313,313,196,313,313,196,196,313,196,196,196,196,313,196,196,196,313,196,196,196,196,313,313,196,196,313,196,313,196,313,313,196,313,313,313,313,196,196,313,313,313,313,196,313,313,313,313,196,313,196,313,196,196,196,313,196,313,196,313,196,196,196,313,313],"coherence":1,"opposite_coherence":0,"dot_radius":2,"dot_side_length":1,"dot_life":-1,"move_distance":1,"aperture_width":300,"aperture_height":300,"dot_color":["black","white","black","black","black","white","black","white","white","black","white","white","black","white","white","white","black","white","black","black","white","white","black","white","black","black","white","white","black","white","black","white","black","white","black","white","black","black","white","white","white","black","black","white","white","black","white","white","white","black","black","white","black","black","black","black","black","black","black","black","white","white","black","black","white","white","white","black","black","white","black","white","white","white","black","black","white","white","white","white","black","white","white","black","black","white","black","white","white","black","white","black","black","black","black","black","black","black","white","white","white","white","white","white","white","black","white","black","black","black","black","black","black","white","white","black","black","black","black","white","white","white","black","black","black","white","black","black","white","white","white","white","white","black","white","white","white","white","black","white","white","black","black","white","black","black","black","black","white","black","black","black","white","black","black","black","black","white","white","black","black","white","black","white","black","white","white","black","white","white","white","white","black","black","white","white","white","white","black","white","white","white","white","black","white","black","white","black","black","black","white","black","white","black","white","black","black","black","white","white"],"dot_shape":"circle","background_color":"#AAA","RDK_type":3,"aperture_type":2,"reinsert_type":2,"frame_rate":16.616666666666667,"frame_rate_array":[11,15,16,17,18,16,16,18,16,17,16,17,17,16,18,17,17,16,17,17,17,16,17,16,16,17,17,16,17,17,17,16,16,18,16,17,17,17,17,17,17,17,16,16,17,17,16,17,17,16,16,17,17,18,17,16,17,16,17,16,17,17,17,16,17,16,17,16,17,17,17,16,17,16,16,17,16,17,16,16,17,17,17,16,17,17,17,16,17,16,16,17,16,17,16,17,17,17,17,17,17,16,17,17,16,17,17,16,17,17,16,17,16,16,18,17,17,17,16,17],"number_of_frames":120,"aperture_center_x":800,"aperture_center_y":450,"fixation_cross":true,"fixation_cross_width":15,"fixation_cross_height":15,"fixation_cross_color":"#111","fixation_cross_thickness":1,"border":true,"border_thickness":2,"border_color":"transparent","canvas_width":1600,"canvas_height":900,"trial_type":"rdk","trial_index":68,"plugin_version":"2.0.0","time_elapsed":284390},{"rt":2677,"stimulus":"\n        <div class=\"response-container\">\n          <div class=\"response-instruction\">\n            <p>rotate the bar by using the left and right arrow keys.</p>\n            <p>when you are determined, press the Enter key.</p>\n          </div>\n          <div class=\"response-circle\">\n            <div class=\"response-fixation\"></div>\n            <div id=\"bar\" class=\"rotating-bar\"></div>\n          </div>\n        </div>\n      ","response":"Enter","trial_type":"html-keyboard-response","trial_index":69,"plugin_version":"2.1.0","time_elapsed":287068,"response_angle_css":239,"response_angle_rdk":211,"angular_error_target":-102,"angular_error_distractor":15,"target_direction":313,"target_group":"white","reward_points":0},{"rt":null,"stimulus":"\n          <p style=\"color: #FF3333;\">Your reward: 0 points</p>\n        ","response":null,"trial_type":"html-keyboard-response","trial_index":70,"plugin_version":"2.1.0","time_elapsed":289081},{"rt":null,"stimulus":"<div class=\"fixation\" style=\"font-size: 60px;\">+</div>","response":null,"trial_type":"html-keyboard-response","trial_index":71,"plugin_version":"2.1.0","time_elapsed":290094},{"target_group":"white","condition_label":"W_H_vs_B_L_rep18","target_direction":313,"distractor_direction":202,"session_rotation":277,"rt":-1,"response":"","correct":false,"choices":"ALL_KEYS","correct_choice":["a"],"trial_duration":2000,"flip_timestamps":[],"response_ends_trial":false,"number_of_apertures":200,"number_of_dots":[1,1,1,1,1,1,1,1,1,1,1,1,1,1,1,1,1,1,1,1,1,1,1,1,1,1,1,1,1,1,1,1,1,1,1,1,1,1,1,1,1,1,1,1,1,1,1,1,1,1,1,1,1,1,1,1,1,1,1,1,1,1,1,1,1,1,1,1,1,1,1,1,1,1,1,1,1,1,1,1,1,1,1,1,1,1,1,1,1,1,1,1,1,1,1,1,1,1,1,1,1,1,1,1,1,1,1,1,1,1,1,1,1,1,1,1,1,1,1,1,1,1,1,1,1,1,1,1,1,1,1,1,1,1,1,1,1,1,1,1,1,1,1,1,1,1,1,1,1,1,1,1,1,1,1,1,1,1,1,1,1,1,1,1,1,1,1,1,1,1,1,1,1,1,1,1,1,1,1,1,1,1,1,1,1,1,1,1,1,1,1,1,1,1,1,1,1,1,1,1],"number_of_sets":1,"coherent_direction":[202,313,202,202,313,313,313,313,202,313,313,202,202,202,202,313,202,313,313,313,202,202,313,313,202,313,202,313,202,202,313,313,202,313,313,202,313,313,313,202,202,313,202,313,313,313,313,313,313,313,313,202,313,202,202,202,202,202,313,313,202,313,202,202,202,313,202,202,313,313,313,313,202,313,313,202,202,313,202,313,202,313,313,202,313,202,313,202,313,313,202,313,313,313,202,313,202,202,313,313,313,313,313,313,313,202,202,313,202,202,202,202,202,202,313,202,313,313,313,202,202,202,202,313,313,313,313,313,202,313,202,313,202,313,202,202,202,313,202,202,202,313,202,202,202,202,313,202,313,202,202,313,202,313,202,202,202,313,313,202,313,313,202,202,313,202,202,202,202,202,313,313,202,313,313,313,313,202,202,313,202,202,313,313,202,202,202,202,202,202,202,202,313,313,202,313,202,313,313,313],"coherence":1,"opposite_coherence":0,"dot_radius":2,"dot_side_length":1,"dot_life":-1,"move_distance":1,"aperture_width":300,"aperture_height":300,"dot_color":["black","white","black","black","white","white","white","white","black","white","white","black","black","black","black","white","black","white","white","white","black","black","white","white","black","white","black","white","black","black","white","white","black","white","white","black","white","white","white","black","black","white","black","white","white","white","white","white","white","white","white","black","white","black","black","black","black","black","white","white","black","white","black","black","black","white","black","black","white","white","white","white","black","white","white","black","black","white","black","white","black","white","white","black","white","black","white","black","white","white","black","white","white","white","black","white","black","black","white","white","white","white","white","white","white","black","black","white","black","black","black","black","black","black","white","black","white","white","white","black","black","black","black","white","white","white","white","white","black","white","black","white","black","white","black","black","black","white","black","black","black","white","black","black","black","black","white","black","white","black","black","white","black","white","black","black","black","white","white","black","white","white","black","black","white","black","black","black","black","black","white","white","black","white","white","white","white","black","black","white","black","black","white","white","black","black","black","black","black","black","black","black","white","white","black","white","black","white","white","white"],"dot_shape":"circle","background_color":"#AAA","RDK_type":3,"aperture_type":2,"reinsert_type":2,"frame_rate":16.694214876033058,"frame_rate_array":[10,16,17,17,17,17,17,17,16,16,17,17,17,17,16,17,17,18,17,17,15,17,17,17,17,16,17,16,17,17,16,17,18,16,16,17,17,16,17,17,17,18,16,17,17,17,17,16,16,17,17,17,17,18,16,16,17,16,17,16,16,18,16,17,17,16,17,16,17,16,17,17,17,17,16,17,17,16,18,17,17,16,16,17,17,17,17,17,16,16,18,17,17,17,17,17,17,17,16,17,17,16,17,17,17,16,18,16,17,17,15,17,17,17,16,17,17,17,17,16,17],"number_of_frames":121,"aperture_center_x":800,"aperture_center_y":450,"fixation_cross":true,"fixation_cross_width":15,"fixation_cross_height":15,"fixation_cross_color":"#111","fixation_cross_thickness":1,"border":true,"border_thickness":2,"border_color":"transparent","canvas_width":1600,"canvas_height":900,"trial_type":"rdk","trial_index":72,"plugin_version":"2.0.0","time_elapsed":292112},{"rt":3340,"stimulus":"\n        <div class=\"response-container\">\n          <div class=\"response-instruction\">\n            <p>rotate the bar by using the left and right arrow keys.</p>\n            <p>when you are determined, press the Enter key.</p>\n          </div>\n          <div class=\"response-circle\">\n            <div class=\"response-fixation\"></div>\n            <div id=\"bar\" class=\"rotating-bar\"></div>\n          </div>\n        </div>\n      ","response":"Enter","trial_type":"html-keyboard-response","trial_index":73,"plugin_version":"2.1.0","time_elapsed":295453,"response_angle_css":-110,"response_angle_rdk":200,"angular_error_target":-113,"angular_error_distractor":-2,"target_direction":313,"target_group":"white","reward_points":0},{"rt":null,"stimulus":"\n          <p style=\"color: #FF3333;\">Your reward: 0 points</p>\n        ","response":null,"trial_type":"html-keyboard-response","trial_index":74,"plugin_version":"2.1.0","time_elapsed":297462},{"rt":null,"stimulus":"<div class=\"fixation\" style=\"font-size: 60px;\">+</div>","response":null,"trial_type":"html-keyboard-response","trial_index":75,"plugin_version":"2.1.0","time_elapsed":298473},{"target_group":"white","condition_label":"W_H_vs_B_L_rep17","target_direction":319,"distractor_direction":200,"session_rotation":277,"rt":-1,"response":"","correct":false,"choices":"ALL_KEYS","correct_choice":["a"],"trial_duration":2000,"flip_timestamps":[],"response_ends_trial":false,"number_of_apertures":200,"number_of_dots":[1,1,1,1,1,1,1,1,1,1,1,1,1,1,1,1,1,1,1,1,1,1,1,1,1,1,1,1,1,1,1,1,1,1,1,1,1,1,1,1,1,1,1,1,1,1,1,1,1,1,1,1,1,1,1,1,1,1,1,1,1,1,1,1,1,1,1,1,1,1,1,1,1,1,1,1,1,1,1,1,1,1,1,1,1,1,1,1,1,1,1,1,1,1,1,1,1,1,1,1,1,1,1,1,1,1,1,1,1,1,1,1,1,1,1,1,1,1,1,1,1,1,1,1,1,1,1,1,1,1,1,1,1,1,1,1,1,1,1,1,1,1,1,1,1,1,1,1,1,1,1,1,1,1,1,1,1,1,1,1,1,1,1,1,1,1,1,1,1,1,1,1,1,1,1,1,1,1,1,1,1,1,1,1,1,1,1,1,1,1,1,1,1,1,1,1,1,1,1,1],"number_of_sets":1,"coherent_direction":[200,200,319,200,200,319,200,319,319,319,200,200,319,200,319,200,319,200,200,200,200,319,319,319,200,200,200,319,200,200,319,319,200,319,200,200,319,319,319,319,200,319,200,319,319,319,200,319,200,319,319,319,200,200,319,200,200,200,200,200,319,319,200,200,319,200,200,319,319,200,319,319,200,200,319,200,319,319,200,319,319,200,319,200,200,319,200,200,319,319,200,319,200,319,200,200,200,200,319,319,319,319,319,200,319,319,319,319,319,200,319,319,319,319,200,200,200,319,200,200,319,319,200,200,319,319,319,200,200,200,319,319,200,319,319,200,200,319,200,200,319,200,200,200,319,200,319,319,319,319,200,200,319,319,319,319,200,200,319,200,319,200,200,200,319,200,200,200,319,319,200,319,200,319,200,319,200,319,200,319,200,319,200,319,200,319,200,319,200,200,200,319,319,200,200,319,200,200,319,319],"coherence":1,"opposite_coherence":0,"dot_radius":2,"dot_side_length":1,"dot_life":-1,"move_distance":1,"aperture_width":300,"aperture_height":300,"dot_color":["black","black","white","black","black","white","black","white","white","white","black","black","white","black","white","black","white","black","black","black","black","white","white","white","black","black","black","white","black","black","white","white","black","white","black","black","white","white","white","white","black","white","black","white","white","white","black","white","black","white","white","white","black","black","white","black","black","black","black","black","white","white","black","black","white","black","black","white","white","black","white","white","black","black","white","black","white","white","black","white","white","black","white","black","black","white","black","black","white","white","black","white","black","white","black","black","black","black","white","white","white","white","white","black","white","white","white","white","white","black","white","white","white","white","black","black","black","white","black","black","white","white","black","black","white","white","white","black","black","black","white","white","black","white","white","black","black","white","black","black","white","black","black","black","white","black","white","white","white","white","black","black","white","white","white","white","black","black","white","black","white","black","black","black","white","black","black","black","white","white","black","white","black","white","black","white","black","white","black","white","black","white","black","white","black","white","black","white","black","black","black","white","white","black","black","white","black","black","white","white"],"dot_shape":"circle","background_color":"#AAA","RDK_type":3,"aperture_type":2,"reinsert_type":2,"frame_rate":16.578512396694215,"frame_rate_array":[3,9,16,18,16,18,16,16,18,16,17,16,16,17,16,17,17,17,17,17,17,17,17,17,17,16,17,17,17,17,17,17,17,16,17,17,16,16,17,17,16,16,18,17,16,17,16,17,17,16,17,16,17,17,17,18,16,17,16,17,17,16,17,17,17,17,17,17,17,17,17,17,17,17,17,16,17,16,18,16,17,17,17,17,17,16,17,17,16,16,17,17,18,17,17,16,16,18,17,16,17,16,17,17,17,17,16,17,15,17,17,18,17,16,15,17,17,17,16,17,17],"number_of_frames":121,"aperture_center_x":800,"aperture_center_y":450,"fixation_cross":true,"fixation_cross_width":15,"fixation_cross_height":15,"fixation_cross_color":"#111","fixation_cross_thickness":1,"border":true,"border_thickness":2,"border_color":"transparent","canvas_width":1600,"canvas_height":900,"trial_type":"rdk","trial_index":76,"plugin_version":"2.0.0","time_elapsed":300485},{"rt":3942,"stimulus":"\n        <div class=\"response-container\">\n          <div class=\"response-instruction\">\n            <p>rotate the bar by using the left and right arrow keys.</p>\n            <p>when you are determined, press the Enter key.</p>\n          </div>\n          <div class=\"response-circle\">\n            <div class=\"response-fixation\"></div>\n            <div id=\"bar\" class=\"rotating-bar\"></div>\n          </div>\n        </div>\n      ","response":"Enter","trial_type":"html-keyboard-response","trial_index":77,"plugin_version":"2.1.0","time_elapsed":304429,"response_angle_css":261,"response_angle_rdk":189,"angular_error_target":-130,"angular_error_distractor":-11,"target_direction":319,"target_group":"white","reward_points":0},{"rt":null,"stimulus":"\n          <p style=\"color: #FF3333;\">Your reward: 0 points</p>\n        ","response":null,"trial_type":"html-keyboard-response","trial_index":78,"plugin_version":"2.1.0","time_elapsed":306431},{"rt":null,"stimulus":"<div class=\"fixation\" style=\"font-size: 60px;\">+</div>","response":null,"trial_type":"html-keyboard-response","trial_index":79,"plugin_version":"2.1.0","time_elapsed":307446},{"target_group":"black","condition_label":"B_H_vs_W_L_rep10","target_direction":20,"distractor_direction":140,"session_rotation":277,"rt":-1,"response":"","correct":false,"choices":"ALL_KEYS","correct_choice":["a"],"trial_duration":2000,"flip_timestamps":[],"response_ends_trial":false,"number_of_apertures":200,"number_of_dots":[1,1,1,1,1,1,1,1,1,1,1,1,1,1,1,1,1,1,1,1,1,1,1,1,1,1,1,1,1,1,1,1,1,1,1,1,1,1,1,1,1,1,1,1,1,1,1,1,1,1,1,1,1,1,1,1,1,1,1,1,1,1,1,1,1,1,1,1,1,1,1,1,1,1,1,1,1,1,1,1,1,1,1,1,1,1,1,1,1,1,1,1,1,1,1,1,1,1,1,1,1,1,1,1,1,1,1,1,1,1,1,1,1,1,1,1,1,1,1,1,1,1,1,1,1,1,1,1,1,1,1,1,1,1,1,1,1,1,1,1,1,1,1,1,1,1,1,1,1,1,1,1,1,1,1,1,1,1,1,1,1,1,1,1,1,1,1,1,1,1,1,1,1,1,1,1,1,1,1,1,1,1,1,1,1,1,1,1,1,1,1,1,1,1,1,1,1,1,1,1],"number_of_sets":1,"coherent_direction":[20,20,20,20,20,140,140,140,20,140,20,140,20,20,140,140,20,20,20,20,20,140,140,20,140,20,20,20,140,20,140,140,140,140,140,20,140,20,20,140,20,140,20,140,140,140,140,20,140,140,140,140,20,20,140,20,140,20,140,140,140,140,20,140,140,20,140,20,140,140,140,20,140,20,140,20,140,140,20,140,140,140,140,20,140,20,140,140,20,140,140,140,20,20,20,140,20,20,20,140,20,20,20,140,140,140,140,20,20,140,20,140,20,140,140,20,20,20,140,140,140,20,20,20,20,20,20,20,20,140,140,20,140,140,140,140,20,20,140,20,20,140,20,20,20,20,140,20,20,20,140,140,140,140,140,140,140,20,20,20,140,140,140,140,140,20,20,20,20,20,20,140,20,20,20,140,140,20,20,140,140,20,140,20,140,140,20,140,20,140,20,140,140,20,20,20,140,20,20,20],"coherence":1,"opposite_coherence":0,"dot_radius":2,"dot_side_length":1,"dot_life":-1,"move_distance":1,"aperture_width":300,"aperture_height":300,"dot_color":["black","black","black","black","black","white","white","white","black","white","black","white","black","black","white","white","black","black","black","black","black","white","white","black","white","black","black","black","white","black","white","white","white","white","white","black","white","black","black","white","black","white","black","white","white","white","white","black","white","white","white","white","black","black","white","black","white","black","white","white","white","white","black","white","white","black","white","black","white","white","white","black","white","black","white","black","white","white","black","white","white","white","white","black","white","black","white","white","black","white","white","white","black","black","black","white","black","black","black","white","black","black","black","white","white","white","white","black","black","white","black","white","black","white","white","black","black","black","white","white","white","black","black","black","black","black","black","black","black","white","white","black","white","white","white","white","black","black","white","black","black","white","black","black","black","black","white","black","black","black","white","white","white","white","white","white","white","black","black","black","white","white","white","white","white","black","black","black","black","black","black","white","black","black","black","white","white","black","black","white","white","black","white","black","