[{"rt":3778,"stimulus":"Welcome to the experiment. Press any key to begin.","response":" ","trial_type":"html-keyboard-response","trial_index":0,"plugin_version":"2.1.0","time_elapsed":3785},{"rt":77442,"stimulus":"\n        <div class=\"instructions-container\">\n          <h2>Instructions</h2>\n\n          <p>\n          In this experiment, you will see <strong>two Random Dot Kinematograms (RDKs)</strong> displayed simultaneously.\n          </p>\n\n          <p>\n          An RDK is a visual stimulus consisting of many small dots that move coherently in a single direction. \n          In this experiment, the dots will be either <strong>white</strong> or <strong>black</strong> \n          (see the short demo below for an example of an RDK stimulus).\n          </p>\n\n          <p>\n          On each trial, the two RDKs will move in different directions. \n          Your task is to decide <strong>which RDK appears to contain more dots</strong>.\n          </p>\n\n          <p>\n          The RDK that you judge to have more dots is called the <strong>target RDK</strong>. \n          For example, if the white RDK appears to have more dots than the black RDK, \n          you should report the motion direction of the white RDK.\n          </p>\n\n          <p>\n          After viewing the RDKs, you will rotate a bar to indicate the perceived direction of the target RDK \n          using the <strong>left</strong> and <strong>right arrow keys</strong>. \n          Press <strong>Enter</strong> when you are satisfied with your response.\n          When the bar is held down, the rotation speed increases.\n          </p>\n\n          <p>\n          You will receive points based on the <strong>accuracy of your response</strong>, \n          and your final <strong>bonus reward</strong> may depend on your overall performance. \n          Please try to respond as accurately as possible.\n          </p>\n\n          <p>\n          You will first complete <strong>16 practice trials</strong>. \n          Press the <strong>Enter</strong> key to start the practice phase.\n          </p>\n\n          <canvas id=\"instruction-demo-rdk\" width=\"200\" height=\"200\"style=\"display:block;margin:12px auto; border-radius: 50%;\"></canvas>\n        </div>\n      ","response":"Enter","trial_type":"html-keyboard-response","trial_index":1,"plugin_version":"2.1.0","time_elapsed":81236},{"rt":null,"stimulus":"<div class=\"fixation\" style=\"font-size: 60px;\">+</div>","response":null,"trial_type":"html-keyboard-response","trial_index":2,"plugin_version":"2.1.0","time_elapsed":82244},{"target_group":"white","target_index":0,"condition_label":"practice","rt":-1,"response":"","correct":false,"choices":"ALL_KEYS","correct_choice":["a"],"trial_duration":2000,"flip_timestamps":[],"response_ends_trial":false,"number_of_apertures":2,"number_of_dots":[100,52],"number_of_sets":1,"coherent_direction":[21,175],"coherence":1,"opposite_coherence":0,"dot_radius":2,"dot_side_length":1,"dot_life":-1,"move_distance":1,"aperture_width":300,"aperture_height":300,"dot_color":["white","black"],"dot_shape":"circle","background_color":"#AAA","RDK_type":3,"aperture_type":2,"reinsert_type":2,"frame_rate":16.923728813559322,"frame_rate_array":[6,23,3,65,6,15,16,17,18,15,16,18,16,17,17,17,17,17,16,17,17,17,16,17,17,17,17,16,17,16,17,17,18,16,17,17,16,17,17,17,17,17,17,17,16,18,16,17,17,16,17,17,16,19,15,17,17,17,17,17,16,18,16,21,13,16,16,17,16,16,16,17,17,17,17,17,17,16,17,17,17,16,17,16,17,17,17,17,17,17,17,17,16,17,16,17,17,18,17,16,16,16,17,17,17,17,17,17,17,17,17,17,17,17,17,16,17,17],"number_of_frames":118,"aperture_center_x":960,"aperture_center_y":540,"fixation_cross":true,"fixation_cross_width":15,"fixation_cross_height":15,"fixation_cross_color":"#111","fixation_cross_thickness":1,"border":true,"border_thickness":2,"border_color":"transparent","canvas_width":1920,"canvas_height":1080,"trial_type":"rdk","trial_index":3,"plugin_version":"2.0.0","time_elapsed":84253,"phase":"practice","target_direction":21,"distractor_direction":175},{"rt":19180,"stimulus":"\n        <div class=\"response-container\">\n          <div class=\"response-instruction\">\n            <p>rotate the bar by using the left and right arrow keys.</p>\n            <p>when you are determined, press the Enter key.</p>\n          </div>\n          <div class=\"response-circle\">\n            <div class=\"response-fixation\"></div>\n            <div id=\"bar\" class=\"rotating-bar\"></div>\n          </div>\n        </div>\n      ","response":"Enter","trial_type":"html-keyboard-response","trial_index":4,"plugin_version":"2.1.0","time_elapsed":103436,"random_initial_angle":313,"response_angle_css":288,"response_angle_rdk":162,"angular_error_target":141,"angular_error_distractor":-13,"target_direction":21,"target_group":"white","reward_points":0},{"rt":null,"stimulus":"\n          <p style=\"color: #FF3333;\">Your reward: 0 points</p>\n        ","response":null,"trial_type":"html-keyboard-response","trial_index":5,"plugin_version":"2.1.0","time_elapsed":105443},{"rt":null,"stimulus":"<div class=\"fixation\" style=\"font-size: 60px;\">+</div>","response":null,"trial_type":"html-keyboard-response","trial_index":6,"plugin_version":"2.1.0","time_elapsed":106448},{"target_group":"black","target_index":1,"condition_label":"practice","rt":-1,"response":"","correct":false,"choices":"ALL_KEYS","correct_choice":["a"],"trial_duration":2000,"flip_timestamps":[],"response_ends_trial":false,"number_of_apertures":2,"number_of_dots":[87,100],"number_of_sets":1,"coherent_direction":[237,111],"coherence":1,"opposite_coherence":0,"dot_radius":2,"dot_side_length":1,"dot_life":-1,"move_distance":1,"aperture_width":300,"aperture_height":300,"dot_color":["white","black"],"dot_shape":"circle","background_color":"#AAA","RDK_type":3,"aperture_type":2,"reinsert_type":2,"frame_rate":16.949579831932773,"frame_rate_array":[9,11,23,39,16,17,17,17,17,17,17,17,16,17,16,16,17,16,17,17,17,17,17,17,17,17,17,17,16,17,17,17,17,17,16,17,17,17,17,17,17,17,16,17,17,17,17,17,17,17,17,17,17,16,17,17,17,17,16,17,17,17,17,17,17,17,17,16,17,16,17,17,17,17,17,16,17,17,16,17,16,19,18,17,17,17,16,18,16,17,16,16,17,17,16,17,18,15,17,17,17,17,16,17,18,16,18,17,17,15,17,17,17,17,17,18,16,16,17],"number_of_frames":119,"aperture_center_x":960,"aperture_center_y":540,"fixation_cross":true,"fixation_cross_width":15,"fixation_cross_height":15,"fixation_cross_color":"#111","fixation_cross_thickness":1,"border":true,"border_thickness":2,"border_color":"transparent","canvas_width":1920,"canvas_height":1080,"trial_type":"rdk","trial_index":7,"plugin_version":"2.0.0","time_elapsed":108456,"phase":"practice","target_direction":111,"distractor_direction":237},{"rt":11837,"stimulus":"\n        <div class=\"response-container\">\n          <div class=\"response-instruction\">\n            <p>rotate the bar by using the left and right arrow keys.</p>\n            <p>when you are determined, press the Enter key.</p>\n          </div>\n          <div class=\"response-circle\">\n            <div class=\"response-fixation\"></div>\n            <div id=\"bar\" class=\"rotating-bar\"></div>\n          </div>\n        </div>\n      ","response":"Enter","trial_type":"html-keyboard-response","trial_index":8,"plugin_version":"2.1.0","time_elapsed":120294,"random_initial_angle":165,"response_angle_css":336,"response_angle_rdk":114,"angular_error_target":3,"angular_error_distractor":-123,"target_direction":111,"target_group":"black","reward_points":9},{"rt":null,"stimulus":"\n          <p style=\"color: #00FF00;\">Your reward: 9 points</p>\n        ","response":null,"trial_type":"html-keyboard-response","trial_index":9,"plugin_version":"2.1.0","time_elapsed":122309},{"rt":null,"stimulus":"<div class=\"fixation\" style=\"font-size: 60px;\">+</div>","response":null,"trial_type":"html-keyboard-response","trial_index":10,"plugin_version":"2.1.0","time_elapsed":123325},{"target_group":"white","target_index":0,"condition_label":"practice","rt":-1,"response":"","correct":false,"choices":"ALL_KEYS","correct_choice":["a"],"trial_duration":2000,"flip_timestamps":[],"response_ends_trial":false,"number_of_apertures":2,"number_of_dots":[100,95],"number_of_sets":1,"coherent_direction":[119,282],"coherence":1,"opposite_coherence":0,"dot_radius":2,"dot_side_length":1,"dot_life":-1,"move_distance":1,"aperture_width":300,"aperture_height":300,"dot_color":["white","black"],"dot_shape":"circle","background_color":"#AAA","RDK_type":3,"aperture_type":2,"reinsert_type":2,"frame_rate":16.831932773109244,"frame_rate_array":[6,35,2,35,14,17,17,17,17,16,17,17,16,17,17,16,17,16,17,17,16,17,17,17,17,16,17,17,16,18,16,17,17,16,17,17,17,17,17,17,17,17,16,16,17,17,17,16,17,17,18,17,16,17,17,16,17,17,17,17,17,16,17,19,15,16,16,18,16,18,17,16,16,16,17,17,17,16,16,17,17,17,16,17,17,16,17,17,17,17,17,17,17,16,17,18,17,16,17,16,17,17,17,17,18,16,17,17,16,17,16,16,17,17,16,17,17,17,17],"number_of_frames":119,"aperture_center_x":960,"aperture_center_y":540,"fixation_cross":true,"fixation_cross_width":15,"fixation_cross_height":15,"fixation_cross_color":"#111","fixation_cross_thickness":1,"border":true,"border_thickness":2,"border_color":"transparent","canvas_width":1920,"canvas_height":1080,"trial_type":"rdk","trial_index":11,"plugin_version":"2.0.0","time_elapsed":125330,"phase":"practice","target_direction":119,"distractor_direction":282},{"rt":10557,"stimulus":"\n        <div class=\"response-container\">\n          <div class=\"response-instruction\">\n            <p>rotate the bar by using the left and right arrow keys.</p>\n            <p>when you are determined, press the Enter key.</p>\n          </div>\n          <div class=\"response-circle\">\n            <div class=\"response-fixation\"></div>\n            <div id=\"bar\" class=\"rotating-bar\"></div>\n          </div>\n        </div>\n      ","response":"Enter","trial_type":"html-keyboard-response","trial_index":12,"plugin_version":"2.1.0","time_elapsed":135888,"random_initial_angle":257,"response_angle_css":149,"response_angle_rdk":301,"angular_error_target":-178,"angular_error_distractor":19,"target_direction":119,"target_group":"white","reward_points":0},{"rt":null,"stimulus":"\n          <p style=\"color: #FF3333;\">Your reward: 0 points</p>\n        ","response":null,"trial_type":"html-keyboard-response","trial_index":13,"plugin_version":"2.1.0","time_elapsed":137891},{"rt":null,"stimulus":"<div class=\"fixation\" style=\"font-size: 60px;\">+</div>","response":null,"trial_type":"html-keyboard-response","trial_index":14,"plugin_version":"2.1.0","time_elapsed":138901},{"target_group":"white","target_index":0,"condition_label":"practice","rt":-1,"response":"","correct":false,"choices":"ALL_KEYS","correct_choice":["a"],"trial_duration":2000,"flip_timestamps":[],"response_ends_trial":false,"number_of_apertures":2,"number_of_dots":[100,57],"number_of_sets":1,"coherent_direction":[17,121],"coherence":1,"opposite_coherence":0,"dot_radius":2,"dot_side_length":1,"dot_life":-1,"move_distance":1,"aperture_width":300,"aperture_height":300,"dot_color":["white","black"],"dot_shape":"circle","background_color":"#AAA","RDK_type":3,"aperture_type":2,"reinsert_type":2,"frame_rate":17.033898305084747,"frame_rate_array":[13,17,50,17,17,17,17,17,17,17,17,16,17,17,17,16,17,17,17,17,17,16,16,17,17,17,17,16,17,17,17,17,17,16,17,17,17,17,17,17,17,17,17,16,17,17,16,17,17,17,16,17,17,16,17,17,17,16,17,17,17,17,16,17,17,17,17,17,17,17,16,16,17,17,17,17,17,17,17,16,16,16,17,17,17,17,17,16,16,17,16,17,16,17,17,17,17,17,17,17,17,17,17,17,16,17,17,17,16,17,16,17,17,17,17,17,17,16],"number_of_frames":118,"aperture_center_x":960,"aperture_center_y":540,"fixation_cross":true,"fixation_cross_width":15,"fixation_cross_height":15,"fixation_cross_color":"#111","fixation_cross_thickness":1,"border":true,"border_thickness":2,"border_color":"transparent","canvas_width":1920,"canvas_height":1080,"trial_type":"rdk","trial_index":15,"plugin_version":"2.0.0","time_elapsed":140917,"phase":"practice","target_direction":17,"distractor_direction":121},{"rt":11159,"stimulus":"\n        <div class=\"response-container\">\n          <div class=\"response-instruction\">\n            <p>rotate the bar by using the left and right arrow keys.</p>\n            <p>when you are determined, press the Enter key.</p>\n          </div>\n          <div class=\"response-circle\">\n            <div class=\"response-fixation\"></div>\n            <div id=\"bar\" class=\"rotating-bar\"></div>\n          </div>\n        </div>\n      ","response":"Enter","trial_type":"html-keyboard-response","trial_index":16,"plugin_version":"2.1.0","time_elapsed":152077,"random_initial_angle":242,"response_angle_css":423,"response_angle_rdk":27,"angular_error_target":10,"angular_error_distractor":-94,"target_direction":17,"target_group":"white","reward_points":8},{"rt":null,"stimulus":"\n          <p style=\"color: #00FF00;\">Your reward: 8 points</p>\n        ","response":null,"trial_type":"html-keyboard-response","trial_index":17,"plugin_version":"2.1.0","time_elapsed":154084},{"rt":null,"stimulus":"<div class=\"fixation\" style=\"font-size: 60px;\">+</div>","response":null,"trial_type":"html-keyboard-response","trial_index":18,"plugin_version":"2.1.0","time_elapsed":155093},{"target_group":"white","target_index":0,"condition_label":"practice","rt":-1,"response":"","correct":false,"choices":"ALL_KEYS","correct_choice":["a"],"trial_duration":2000,"flip_timestamps":[],"response_ends_trial":false,"number_of_apertures":2,"number_of_dots":[100,77],"number_of_sets":1,"coherent_direction":[37,253],"coherence":1,"opposite_coherence":0,"dot_radius":2,"dot_side_length":1,"dot_life":-1,"move_distance":1,"aperture_width":300,"aperture_height":300,"dot_color":["white","black"],"dot_shape":"circle","background_color":"#AAA","RDK_type":3,"aperture_type":2,"reinsert_type":2,"frame_rate":17.135593220338983,"frame_rate_array":[14,8,16,67,16,17,17,17,17,17,17,17,17,17,17,16,17,17,17,17,17,17,17,17,16,17,17,17,17,17,17,18,15,17,17,16,17,17,16,17,17,17,17,17,16,17,17,16,17,17,17,17,16,17,17,17,17,16,17,17,17,17,17,17,17,17,17,17,17,17,16,16,17,17,17,17,17,17,17,17,17,17,17,16,16,17,17,16,17,17,17,17,16,17,17,17,17,17,17,17,17,17,16,17,17,17,17,16,17,16,17,16,17,17,17,16,17,17],"number_of_frames":118,"aperture_center_x":960,"aperture_center_y":540,"fixation_cross":true,"fixation_cross_width":15,"fixation_cross_height":15,"fixation_cross_color":"#111","fixation_cross_thickness":1,"border":true,"border_thickness":2,"border_color":"transparent","canvas_width":1920,"canvas_height":1080,"trial_type":"rdk","trial_index":19,"plugin_version":"2.0.0","time_elapsed":157102,"phase":"practice","target_direction":37,"distractor_direction":253},{"rt":7054,"stimulus":"\n        <div class=\"response-container\">\n          <div class=\"response-instruction\">\n            <p>rotate the bar by using the left and right arrow keys.</p>\n            <p>when you are determined, press the Enter key.</p>\n          </div>\n          <div class=\"response-circle\">\n            <div class=\"response-fixation\"></div>\n            <div id=\"bar\" class=\"rotating-bar\"></div>\n          </div>\n        </div>\n      ","response":"Enter","trial_type":"html-keyboard-response","trial_index":20,"plugin_version":"2.1.0","time_elapsed":164157,"random_initial_angle":94,"response_angle_css":49,"response_angle_rdk":41,"angular_error_target":4,"angular_error_distractor":148,"target_direction":37,"target_group":"white","reward_points":9},{"rt":null,"stimulus":"\n          <p style=\"color: #00FF00;\">Your reward: 9 points</p>\n        ","response":null,"trial_type":"html-keyboard-response","trial_index":21,"plugin_version":"2.1.0","time_elapsed":166165},{"rt":null,"stimulus":"<div class=\"fixation\" style=\"font-size: 60px;\">+</div>","response":null,"trial_type":"html-keyboard-response","trial_index":22,"plugin_version":"2.1.0","time_elapsed":167183},{"target_group":"black","target_index":1,"condition_label":"practice","rt":-1,"response":"","correct":false,"choices":"ALL_KEYS","correct_choice":["a"],"trial_duration":2000,"flip_timestamps":[],"response_ends_trial":false,"number_of_apertures":2,"number_of_dots":[90,100],"number_of_sets":1,"coherent_direction":[72,319],"coherence":1,"opposite_coherence":0,"dot_radius":2,"dot_side_length":1,"dot_life":-1,"move_distance":1,"aperture_width":300,"aperture_height":300,"dot_color":["white","black"],"dot_shape":"circle","background_color":"#AAA","RDK_type":3,"aperture_type":2,"reinsert_type":2,"frame_rate":17.076271186440678,"frame_rate_array":[14,16,51,17,17,16,16,16,17,17,17,17,17,17,17,17,17,16,18,16,17,16,17,16,17,17,17,17,17,16,17,17,17,17,17,17,17,17,17,16,17,16,17,17,16,17,16,17,17,17,16,16,17,17,17,16,17,17,17,17,16,17,17,17,17,17,17,16,17,17,16,17,17,17,17,17,17,17,17,17,17,17,17,17,17,17,17,17,17,17,17,17,17,17,17,17,17,17,17,17,17,17,17,17,17,16,17,17,17,17,16,17,16,17,17,16,17,17],"number_of_frames":118,"aperture_center_x":960,"aperture_center_y":540,"fixation_cross":true,"fixation_cross_width":15,"fixation_cross_height":15,"fixation_cross_color":"#111","fixation_cross_thickness":1,"border":true,"border_thickness":2,"border_color":"transparent","canvas_width":1920,"canvas_height":1080,"trial_type":"rdk","trial_index":23,"plugin_version":"2.0.0","time_elapsed":169200,"phase":"practice","target_direction":319,"distractor_direction":72},{"rt":10815,"stimulus":"\n        <div class=\"response-container\">\n          <div class=\"response-instruction\">\n            <p>rotate the bar by using the left and right arrow keys.</p>\n            <p>when you are determined, press the Enter key.</p>\n          </div>\n          <div class=\"response-circle\">\n            <div class=\"response-fixation\"></div>\n            <div id=\"bar\" class=\"rotating-bar\"></div>\n          </div>\n        </div>\n      ","response":"Enter","trial_type":"html-keyboard-response","trial_index":24,"plugin_version":"2.1.0","time_elapsed":180016,"random_initial_angle":65,"response_angle_css":132,"response_angle_rdk":318,"angular_error_target":-1,"angular_error_distractor":-114,"target_direction":319,"target_group":"black","reward_points":9},{"rt":null,"stimulus":"\n          <p style=\"color: #00FF00;\">Your reward: 9 points</p>\n        ","response":null,"trial_type":"html-keyboard-response","trial_index":25,"plugin_version":"2.1.0","time_elapsed":182030},{"rt":null,"stimulus":"<div class=\"fixation\" style=\"font-size: 60px;\">+</div>","response":null,"trial_type":"html-keyboard-response","trial_index":26,"plugin_version":"2.1.0","time_elapsed":183042},{"target_group":"white","target_index":0,"condition_label":"practice","rt":-1,"response":"","correct":false,"choices":"ALL_KEYS","correct_choice":["a"],"trial_duration":2000,"flip_timestamps":[],"response_ends_trial":false,"number_of_apertures":2,"number_of_dots":[100,72],"number_of_sets":1,"coherent_direction":[0,101],"coherence":1,"opposite_coherence":0,"dot_radius":2,"dot_side_length":1,"dot_life":-1,"move_distance":1,"aperture_width":300,"aperture_height":300,"dot_color":["white","black"],"dot_shape":"circle","background_color":"#AAA","RDK_type":3,"aperture_type":2,"reinsert_type":2,"frame_rate":17.068376068376068,"frame_rate_array":[7,15,67,17,17,17,17,16,17,17,17,17,17,17,16,17,17,17,16,17,18,15,17,16,17,17,17,16,17,17,17,16,17,17,17,16,17,17,17,16,17,16,17,17,16,17,17,16,17,17,16,17,17,17,17,17,17,16,16,17,17,17,16,17,16,17,16,17,17,17,17,17,17,17,17,17,16,17,17,17,17,17,16,17,17,17,17,16,17,17,17,17,16,17,17,16,16,17,17,16,17,17,17,16,17,16,17,16,17,16,17,19,15,17,16,17,17],"number_of_frames":117,"aperture_center_x":960,"aperture_center_y":540,"fixation_cross":true,"fixation_cross_width":15,"fixation_cross_height":15,"fixation_cross_color":"#111","fixation_cross_thickness":1,"border":true,"border_thickness":2,"border_color":"transparent","canvas_width":1920,"canvas_height":1080,"trial_type":"rdk","trial_index":27,"plugin_version":"2.0.0","time_elapsed":185046,"phase":"practice","target_direction":0,"distractor_direction":101},{"rt":5637,"stimulus":"\n        <div class=\"response-container\">\n          <div class=\"response-instruction\">\n            <p>rotate the bar by using the left and right arrow keys.</p>\n            <p>when you are determined, press the Enter key.</p>\n          </div>\n          <div class=\"response-circle\">\n            <div class=\"response-fixation\"></div>\n            <div id=\"bar\" class=\"rotating-bar\"></div>\n          </div>\n        </div>\n      ","response":"Enter","trial_type":"html-keyboard-response","trial_index":28,"plugin_version":"2.1.0","time_elapsed":190684,"random_initial_angle":75,"response_angle_css":112,"response_angle_rdk":338,"angular_error_target":-22,"angular_error_distractor":-123,"target_direction":0,"target_group":"white","reward_points":5},{"rt":null,"stimulus":"\n          <p style=\"color: #00FF00;\">Your reward: 5 points</p>\n        ","response":null,"trial_type":"html-keyboard-response","trial_index":29,"plugin_version":"2.1.0","time_elapsed":192696},{"rt":null,"stimulus":"<div class=\"fixation\" style=\"font-size: 60px;\">+</div>","response":null,"trial_type":"html-keyboard-response","trial_index":30,"plugin_version":"2.1.0","time_elapsed":193703},{"target_group":"white","target_index":0,"condition_label":"practice","rt":-1,"response":"","correct":false,"choices":"ALL_KEYS","correct_choice":["a"],"trial_duration":2000,"flip_timestamps":[],"response_ends_trial":false,"number_of_apertures":2,"number_of_dots":[100,58],"number_of_sets":1,"coherent_direction":[128,320],"coherence":1,"opposite_coherence":0,"dot_radius":2,"dot_side_length":1,"dot_life":-1,"move_distance":1,"aperture_width":300,"aperture_height":300,"dot_color":["white","black"],"dot_shape":"circle","background_color":"#AAA","RDK_type":3,"aperture_type":2,"reinsert_type":2,"frame_rate":17.145299145299145,"frame_rate_array":[13,14,67,17,16,17,17,17,16,17,17,16,17,17,16,17,17,17,17,18,16,17,17,16,17,17,17,17,16,17,17,16,16,17,17,17,16,17,17,17,17,17,17,16,17,17,17,17,17,17,16,17,17,17,17,17,17,16,17,16,17,17,17,16,17,17,17,17,16,17,17,17,17,17,16,17,17,17,17,17,16,17,17,17,17,17,16,17,16,17,17,17,16,17,17,16,17,17,16,17,17,17,17,16,17,17,16,17,17,17,17,17,16,17,17,17,16],"number_of_frames":117,"aperture_center_x":960,"aperture_center_y":540,"fixation_cross":true,"fixation_cross_width":15,"fixation_cross_height":15,"fixation_cross_color":"#111","fixation_cross_thickness":1,"border":true,"border_thickness":2,"border_color":"transparent","canvas_width":1920,"canvas_height":1080,"trial_type":"rdk","trial_index":31,"plugin_version":"2.0.0","time_elapsed":195715,"phase":"practice","target_direction":128,"distractor_direction":320},{"rt":4190,"stimulus":"\n        <div class=\"response-container\">\n          <div class=\"response-instruction\">\n            <p>rotate the bar by using the left and right arrow keys.</p>\n            <p>when you are determined, press the Enter key.</p>\n          </div>\n          <div class=\"response-circle\">\n            <div class=\"response-fixation\"></div>\n            <div id=\"bar\" class=\"rotating-bar\"></div>\n          </div>\n        </div>\n      ","response":"Enter","trial_type":"html-keyboard-response","trial_index":32,"plugin_version":"2.1.0","time_elapsed":199905,"random_initial_angle":5,"response_angle_css":-52,"response_angle_rdk":142,"angular_error_target":14,"angular_error_distractor":-178,"target_direction":128,"target_group":"white","reward_points":7},{"rt":null,"stimulus":"\n          <p style=\"color: #00FF00;\">Your reward: 7 points</p>\n        ","response":null,"trial_type":"html-keyboard-response","trial_index":33,"plugin_version":"2.1.0","time_elapsed":201911},{"rt":null,"stimulus":"<div class=\"fixation\" style=\"font-size: 60px;\">+</div>","response":null,"trial_type":"html-keyboard-response","trial_index":34,"plugin_version":"2.1.0","time_elapsed":202913},{"target_group":"black","target_index":1,"condition_label":"practice","rt":-1,"response":"","correct":false,"choices":"ALL_KEYS","correct_choice":["a"],"trial_duration":2000,"flip_timestamps":[],"response_ends_trial":false,"number_of_apertures":2,"number_of_dots":[89,100],"number_of_sets":1,"coherent_direction":[194,316],"coherence":1,"opposite_coherence":0,"dot_radius":2,"dot_side_length":1,"dot_life":-1,"move_distance":1,"aperture_width":300,"aperture_height":300,"dot_color":["white","black"],"dot_shape":"circle","background_color":"#AAA","RDK_type":3,"aperture_type":2,"reinsert_type":2,"frame_rate":17.06779661016949,"frame_rate_array":[6,20,5,68,16,17,17,17,17,17,17,17,17,17,17,16,17,17,17,17,17,17,17,16,17,17,17,16,17,17,17,17,17,17,17,17,17,17,17,17,17,16,17,16,17,17,16,17,17,17,17,17,17,16,17,17,17,17,16,18,16,17,17,16,17,16,16,17,17,17,16,17,17,17,17,17,17,18,15,17,18,16,17,17,16,17,17,17,17,17,16,17,17,17,17,17,17,17,17,17,16,17,17,16,17,16,17,16,17,17,17,16,18,18,14,17,17,16],"number_of_frames":118,"aperture_center_x":960,"aperture_center_y":540,"fixation_cross":true,"fixation_cross_width":15,"fixation_cross_height":15,"fixation_cross_color":"#111","fixation_cross_thickness":1,"border":true,"border_thickness":2,"border_color":"transparent","canvas_width":1920,"canvas_height":1080,"trial_type":"rdk","trial_index":35,"plugin_version":"2.0.0","time_elapsed":204929,"phase":"practice","target_direction":316,"distractor_direction":194},{"rt":4540,"stimulus":"\n        <div class=\"response-container\">\n          <div class=\"response-instruction\">\n            <p>rotate the bar by using the left and right arrow keys.</p>\n            <p>when you are determined, press the Enter key.</p>\n          </div>\n          <div class=\"response-circle\">\n            <div class=\"response-fixation\"></div>\n            <div id=\"bar\" class=\"rotating-bar\"></div>\n          </div>\n        </div>\n      ","response":"Enter","trial_type":"html-keyboard-response","trial_index":36,"plugin_version":"2.1.0","time_elapsed":209471,"random_initial_angle":143,"response_angle_css":124,"response_angle_rdk":326,"angular_error_target":10,"angular_error_distractor":132,"target_direction":316,"target_group":"black","reward_points":8},{"rt":null,"stimulus":"\n          <p style=\"color: #00FF00;\">Your reward: 8 points</p>\n        ","response":null,"trial_type":"html-keyboard-response","trial_index":37,"plugin_version":"2.1.0","time_elapsed":211479},{"rt":null,"stimulus":"<div class=\"fixation\" style=\"font-size: 60px;\">+</div>","response":null,"trial_type":"html-keyboard-response","trial_index":38,"plugin_version":"2.1.0","time_elapsed":212490},{"target_group":"black","target_index":1,"condition_label":"practice","rt":-1,"response":"","correct":false,"choices":"ALL_KEYS","correct_choice":["a"],"trial_duration":2000,"flip_timestamps":[],"response_ends_trial":false,"number_of_apertures":2,"number_of_dots":[67,100],"number_of_sets":1,"coherent_direction":[201,93],"coherence":1,"opposite_coherence":0,"dot_radius":2,"dot_side_length":1,"dot_life":-1,"move_distance":1,"aperture_width":300,"aperture_height":300,"dot_color":["white","black"],"dot_shape":"circle","background_color":"#AAA","RDK_type":3,"aperture_type":2,"reinsert_type":2,"frame_rate":16.95762711864407,"frame_rate_array":[14,9,55,12,16,17,17,17,17,16,16,17,16,17,17,16,17,17,17,17,17,17,17,17,16,17,17,17,17,17,16,17,16,17,16,17,17,17,17,16,17,16,17,17,17,16,17,17,17,17,17,16,17,17,16,17,16,16,17,17,17,17,17,17,16,17,17,17,17,17,16,17,17,16,17,16,17,17,17,16,17,16,17,17,17,16,17,17,17,17,17,17,17,17,17,17,17,17,17,17,17,17,17,17,17,16,17,17,17,16,17,16,17,17,17,16,17,17],"number_of_frames":118,"aperture_center_x":960,"aperture_center_y":540,"fixation_cross":true,"fixation_cross_width":15,"fixation_cross_height":15,"fixation_cross_color":"#111","fixation_cross_thickness":1,"border":true,"border_thickness":2,"border_color":"transparent","canvas_width":1920,"canvas_height":1080,"trial_type":"rdk","trial_index":39,"plugin_version":"2.0.0","time_elapsed":214498,"phase":"practice","target_direction":93,"distractor_direction":201},{"rt":5262,"stimulus":"\n        <div class=\"response-container\">\n          <div class=\"response-instruction\">\n            <p>rotate the bar by using the left and right arrow keys.</p>\n            <p>when you are determined, press the Enter key.</p>\n          </div>\n          <div class=\"response-circle\">\n            <div class=\"response-fixation\"></div>\n            <div id=\"bar\" class=\"rotating-bar\"></div>\n          </div>\n        </div>\n      ","response":"Enter","trial_type":"html-keyboard-response","trial_index":40,"plugin_version":"2.1.0","time_elapsed":219760,"random_initial_angle":102,"response_angle_css":30,"response_angle_rdk":60,"angular_error_target":-33,"angular_error_distractor":-141,"target_direction":93,"target_group":"black","reward_points":3},{"rt":null,"stimulus":"\n          <p style=\"color: #00FF00;\">Your reward: 3 points</p>\n        ","response":null,"trial_type":"html-keyboard-response","trial_index":41,"plugin_version":"2.1.0","time_elapsed":221764},{"rt":null,"stimulus":"<div class=\"fixation\" style=\"font-size: 60px;\">+</div>","response":null,"trial_type":"html-keyboard-response","trial_index":42,"plugin_version":"2.1.0","time_elapsed":222776},{"target_group":"black","target_index":1,"condition_label":"practice","rt":-1,"response":"","correct":false,"choices":"ALL_KEYS","correct_choice":["a"],"trial_duration":2000,"flip_timestamps":[],"response_ends_trial":false,"number_of_apertures":2,"number_of_dots":[54,100],"number_of_sets":1,"coherent_direction":[244,103],"coherence":1,"opposite_coherence":0,"dot_radius":2,"dot_side_length":1,"dot_life":-1,"move_distance":1,"aperture_width":300,"aperture_height":300,"dot_color":["white","black"],"dot_shape":"circle","background_color":"#AAA","RDK_type":3,"aperture_type":2,"reinsert_type":2,"frame_rate":17.11864406779661,"frame_rate_array":[15,6,22,60,17,16,17,16,17,17,17,16,17,16,17,17,16,17,17,17,17,17,17,16,18,16,17,17,17,17,16,17,17,17,16,17,17,17,17,17,17,17,17,17,17,17,17,17,17,17,17,17,17,16,17,16,17,17,17,17,17,17,17,16,17,16,17,17,16,17,17,17,17,17,17,16,17,17,17,17,17,17,17,16,17,17,16,17,17,17,17,17,17,17,17,17,16,17,17,17,17,17,16,18,16,17,17,17,17,17,17,15,17,17,18,15,17,17],"number_of_frames":118,"aperture_center_x":960,"aperture_center_y":540,"fixation_cross":true,"fixation_cross_width":15,"fixation_cross_height":15,"fixation_cross_color":"#111","fixation_cross_thickness":1,"border":true,"border_thickness":2,"border_color":"transparent","canvas_width":1920,"canvas_height":1080,"trial_type":"rdk","trial_index":43,"plugin_version":"2.0.0","time_elapsed":224785,"phase":"practice","target_direction":103,"distractor_direction":244},{"rt":3943,"stimulus":"\n        <div class=\"response-container\">\n          <div class=\"response-instruction\">\n            <p>rotate the bar by using the left and right arrow keys.</p>\n            <p>when you are determined, press the Enter key.</p>\n          </div>\n          <div class=\"response-circle\">\n            <div class=\"response-fixation\"></div>\n            <div id=\"bar\" class=\"rotating-bar\"></div>\n          </div>\n        </div>\n      ","response":"Enter","trial_type":"html-keyboard-response","trial_index":44,"plugin_version":"2.1.0","time_elapsed":228729,"random_initial_angle":27,"response_angle_css":-10,"response_angle_rdk":100,"angular_error_target":-3,"angular_error_distractor":-144,"target_direction":103,"target_group":"black","reward_points":9},{"rt":null,"stimulus":"\n          <p style=\"color: #00FF00;\">Your reward: 9 points</p>\n        ","response":null,"trial_type":"html-keyboard-response","trial_index":45,"plugin_version":"2.1.0","time_elapsed":230731},{"rt":null,"stimulus":"<div class=\"fixation\" style=\"font-size: 60px;\">+</div>","response":null,"trial_type":"html-keyboard-response","trial_index":46,"plugin_version":"2.1.0","time_elapsed":231748},{"target_group":"white","target_index":0,"condition_label":"practice","rt":-1,"response":"","correct":false,"choices":"ALL_KEYS","correct_choice":["a"],"trial_duration":2000,"flip_timestamps":[],"response_ends_trial":false,"number_of_apertures":2,"number_of_dots":[100,93],"number_of_sets":1,"coherent_direction":[302,51],"coherence":1,"opposite_coherence":0,"dot_radius":2,"dot_side_length":1,"dot_life":-1,"move_distance":1,"aperture_width":300,"aperture_height":300,"dot_color":["white","black"],"dot_shape":"circle","background_color":"#AAA","RDK_type":3,"aperture_type":2,"reinsert_type":2,"frame_rate":17.06779661016949,"frame_rate_array":[15,17,17,50,17,17,17,17,16,17,17,17,17,17,17,17,17,16,17,17,16,17,16,17,17,16,17,17,17,17,17,17,16,16,17,17,16,17,17,16,17,17,17,17,17,17,17,17,17,16,17,17,17,17,17,16,17,17,17,17,17,17,16,17,16,17,17,17,16,17,17,17,17,17,17,17,17,17,17,16,17,17,17,17,17,16,17,17,16,17,16,17,17,18,16,16,17,17,17,16,17,16,17,17,17,17,17,17,17,17,17,17,16,17,17,17,16,17],"number_of_frames":118,"aperture_center_x":960,"aperture_center_y":540,"fixation_cross":true,"fixation_cross_width":15,"fixation_cross_height":15,"fixation_cross_color":"#111","fixation_cross_thickness":1,"border":true,"border_thickness":2,"border_color":"transparent","canvas_width":1920,"canvas_height":1080,"trial_type":"rdk","trial_index":47,"plugin_version":"2.0.0","time_elapsed":233752,"phase":"practice","target_direction":302,"distractor_direction":51},{"rt":11010,"stimulus":"\n        <div class=\"response-container\">\n          <div class=\"response-instruction\">\n            <p>rotate the bar by using the left and right arrow keys.</p>\n            <p>when you are determined, press the Enter key.</p>\n          </div>\n          <div class=\"response-circle\">\n            <div class=\"response-fixation\"></div>\n            <div id=\"bar\" class=\"rotating-bar\"></div>\n          </div>\n        </div>\n      ","response":"Enter","trial_type":"html-keyboard-response","trial_index":48,"plugin_version":"2.1.0","time_elapsed":244763,"random_initial_angle":348,"response_angle_css":519,"response_angle_rdk":291,"angular_error_target":-11,"angular_error_distractor":-120,"target_direction":302,"target_group":"white","reward_points":7},{"rt":null,"stimulus":"\n          <p style=\"color: #00FF00;\">Your reward: 7 points</p>\n        ","response":null,"trial_type":"html-keyboard-response","trial_index":49,"plugin_version":"2.1.0","time_elapsed":246773},{"rt":null,"stimulus":"<div class=\"fixation\" style=\"font-size: 60px;\">+</div>","response":null,"trial_type":"html-keyboard-response","trial_index":50,"plugin_version":"2.1.0","time_elapsed":247790},{"target_group":"black","target_index":1,"condition_label":"practice","rt":-1,"response":"","correct":false,"choices":"ALL_KEYS","correct_choice":["a"],"trial_duration":2000,"flip_timestamps":[],"response_ends_trial":false,"number_of_apertures":2,"number_of_dots":[62,100],"number_of_sets":1,"coherent_direction":[279,75],"coherence":1,"opposite_coherence":0,"dot_radius":2,"dot_side_length":1,"dot_life":-1,"move_distance":1,"aperture_width":300,"aperture_height":300,"dot_color":["white","black"],"dot_shape":"circle","background_color":"#AAA","RDK_type":3,"aperture_type":2,"reinsert_type":2,"frame_rate":17.145299145299145,"frame_rate_array":[7,15,68,16,16,17,17,16,17,17,16,19,15,17,17,16,17,16,17,17,17,16,17,17,16,17,17,17,17,16,17,16,17,17,16,17,17,17,17,17,17,17,16,17,17,17,16,17,17,17,16,17,17,17,17,16,17,17,18,16,16,17,17,17,17,17,17,17,17,16,17,17,17,17,17,17,16,17,17,17,17,17,17,17,17,17,17,17,17,17,17,17,17,16,17,17,17,17,17,17,17,16,17,17,17,17,17,17,17,17,16,17,17,16,17,17,17],"number_of_frames":117,"aperture_center_x":960,"aperture_center_y":540,"fixation_cross":true,"fixation_cross_width":15,"fixation_cross_height":15,"fixation_cross_color":"#111","fixation_cross_thickness":1,"border":true,"border_thickness":2,"border_color":"transparent","canvas_width":1920,"canvas_height":1080,"trial_type":"rdk","trial_index":51,"plugin_version":"2.0.0","time_elapsed":249795,"phase":"practice","target_direction":75,"distractor_direction":279},{"rt":8848,"stimulus":"\n        <div class=\"response-container\">\n          <div class=\"response-instruction\">\n            <p>rotate the bar by using the left and right arrow keys.</p>\n            <p>when you are determined, press the Enter key.</p>\n          </div>\n          <div class=\"response-circle\">\n            <div class=\"response-fixation\"></div>\n            <div id=\"bar\" class=\"rotating-bar\"></div>\n          </div>\n        </div>\n      ","response":"Enter","trial_type":"html-keyboard-response","trial_index":52,"plugin_version":"2.1.0","time_elapsed":258644,"random_initial_angle":216,"response_angle_css":36,"response_angle_rdk":54,"angular_error_target":-21,"angular_error_distractor":135,"target_direction":75,"target_group":"black","reward_points":5},{"rt":null,"stimulus":"\n          <p style=\"color: #00FF00;\">Your reward: 5 points</p>\n        ","response":null,"trial_type":"html-keyboard-response","trial_index":53,"plugin_version":"2.1.0","time_elapsed":260654},{"rt":null,"stimulus":"<div class=\"fixation\" style=\"font-size: 60px;\">+</div>","response":null,"trial_type":"html-keyboard-response","trial_index":54,"plugin_version":"2.1.0","time_elapsed":261656},{"target_group":"black","target_index":1,"condition_label":"practice","rt":-1,"response":"","correct":false,"choices":"ALL_KEYS","correct_choice":["a"],"trial_duration":2000,"flip_timestamps":[],"response_ends_trial":false,"number_of_apertures":2,"number_of_dots":[50,100],"number_of_sets":1,"coherent_direction":[143,1],"coherence":1,"opposite_coherence":0,"dot_radius":2,"dot_side_length":1,"dot_life":-1,"move_distance":1,"aperture_width":300,"aperture_height":300,"dot_color":["white","black"],"dot_shape":"circle","background_color":"#AAA","RDK_type":3,"aperture_type":2,"reinsert_type":2,"frame_rate":17.008403361344538,"frame_rate_array":[14,8,17,52,15,17,17,17,16,17,17,17,17,16,17,17,18,16,17,17,16,17,16,17,17,17,17,16,18,15,17,17,17,17,17,17,16,17,17,17,16,17,17,17,17,17,16,17,17,17,17,17,16,17,17,17,17,17,17,16,17,17,17,17,16,17,17,17,17,17,17,17,16,17,16,18,16,17,17,16,17,17,17,16,17,17,17,17,17,17,17,16,17,17,17,17,17,17,17,17,17,17,17,16,17,17,16,17,16,17,17,17,17,17,17,17,17,17,17],"number_of_frames":119,"aperture_center_x":960,"aperture_center_y":540,"fixation_cross":true,"fixation_cross_width":15,"fixation_cross_height":15,"fixation_cross_color":"#111","fixation_cross_thickness":1,"border":true,"border_thickness":2,"border_color":"transparent","canvas_width":1920,"canvas_height":1080,"trial_type":"rdk","trial_index":55,"plugin_version":"2.0.0","time_elapsed":263668,"phase":"practice","target_direction":1,"distractor_direction":143},{"rt":3182,"stimulus":"\n        <div class=\"response-container\">\n          <div class=\"response-instruction\">\n            <p>rotate the bar by using the left and right arrow keys.</p>\n            <p>when you are determined, press the Enter key.</p>\n          </div>\n          <div class=\"response-circle\">\n            <div class=\"response-fixation\"></div>\n            <div id=\"bar\" class=\"rotating-bar\"></div>\n          </div>\n        </div>\n      ","response":"Enter","trial_type":"html-keyboard-response","trial_index":56,"plugin_version":"2.1.0","time_elapsed":266851,"random_initial_angle":96,"response_angle_css":85,"response_angle_rdk":5,"angular_error_target":4,"angular_error_distractor":-138,"target_direction":1,"target_group":"black","reward_points":9},{"rt":null,"stimulus":"\n          <p style=\"color: #00FF00;\">Your reward: 9 points</p>\n        ","response":null,"trial_type":"html-keyboard-response","trial_index":57,"plugin_version":"2.1.0","time_elapsed":268865},{"rt":null,"stimulus":"<div class=\"fixation\" style=\"font-size: 60px;\">+</div>","response":null,"trial_type":"html-keyboard-response","trial_index":58,"plugin_version":"2.1.0","time_elapsed":269872},{"target_group":"white","target_index":0,"condition_label":"practice","rt":-1,"response":"","correct":false,"choices":"ALL_KEYS","correct_choice":["a"],"trial_duration":2000,"flip_timestamps":[],"response_ends_trial":false,"number_of_apertures":2,"number_of_dots":[100,50],"number_of_sets":1,"coherent_direction":[158,280],"coherence":1,"opposite_coherence":0,"dot_radius":2,"dot_side_length":1,"dot_life":-1,"move_distance":1,"aperture_width":300,"aperture_height":300,"dot_color":["white","black"],"dot_shape":"circle","background_color":"#AAA","RDK_type":3,"aperture_type":2,"reinsert_type":2,"frame_rate":17.05982905982906,"frame_rate_array":[7,16,67,17,16,16,17,17,16,17,17,17,17,17,16,17,16,17,17,17,17,16,17,17,17,17,17,17,16,17,17,17,17,17,16,17,17,16,17,17,17,17,16,17,17,15,17,17,17,16,17,17,17,17,16,17,16,17,17,17,16,17,17,17,16,17,16,17,17,17,16,17,17,17,16,17,17,17,17,17,17,16,16,17,17,17,17,16,17,16,17,16,17,16,17,17,17,16,17,17,17,17,16,17,17,17,16,16,18,16,17,17,16,17,17,17,16],"number_of_frames":117,"aperture_center_x":960,"aperture_center_y":540,"fixation_cross":true,"fixation_cross_width":15,"fixation_cross_height":15,"fixation_cross_color":"#111","fixation_cross_thickness":1,"border":true,"border_thickness":2,"border_color":"transparent","canvas_width":1920,"canvas_height":1080,"trial_type":"rdk","trial_index":59,"plugin_version":"2.0.0","time_elapsed":271877,"phase":"practice","target_direction":158,"distractor_direction":280},{"rt":6578,"stimulus":"\n        <div class=\"response-container\">\n          <div class=\"response-instruction\">\n            <p>rotate the bar by using the left and right arrow keys.</p>\n            <p>when you are determined, press the Enter key.</p>\n          </div>\n          <div class=\"response-circle\">\n            <div class=\"response-fixation\"></div>\n            <div id=\"bar\" class=\"rotating-bar\"></div>\n          </div>\n        </div>\n      ","response":"Enter","trial_type":"html-keyboard-response","trial_index":60,"plugin_version":"2.1.0","time_elapsed":278456,"random_initial_angle":215,"response_angle_css":306,"response_angle_rdk":144,"angular_error_target":-14,"angular_error_distractor":-136,"target_direction":158,"target_group":"white","reward_points":7},{"rt":null,"stimulus":"\n          <p style=\"color: #00FF00;\">Your reward: 7 points</p>\n        ","response":null,"trial_type":"html-keyboard-response","trial_index":61,"plugin_version":"2.1.0","time_elapsed":280462},{"rt":null,"stimulus":"<div class=\"fixation\" style=\"font-size: 60px;\">+</div>","response":null,"trial_type":"html-keyboard-response","trial_index":62,"plugin_version":"2.1.0","time_elapsed":281464},{"target_group":"black","target_index":1,"condition_label":"practice","rt":-1,"response":"","correct":false,"choices":"ALL_KEYS","correct_choice":["a"],"trial_duration":2000,"flip_timestamps":[],"response_ends_trial":false,"number_of_apertures":2,"number_of_dots":[61,100],"number_of_sets":1,"coherent_direction":[149,11],"coherence":1,"opposite_coherence":0,"dot_radius":2,"dot_side_length":1,"dot_life":-1,"move_distance":1,"aperture_width":300,"aperture_height":300,"dot_color":["white","black"],"dot_shape":"circle","background_color":"#AAA","RDK_type":3,"aperture_type":2,"reinsert_type":2,"frame_rate":17.06779661016949,"frame_rate_array":[16,17,50,17,17,16,17,17,17,17,17,17,17,16,18,18,15,17,17,17,16,17,17,16,17,16,16,17,17,16,17,17,16,16,17,17,17,17,16,17,17,17,17,17,17,17,16,17,17,17,17,17,17,17,17,17,17,17,17,17,17,17,16,17,17,17,17,17,16,17,17,17,17,16,17,16,17,17,17,17,16,17,17,18,16,16,17,17,17,18,16,17,17,16,17,16,17,17,17,17,17,16,17,16,17,17,17,17,17,17,17,17,16,17,16,17,17,16],"number_of_frames":118,"aperture_center_x":960,"aperture_center_y":540,"fixation_cross":true,"fixation_cross_width":15,"fixation_cross_height":15,"fixation_cross_color":"#111","fixation_cross_thickness":1,"border":true,"border_thickness":2,"border_color":"transparent","canvas_width":1920,"canvas_height":1080,"trial_type":"rdk","trial_index":63,"plugin_version":"2.0.0","time_elapsed":283483,"phase":"practice","target_direction":11,"distractor_direction":149},{"rt":5474,"stimulus":"\n        <div class=\"response-container\">\n          <div class=\"response-instruction\">\n            <p>rotate the bar by using the left and right arrow keys.</p>\n            <p>when you are determined, press the Enter key.</p>\n          </div>\n          <div class=\"response-circle\">\n            <div class=\"response-fixation\"></div>\n            <div id=\"bar\" class=\"rotating-bar\"></div>\n          </div>\n        </div>\n      ","response":"Enter","trial_type":"html-keyboard-response","trial_index":64,"plugin_version":"2.1.0","time_elapsed":288959,"random_initial_angle":163,"response_angle_css":76,"response_angle_rdk":14,"angular_error_target":3,"angular_error_distractor":-135,"target_direction":11,"target_group":"black","reward_points":9},{"rt":null,"stimulus":"\n          <p style=\"color: #00FF00;\">Your reward: 9 points</p>\n        ","response":null,"trial_type":"html-keyboard-response","trial_index":65,"plugin_version":"2.1.0","time_elapsed":290977},{"rt":11830,"stimulus":"\n        <div class=\"instructions-container\">\n          <h2>End of Practice</h2>\n          <p>You have completed the practice trials.</p>\n          <p>Press <strong>Enter</strong> key to begin the main experiment.</p>\n        </div>\n      ","response":"Enter","trial_type":"html-keyboard-response","trial_index":66,"plugin_version":"2.1.0","time_elapsed":302809},{"rt":null,"stimulus":"<div class=\"fixation\" style=\"font-size: 60px;\">+</div>","response":null,"trial_type":"html-keyboard-response","trial_index":67,"plugin_version":"2.1.0","time_elapsed":303822},{"phase":"learning-awareness","target_group":"white","condition_label":"W_H_vs_B_L_rep14","target_direction":180,"distractor_direction":90,"session_rotation":147,"rt":-1,"response":"","correct":false,"choices":"ALL_KEYS","correct_choice":["a"],"trial_duration":2000,"flip_timestamps":[],"response_ends_trial":false,"number_of_apertures":200,"number_of_dots":[1,1,1,1,1,1,1,1,1,1,1,1,1,1,1,1,1,1,1,1,1,1,1,1,1,1,1,1,1,1,1,1,1,1,1,1,1,1,1,1,1,1,1,1,1,1,1,1,1,1,1,1,1,1,1,1,1,1,1,1,1,1,1,1,1,1,1,1,1,1,1,1,1,1,1,1,1,1,1,1,1,1,1,1,1,1,1,1,1,1,1,1,1,1,1,1,1,1,1,1,1,1,1,1,1,1,1,1,1,1,1,1,1,1,1,1,1,1,1,1,1,1,1,1,1,1,1,1,1,1,1,1,1,1,1,1,1,1,1,1,1,1,1,1,1,1,1,1,1,1,1,1,1,1,1,1,1,1,1,1,1,1,1,1,1,1,1,1,1,1,1,1,1,1,1,1,1,1,1,1,1,1,1,1,1,1,1,1,1,1,1,1,1,1,1,1,1,1,1,1],"number_of_sets":1,"coherent_direction":[90,90,90,180,90,180,90,180,180,180,90,90,90,90,90,90,180,90,180,90,180,90,180,180,90,180,180,180,90,180,90,180,90,180,180,90,180,180,90,90,180,90,90,180,90,90,90,180,180,90,180,180,90,180,180,180,180,180,90,90,90,180,90,90,180,180,90,90,90,180,90,90,90,180,180,180,90,90,90,90,180,180,180,90,90,180,180,180,90,180,90,180,180,180,90,90,90,180,180,90,90,180,90,90,180,180,180,180,180,90,180,90,90,90,180,180,180,180,180,90,180,90,180,90,90,90,90,180,90,180,180,180,180,180,90,90,180,180,180,90,90,180,90,90,90,180,180,90,180,90,90,90,180,90,90,90,90,90,90,180,90,180,180,180,90,90,180,180,180,180,90,180,90,180,90,180,90,180,180,180,90,180,180,90,90,90,90,180,180,90,90,90,180,180,180,180,90,180,90,90],"coherence":1,"opposite_coherence":0,"dot_radius":2,"dot_side_length":1,"dot_life":-1,"move_distance":1,"aperture_width":300,"aperture_height":300,"dot_color":["black","black","black","white","black","white","black","white","white","white","black","black","black","black","black","black","white","black","white","black","white","black","white","white","black","white","white","white","black","white","black","white","black","white","white","black","white","white","black","black","white","black","black","white","black","black","black","white","white","black","white","white","black","white","white","white","white","white","black","black","black","white","black","black","white","white","black","black","black","white","black","black","black","white","white","white","black","black","black","black","white","white","white","black","black","white","white","white","black","white","black","white","white","white","black","black","black","white","white","black","black","white","black","black","white","white","white","white","white","black","white","black","black","black","white","white","white","white","white","black","white","black","white","black","black","black","black","white","black","white","white","white","white","white","black","black","white","white","white","black","black","white","black","black","black","white","white","black","white","black","black","black","white","black","black","black","black","black","black","white","black","white","white","white","black","black","white","white","white","white","black","white","black","white","black","white","black","white","white","white","black","white","white","black","black","black","black","white","white","black","black","black","white","white","white","white","black","white","black","black"],"dot_shape":"circle","background_color":"#AAA","RDK_type":3,"aperture_type":2,"reinsert_type":2,"frame_rate":16.675,"frame_rate_array":[9,13,33,3,15,16,18,17,18,15,17,19,14,17,16,17,16,17,16,18,15,18,15,17,17,17,16,16,17,17,17,17,17,17,17,17,17,17,16,17,17,17,16,16,18,17,16,16,17,17,17,17,16,17,17,16,17,17,17,16,17,17,18,16,17,17,16,16,18,16,17,17,17,17,17,18,15,17,17,16,17,17,18,16,17,18,16,17,17,17,17,17,16,17,17,16,17,17,16,17,16,17,17,17,17,17,16,16,17,17,17,17,16,18,16,17,17,17,17,17],"number_of_frames":120,"aperture_center_x":960,"aperture_center_y":540,"fixation_cross":true,"fixation_cross_width":15,"fixation_cross_height":15,"fixation_cross_color":"#111","fixation_cross_thickness":1,"border":true,"border_thickness":2,"border_color":"transparent","canvas_width":1920,"canvas_height":1080,"trial_type":"rdk","trial_index":68,"plugin_version":"2.0.0","time_elapsed":305832},{"rt":6790,"stimulus":"\n        <div class=\"response-container\">\n          <div class=\"response-instruction\">\n            <p>rotate the bar by using the left and right arrow keys.</p>\n            <p>when you are determined, press the Enter key.</p>\n          </div>\n          <div class=\"response-circle\">\n            <div class=\"response-fixation\"></div>\n            <div id=\"bar\" class=\"rotating-bar\"></div>\n          </div>\n        </div>\n      ","response":"Enter","trial_type":"html-keyboard-response","trial_index":69,"plugin_version":"2.1.0","time_elapsed":312623,"random_initial_angle":201,"response_angle_css":398,"response_angle_rdk":52,"angular_error_target":-128,"angular_error_distractor":-38,"target_direction":180,"target_group":"white","reward_points":0},{"rt":null,"stimulus":"\n          <p style=\"color: #FF3333;\">Your reward: 0 points</p>\n        ","response":null,"trial_type":"html-keyboard-response","trial_index":70,"plugin_version":"2.1.0","time_elapsed":314640},{"rt":null,"stimulus":"<div class=\"fixation\" style=\"font-size: 60px;\">+</div>","response":null,"trial_type":"html-keyboard-response","trial_index":71,"plugin_version":"2.1.0","time_elapsed":315654},{"phase":"learning-awareness","target_group":"black","condition_label":"B_H_vs_W_L_rep21","target_direction":249,"distractor_direction":3,"session_rotation":147,"rt":-1,"response":"","correct":false,"choices":"ALL_KEYS","correct_choice":["a"],"trial_duration":2000,"flip_timestamps":[],"response_ends_trial":false,"number_of_apertures":200,"number_of_dots":[1,1,1,1,1,1,1,1,1,1,1,1,1,1,1,1,1,1,1,1,1,1,1,1,1,1,1,1,1,1,1,1,1,1,1,1,1,1,1,1,1,1,1,1,1,1,1,1,1,1,1,1,1,1,1,1,1,1,1,1,1,1,1,1,1,1,1,1,1,1,1,1,1,1,1,1,1,1,1,1,1,1,1,1,1,1,1,1,1,1,1,1,1,1,1,1,1,1,1,1,1,1,1,1,1,1,1,1,1,1,1,1,1,1,1,1,1,1,1,1,1,1,1,1,1,1,1,1,1,1,1,1,1,1,1,1,1,1,1,1,1,1,1,1,1,1,1,1,1,1,1,1,1,1,1,1,1,1,1,1,1,1,1,1,1,1,1,1,1,1,1,1,1,1,1,1,1,1,1,1,1,1,1,1,1,1,1,1,1,1,1,1,1,1,1,1,1,1,1,1],"number_of_sets":1,"coherent_direction":[249,249,3,249,249,3,3,249,249,249,249,249,3,3,3,3,249,3,3,249,249,3,249,249,249,249,3,3,249,249,249,249,3,3,249,249,249,3,249,3,3,3,249,3,3,3,249,3,249,249,3,249,249,249,249,3,3,3,3,249,249,249,249,3,3,249,249,3,249,249,3,249,3,249,3,3,3,3,3,249,249,3,3,3,3,3,3,3,249,249,249,249,3,3,249,249,3,3,3,249,3,249,249,3,249,249,249,3,249,3,3,3,3,249,249,3,3,249,249,249,249,249,249,3,249,249,249,3,3,3,249,3,249,3,249,249,3,249,3,3,3,249,3,249,3,3,3,249,3,249,249,3,249,3,3,3,249,249,3,3,249,249,3,249,249,249,249,3,249,249,249,249,3,3,3,3,3,249,3,3,3,3,3,249,3,3,249,3,3,3,249,3,249,249,3,249,3,249,3,249],"coherence":1,"opposite_coherence":0,"dot_radius":2,"dot_side_length":1,"dot_life":-1,"move_distance":1,"aperture_width":300,"aperture_height":300,"dot_color":["black","black","white","black","black","white","white","black","black","black","black","black","white","white","white","white","black","white","white","black","black","white","black","black","black","black","white","white","black","black","black","black","white","white","black","black","black","white","black","white","white","white","black","white","white","white","black","white","black","black","white","black","black","black","black","white","white","white","white","black","black","black","black","white","white","black","black","white","black","black","white","black","white","black","white","white","white","white","white","black","black","white","white","white","white","white","white","white","black","black","black","black","white","white","black","black","white","white","white","black","white","black","black","white","black","black","black","white","black","white","white","white","white","black","black","white","white","black","black","black","black","black","black","white","black","black","black","white","white","white","black","white","black","white","black","black","white","black","white","white","white","black","white","black","white","white","white","black","white","black","black","white","black","white","white","white","black","black","white","white","black","black","white","black","black","black","black","white","black","black","black","black","white","white","white","white","white","black","white","white","white","white","white","black","white","white","black","white","white","white","black","white","black","black","white","black","white","black","white","black"],"dot_shape":"circle","background_color":"#AAA","RDK_type":3,"aperture_type":2,"reinsert_type":2,"frame_rate":16.789915966386555,"frame_rate_array":[30,3,6,33,16,17,16,17,18,15,17,17,17,17,16,17,17,17,16,17,17,18,16,16,17,16,17,18,16,17,17,16,17,17,18,16,17,16,17,17,17,16,17,17,17,17,17,17,16,17,17,15,17,17,17,16,17,17,17,17,17,17,17,17,16,17,17,17,16,19,16,16,17,17,17,17,16,17,18,15,17,17,17,17,17,17,16,17,15,18,16,16,17,17,17,16,17,17,17,17,17,15,17,17,17,17,16,17,17,16,17,16,18,16,17,16,17,18,16],"number_of_frames":119,"aperture_center_x":960,"aperture_center_y":540,"fixation_cross":true,"fixation_cross_width":15,"fixation_cross_height":15,"fixation_cross_color":"#111","fixation_cross_thickness":1,"border":true,"border_thickness":2,"border_color":"transparent","canvas_width":1920,"canvas_height":1080,"trial_type":"rdk","trial_index":72,"plugin_version":"2.0.0","time_elapsed":317661},{"rt":5014,"stimulus":"\n        <div class=\"response-container\">\n          <div class=\"response-instruction\">\n            <p>rotate the bar by using the left and right arrow keys.</p>\n            <p>when you are determined, press the Enter key.</p>\n          </div>\n          <div class=\"response-circle\">\n            <div class=\"response-fixation\"></div>\n            <div id=\"bar\" class=\"rotating-bar\"></div>\n          </div>\n        </div>\n      ","response":"Enter","trial_type":"html-keyboard-response","trial_index":73,"plugin_version":"2.1.0","time_elapsed":322676,"random_initial_angle":122,"response_angle_css":65,"response_angle_rdk":25,"angular_error_target":136,"angular_error_distractor":22,"target_direction":249,"target_group":"black","reward_points":0},{"rt":null,"stimulus":"\n          <p style=\"color: #FF3333;\">Your reward: 0 points</p>\n        ","response":null,"trial_type":"html-keyboard-response","trial_index":74,"plugin_version":"2.1.0","time_elapsed":324682},{"rt":null,"stimulus":"<div class=\"fixation\" style=\"font-size: 60px;\">+</div>","response":null,"trial_type":"html-keyboard-response","trial_index":75,"plugin_version":"2.1.0","time_elapsed":325697},{"phase":"learning-awareness","target_group":"black","condition_label":"B_H_vs_W_L_rep7","target_direction":238,"distractor_direction":4,"session_rotation":147,"rt":-1,"response":"","correct":false,"choices":"ALL_KEYS","correct_choice":["a"],"trial_duration":2000,"flip_timestamps":[],"response_ends_trial":false,"number_of_apertures":200,"number_of_dots":[1,1,1,1,1,1,1,1,1,1,1,1,1,1,1,1,1,1,1,1,1,1,1,1,1,1,1,1,1,1,1,1,1,1,1,1,1,1,1,1,1,1,1,1,1,1,1,1,1,1,1,1,1,1,1,1,1,1,1,1,1,1,1,1,1,1,1,1,1,1,1,1,1,1,1,1,1,1,1,1,1,1,1,1,1,1,1,1,1,1,1,1,1,1,1,1,1,1,1,1,1,1,1,1,1,1,1,1,1,1,1,1,1,1,1,1,1,1,1,1,1,1,1,1,1,1,1,1,1,1,1,1,1,1,1,1,1,1,1,1,1,1,1,1,1,1,1,1,1,1,1,1,1,1,1,1,1,1,1,1,1,1,1,1,1,1,1,1,1,1,1,1,1,1,1,1,1,1,1,1,1,1,1,1,1,1,1,1,1,1,1,1,1,1,1,1,1,1,1,1],"number_of_sets":1,"coherent_direction":[238,238,4,238,238,238,4,4,238,238,238,238,4,4,238,238,238,238,238,4,4,4,4,238,238,4,4,4,238,4,4,4,4,4,238,238,4,238,4,238,238,238,4,4,238,4,238,238,4,4,238,238,4,238,4,238,238,238,238,238,238,4,4,238,238,238,238,4,4,4,4,238,238,238,238,4,4,238,238,238,238,4,238,4,4,4,238,238,4,238,4,4,4,4,238,238,4,4,4,4,238,4,4,238,238,238,238,4,4,4,238,4,4,4,4,4,238,238,4,238,238,4,238,238,238,238,4,4,4,4,238,4,4,238,4,4,238,238,4,4,238,4,238,238,238,238,4,4,4,4,238,4,4,238,4,238,4,4,4,4,4,238,238,4,4,4,4,4,4,238,238,238,4,238,238,4,238,4,4,4,238,4,238,4,238,238,238,238,4,4,238,4,238,238,4,238,238,238,238,4],"coherence":1,"opposite_coherence":0,"dot_radius":2,"dot_side_length":1,"dot_life":-1,"move_distance":1,"aperture_width":300,"aperture_height":300,"dot_color":["black","black","white","black","black","black","white","white","black","black","black","black","white","white","black","black","black","black","black","white","white","white","white","black","black","white","white","white","black","white","white","white","white","white","black","black","white","black","white","black","black","black","white","white","black","white","black","black","white","white","black","black","white","black","white","black","black","black","black","black","black","white","white","black","black","black","black","white","white","white","white","black","black","black","black","white","white","black","black","black","black","white","black","white","white","white","black","black","white","black","white","white","white","white","black","black","white","white","white","white","black","white","white","black","black","black","black","white","white","white","black","white","white","white","white","white","black","black","white","black","black","white","black","black","black","black","white","white","white","white","black","white","white","black","white","white","black","black","white","white","black","white","black","black","black","black","white","white","white","white","black","white","white","black","white","black","white","white","white","white","white","black","black","white","white","white","white","white","white","black","black","black","white","black","black","white","black","white","white","white","black","white","black","white","black","black","black","black","white","white","black","white","black","black","white","black","black","black","black","white"],"dot_shape":"circle","background_color":"#AAA","RDK_type":3,"aperture_type":2,"reinsert_type":2,"frame_rate":16.865546218487395,"frame_rate_array":[16,18,14,33,17,17,19,15,17,16,16,17,16,18,16,17,17,17,16,16,18,17,16,18,16,16,18,16,17,16,17,17,16,17,17,17,17,19,15,18,16,16,16,17,17,17,17,17,17,16,16,17,16,17,17,17,15,17,17,16,18,17,17,16,17,17,17,17,16,17,17,16,17,17,18,17,17,15,18,16,18,17,16,17,16,17,17,18,15,16,17,17,16,17,17,17,16,17,17,17,17,17,17,17,16,17,17,16,17,17,17,17,16,17,16,17,17,16,17],"number_of_frames":119,"aperture_center_x":960,"aperture_center_y":540,"fixation_cross":true,"fixation_cross_width":15,"fixation_cross_height":15,"fixation_cross_color":"#111","fixation_cross_thickness":1,"border":true,"border_thickness":2,"border_color":"transparent","canvas_width":1920,"canvas_height":1080,"trial_type":"rdk","trial_index":76,"plugin_version":"2.0.0","time_elapsed":327701},{"rt":5031,"stimulus":"\n        <div class=\"response-container\">\n          <div class=\"response-instruction\">\n            <p>rotate the bar by using the left and right arrow keys.</p>\n            <p>when you are determined, press the Enter key.</p>\n          </div>\n          <div class=\"response-circle\">\n            <div class=\"response-fixation\"></div>\n            <div id=\"bar\" class=\"rotating-bar\"></div>\n          </div>\n        </div>\n      ","response":"Enter","trial_type":"html-keyboard-response","trial_index":77,"plugin_version":"2.1.0","time_elapsed":332733,"random_initial_angle":6,"response_angle_css":-138,"response_angle_rdk":228,"angular_error_target":-10,"angular_error_distractor":-136,"target_direction":238,"target_group":"black","reward_points":8},{"rt":null,"stimulus":"\n          <p style=\"color: #00FF00;\">Your reward: 8 points</p>\n        ","response":null,"trial_type":"html-keyboard-response","trial_index":78,"plugin_version":"2.1.0","time_elapsed":334734},{"rt":null,"stimulus":"<div class=\"fixation\" style=\"font-size: 60px;\">+</div>","response":null,"trial_type":"html-keyboard-response","trial_index":79,"plugin_version":"2.1.0","time_elapsed":335747},{"phase":"learning-awareness","target_group":"black","condition_label":"B_H_vs_W_L_rep6","target_direction":259,"distractor_direction":6,"session_rotation":147,"rt":-1,"response":"","correct":false,"choices":"ALL_KEYS","correct_choice":["a"],"trial_duration":2000,"flip_timestamps":[],"response_ends_trial":false,"number_of_apertures":200,"number_of_dots":[1,1,1,1,1,1,1,1,1,1,1,1,1,1,1,1,1,1,1,1,1,1,1,1,1,1,1,1,1,1,1,1,1,1,1,1,1,1,1,1,1,1,1,1,1,1,1,1,1,1,1,1,1,1,1,1,1,1,1,1,1,1,1,1,1,1,1,1,1,1,1,1,1,1,1,1,1,1,1,1,1,1,1,1,1,1,1,1,1,1,1,1,1,1,1,1,1,1,1,1,1,1,1,1,1,1,1,1,1,1,1,1,1,1,1,1,1,1,1,1,1,1,1,1,1,1,1,1,1,1,1,1,1,1,1,1,1,1,1,1,1,1,1,1,1,1,1,1,1,1,1,1,1,1,1,1,1,1,1,1,1,1,1,1,1,1,1,1,1,1,1,1,1,1,1,1,1,1,1,1,1,1,1,1,1,1,1,1,1,1,1,1,1,1,1,1,1,1,1,1],"number_of_sets":1,"coherent_direction":[6,6,6,259,6,6,259,259,6,6,6,6,6,259,6,6,259,6,259,259,259,6,6,6,6,259,259,259,259,6,6,259,6,259,6,6,6,6,259,6,259,6,6,6,6,259,259,259,259,259,259,259,259,259,6,259,6,6,6,6,6,259,259,259,259,6,259,259,6,259,259,6,259,6,259,259,259,259,259,6,259,6,6,259,6,6,259,6,6,6,6,6,6,6,6,6,259,6,259,6,6,259,259,6,259,6,6,6,259,6,259,6,6,259,259,259,259,259,6,6,6,6,6,6,259,259,6,6,6,6,6,259,259,6,259,6,259,259,6,6,6,6,6,259,259,259,259,6,6,259,259,259,259,6,259,6,6,259,259,6,259,6,259,259,259,6,6,259,259,6,259,259,259,6,259,259,6,259,6,259,6,259,259,259,259,6,259,259,6,6,6,259,259,259,259,259,6,259,259,259],"coherence":1,"opposite_coherence":0,"dot_radius":2,"dot_side_length":1,"dot_life":-1,"move_distance":1,"aperture_width":300,"aperture_height":300,"dot_color":["white","white","white","black","white","white","black","black","white","white","white","white","white","black","white","white","black","white","black","black","black","white","white","white","white","black","black","black","black","white","white","black","white","black","white","white","white","white","black","white","black","white","white","white","white","black","black","black","black","black","black","black","black","black","white","black","white","white","white","white","white","black","black","black","black","white","black","black","white","black","black","white","black","white","black","black","black","black","black","white","black","white","white","black","white","white","black","white","white","white","white","white","white","white","white","white","black","white","black","white","white","black","black","white","black","white","white","white","black","white","black","white","white","black","black","black","black","black","white","white","white","white","white","white","black","black","white","white","white","white","white","black","black","white","black","white","black","black","white","white","white","white","white","black","black","black","black","white","white","black","black","black","black","white","black","white","white","black","black","white","black","white","black","black","black","white","white","black","black","white","black","black","black","white","black","black","white","black","white","black","white","black","black","black","black","white","black","black","white","white","white","black","black","black","black","black","white","black","black","black"],"dot_shape":"circle","background_color":"#AAA","RDK_type":3,"aperture_type":2,"reinsert_type":2,"frame_rate":16.88235294117647,"frame_rate_array":[15,17,16,34,17,17,17,17,16,17,17,16,17,17,17,17,17,16,17,17,16,17,17,19,15,16,16,17,19,15,16,16,17,17,16,17,17,16,17,17,17,17,17,16,16,17,17,17,16,17,17,17,16,17,17,17,17,18,16,16,17,17,18,17,16,17,17,16,17,17,17,17,17,16,17,17,16,17,17,16,17,18,17,17,17,17,17,16,17,17,17,16,16,16,18,17,16,17,17,16,17,17,17,17,17,16,17,16,18,16,16,16,17,16,17,17,17,17,17],"number_of_frames":119,"aperture_center_x":960,"aperture_center_y":540,"fixation_cross":true,"fixation_cross_width":15,"fixation_cross_height":15,"fixation_cross_color":"#111","fixation_cross_thickness":1,"border":true,"border_thickness":2,"border_color":"transparent","canvas_width":1920,"canvas_height":1080,"trial_type":"rdk","trial_index":80,"plugin_version":"2.0.0","time_elapsed":337751},{"rt":4151,"stimulus":"\n        <div class=\"response-container\">\n          <div class=\"response-instruction\">\n            <p>rotate the bar by using the left and right arrow keys.</p>\n            <p>when you are determined, press the Enter key.</p>\n          </div>\n          <div class=\"response-circle\">\n            <div class=\"response-fixation\"></div>\n            <div id=\"bar\" class=\"rotating-bar\"></div>\n          </div>\n        </div>\n      ","response":"Enter","trial_type":"html-keyboard-response","trial_index":81,"plugin_version":"2.1.0","time_elapsed":341902,"random_initial_angle":265,"response_angle_css":227,"response_angle_rdk":223,"angular_error_target":-36,"angular_error_distractor":-143,"target_direction":259,"target_group":"black","reward_points":2},{"rt":null,"stimulus":"\n          <p style=\"color: #FF3333;\">Your reward: 2 points</p>\n        ","response":null,"trial_type":"html-keyboard-response","trial_index":82,"plugin_version":"2.1.0","time_elapsed":343910},{"rt":null,"stimulus":"<div class=\"fixation\" style=\"font-size: 60px;\">+</div>","response":null,"trial_type":"html-keyboard-response","trial_index":83,"plugin_version":"2.1.0","time_elapsed":344922},{"phase":"learning-awareness","target_group":"black","condition_label":"B_H_vs_W_L_rep1","target_direction":250,"distractor_direction":3,"session_rotation":147,"rt":-1,"response":"","correct":false,"choices":"ALL_KEYS","correct_choice":["a"],"trial_duration":2000,"flip_timestamps":[],"response_ends_trial":false,"number_of_apertures":200,"number_of_dots":[1,1,1,1,1,1,1,1,1,1,1,1,1,1,1,1,1,1,1,1,1,1,1,1,1,1,1,1,1,1,1,1,1,1,1,1,1,1,1,1,1,1,1,1,1,1,1,1,1,1,1,1,1,1,1,1,1,1,1,1,1,1,1,1,1,1,1,1,1,1,1,1,1,1,1,1,1,1,1,1,1,1,1,1,1,1,1,1,1,1,1,1,1,1,1,1,1,1,1,1,1,1,1,1,1,1,1,1,1,1,1,1,1,1,1,1,1,1,1,1,1,1,1,1,1,1,1,1,1,1,1,1,1,1,1,1,1,1,1,1,1,1,1,1,1,1,1,1,1,1,1,1,1,1,1,1,1,1,1,1,1,1,1,1,1,1,1,1,1,1,1,1,1,1,1,1,1,1,1,1,1,1,1,1,1,1,1,1,1,1,1,1,1,1,1,1,1,1,1,1],"number_of_sets":1,"coherent_direction":[250,3,250,3,250,250,3,250,250,250,3,250,250,3,3,3,3,250,3,3,3,3,3,250,250,3,250,3,3,3,3,3,250,3,250,250,250,3,3,3,250,250,3,3,3,250,250,250,250,250,250,250,250,3,250,3,3,3,3,250,3,3,3,250,3,3,250,250,250,250,250,3,3,3,250,250,250,250,250,3,3,3,250,3,250,250,250,3,250,250,250,250,3,3,3,3,250,250,250,250,3,3,3,250,250,250,3,250,250,250,250,3,250,250,3,250,250,250,3,3,3,250,3,3,3,250,250,250,250,250,3,3,250,250,250,3,3,250,250,3,3,3,3,250,3,250,250,250,3,250,3,250,3,250,3,3,250,3,250,3,250,3,3,3,3,3,250,3,250,3,250,3,250,3,250,250,250,3,250,3,3,250,3,250,3,3,250,250,3,3,3,250,3,3,3,3,3,3,250,250],"coherence":1,"opposite_coherence":0,"dot_radius":2,"dot_side_length":1,"dot_life":-1,"move_distance":1,"aperture_width":300,"aperture_height":300,"dot_color":["black","white","black","white","black","black","white","black","black","black","white","black","black","white","white","white","white","black","white","white","white","white","white","black","black","white","black","white","white","white","white","white","black","white","black","black","black","white","white","white","black","black","white","white","white","black","black","black","black","black","black","black","black","white","black","white","white","white","white","black","white","white","white","black","white","white","black","black","black","black","black","white","white","white","black","black","black","black","black","white","white","white","black","white","black","black","black","white","black","black","black","black","white","white","white","white","black","black","black","black","white","white","white","black","black","black","white","black","black","black","black","white","black","black","white","black","black","black","white","white","white","black","white","white","white","black","black","black","black","black","white","white","black","black","black","white","white","black","black","white","white","white","white","black","white","black","black","black","white","black","white","black","white","black","white","white","black","white","black","white","black","white","white","white","white","white","black","white","black","white","black","white","black","white","black","black","black","white","black","white","white","black","white","black","white","white","black","black","white","white","white","black","white","white","white","white","white","white","black","black"],"dot_shape":"circle","background_color":"#AAA","RDK_type":3,"aperture_type":2,"reinsert_type":2,"frame_rate":16.789915966386555,"frame_rate_array":[8,14,34,16,17,17,16,17,17,16,17,17,16,17,17,17,17,16,17,17,16,17,17,17,16,17,16,17,17,16,17,18,16,16,17,17,16,17,16,17,16,17,16,17,17,16,17,18,16,16,17,16,17,17,17,17,16,17,18,17,17,17,17,17,16,17,17,17,17,17,17,17,17,17,16,17,18,17,16,17,17,17,17,16,16,17,17,17,17,17,17,17,17,17,16,17,16,17,17,17,16,16,17,17,17,17,18,16,16,17,16,16,18,15,17,17,17,16,17],"number_of_frames":119,"aperture_center_x":960,"aperture_center_y":540,"fixation_cross":true,"fixation_cross_width":15,"fixation_cross_height":15,"fixation_cross_color":"#111","fixation_cross_thickness":1,"border":true,"border_thickness":2,"border_color":"transparent","canvas_width":1920,"canvas_height":1080,"trial_type":"rdk","trial_index":84,"plugin_version":"2.0.0","time_elapsed":346927},{"rt":5174,"stimulus":"\n        <div class=\"response-container\">\n          <div class=\"response-instruction\">\n            <p>rotate the bar by using the left and right arrow keys.</p>\n            <p>when you are determined, press the Enter key.</p>\n          </div>\n          <div class=\"response-circle\">\n            <div class=\"response-fixation\"></div>\n            <div id=\"bar\" class=\"rotating-bar\"></div>\n          </div>\n        </div>\n      ","response":"Enter","trial_type":"html-keyboard-response","trial_index":85,"plugin_version":"2.1.0","time_elapsed":352101,"random_initial_angle":195,"response_angle_css":242,"response_angle_rdk":208,"angular_error_target":-42,"angular_error_distractor":-155,"target_direction":250,"target_group":"black","reward_points":1},{"rt":null,"stimulus":"\n          <p style=\"color: #FF3333;\">Your reward: 1 points</p>\n        ","response":null,"trial_type":"html-keyboard-response","trial_index":86,"plugin_version":"2.1.0","time_elapsed":354106},{"rt":null,"stimulus":"<div class=\"fixation\" style=\"font-size: 60px;\">+</div>","response":null,"trial_type":"html-keyboard-response","trial_index":87,"plugin_version":"2.1.0","time_elapsed":355115},{"phase":"learning-awareness","target_group":"black","condition_label":"B_H_vs_W_L_rep20","target_direction":237,"distractor_direction":7,"session_rotation":147,"rt":-1,"response":"","correct":false,"choices":"ALL_KEYS","correct_choice":["a"],"trial_duration":2000,"flip_timestamps":[],"response_ends_trial":false,"number_of_apertures":200,"number_of_dots":[1,1,1,1,1,1,1,1,1,1,1,1,1,1,1,1,1,1,1,1,1,1,1,1,1,1,1,1,1,1,1,1,1,1,1,1,1,1,1,1,1,1,1,1,1,1,1,1,1,1,1,1,1,1,1,1,1,1,1,1,1,1,1,1,1,1,1,1,1,1,1,1,1,1,1,1,1,1,1,1,1,1,1,1,1,1,1,1,1,1,1,1,1,1,1,1,1,1,1,1,1,1,1,1,1,1,1,1,1,1,1,1,1,1,1,1,1,1,1,1,1,1,1,1,1,1,1,1,1,1,1,1,1,1,1,1,1,1,1,1,1,1,1,1,1,1,1,1,1,1,1,1,1,1,1,1,1,1,1,1,1,1,1,1,1,1,1,1,1,1,1,1,1,1,1,1,1,1,1,1,1,1,1,1,1,1,1,1,1,1,1,1,1,1,1,1,1,1,1,1],"number_of_sets":1,"coherent_direction":[7,237,237,7,237,7,7,237,237,7,237,237,7,237,7,7,237,237,7,237,237,7,7,237,237,7,7,237,237,237,7,7,237,7,7,237,237,7,7,237,7,237,237,7,237,237,237,7,7,7,237,237,7,237,237,7,7,7,7,237,237,237,7,7,7,237,7,237,7,7,7,237,237,7,7,7,7,7,237,7,7,237,7,7,237,237,237,7,7,237,7,237,237,7,237,7,7,237,7,7,7,237,237,7,7,237,7,7,7,7,7,237,7,237,237,237,7,7,7,237,237,237,237,7,237,237,7,237,7,7,237,7,7,7,237,7,7,7,237,237,237,237,237,7,237,237,237,237,237,237,7,7,7,7,7,237,7,237,7,7,237,7,237,237,7,237,237,7,237,237,7,237,7,7,237,7,237,237,7,7,237,237,7,237,7,237,7,237,7,7,237,237,237,237,237,7,7,237,237,237],"coherence":1,"opposite_coherence":0,"dot_radius":2,"dot_side_length":1,"dot_life":-1,"move_distance":1,"aperture_width":300,"aperture_height":300,"dot_color":["white","black","black","white","black","white","white","black","black","white","black","black","white","black","white","white","black","black","white","black","black","white","white","black","black","white","white","black","black","black","white","white","black","white","white","black","black","white","white","black","white","black","black","white","black","black","black","white","white","white","black","black","white","black","black","white","white","white","white","black","black","black","white","white","white","black","white","black","white","white","white","black","black","white","white","white","white","white","black","white","white","black","white","white","black","black","black","white","white","black","white","black","black","white","black","white","white","black","white","white","white","black","black","white","white","black","white","white","white","white","white","black","white","black","black","black","white","white","white","black","black","black","black","white","black","black","white","black","white","white","black","white","white","white","black","white","white","white","black","black","black","black","black","white","black","black","black","black","black","black","white","white","white","white","white","black","white","black","white","white","black","white","black","black","white","black","black","white","black","black","white","black","white","white","black","white","black","black","white","white","black","black","white","black","white","black","white","black","white","white","black","black","black","black","black","white","white","black","black","black"],"dot_shape":"circle","background_color":"#AAA","RDK_type":3,"aperture_type":2,"reinsert_type":2,"frame_rate":16.675,"frame_rate_array":[21,8,33,3,13,17,17,17,16,17,16,17,16,16,17,17,17,17,16,17,17,16,17,17,16,17,18,16,17,16,17,17,17,17,16,17,17,19,14,16,17,17,16,17,18,16,17,16,16,17,18,15,17,17,17,17,16,17,17,17,16,17,17,17,16,17,17,16,17,17,17,17,16,17,17,16,17,17,17,17,16,17,17,17,16,17,17,16,17,16,17,16,16,17,17,17,17,18,16,17,17,17,17,16,16,20,14,17,16,17,17,16,17,19,15,16,17,17,18,16],"number_of_frames":120,"aperture_center_x":960,"aperture_center_y":540,"fixation_cross":true,"fixation_cross_width":15,"fixation_cross_height":15,"fixation_cross_color":"#111","fixation_cross_thickness":1,"border":true,"border_thickness":2,"border_color":"transparent","canvas_width":1920,"canvas_height":1080,"trial_type":"rdk","trial_index":88,"plugin_version":"2.0.0","time_elapsed":357131},{"rt":3722,"stimulus":"\n        <div class=\"response-container\">\n          <div class=\"response-instruction\">\n            <p>rotate the bar by using the left and right arrow keys.</p>\n            <p>when you are determined, press the Enter key.</p>\n          </div>\n          <div class=\"response-circle\">\n            <div class=\"response-fixation\"></div>\n            <div id=\"bar\" class=\"rotating-bar\"></div>\n          </div>\n        </div>\n      ","response":"Enter","trial_type":"html-keyboard-response","trial_index":89,"plugin_version":"2.1.0","time_elapsed":360854,"random_initial_angle":220,"response_angle_css":230,"response_angle_rdk":220,"angular_error_target":-17,"angular_error_distractor":-147,"target_direction":237,"target_group":"black","reward_points":6},{"rt":null,"stimulus":"\n          <p style=\"color: #00FF00;\">Your reward: 6 points</p>\n        ","response":null,"trial_type":"html-keyboard-response","trial_index":90,"plugin_version":"2.1.0","time_elapsed":362874},{"rt":null,"stimulus":"<div class=\"fixation\" style=\"font-size: 60px;\">+</div>","response":null,"trial_type":"html-keyboard-response","trial_index":91,"plugin_version":"2.1.0","time_elapsed":363889},{"phase":"learning-awareness","target_group":"black","condition_label":"B_H_vs_W_L_rep19","target_direction":255,"distractor_direction":3,"session_rotation":147,"rt":-1,"response":"","correct":false,"choices":"ALL_KEYS","correct_choice":["a"],"trial_duration":2000,"flip_timestamps":[],"response_ends_trial":false,"number_of_apertures":200,"number_of_dots":[1,1,1,1,1,1,1,1,1,1,1,1,1,1,1,1,1,1,1,1,1,1,1,1,1,1,1,1,1,1,1,1,1,1,1,1,1,1,1,1,1,1,1,1,1,1,1,1,1,1,1,1,1,1,1,1,1,1,1,1,1,1,1,1,1,1,1,1,1,1,1,1,1,1,1,1,1,1,1,1,1,1,1,1,1,1,1,1,1,1,1,1,1,1,1,1,1,1,1,1,1,1,1,1,1,1,1,1,1,1,1,1,1,1,1,1,1,1,1,1,1,1,1,1,1,1,1,1,1,1,1,1,1,1,1,1,1,1,1,1,1,1,1,1,1,1,1,1,1,1,1,1,1,1,1,1,1,1,1,1,1,1,1,1,1,1,1,1,1,1,1,1,1,1,1,1,1,1,1,1,1,1,1,1,1,1,1,1,1,1,1,1,1,1,1,1,1,1,1,1],"number_of_sets":1,"coherent_direction":[255,255,255,3,255,3,3,3,255,255,255,3,3,255,255,255,255,3,3,255,255,255,255,3,3,3,3,3,3,3,3,255,255,3,255,255,255,3,3,255,255,3,3,255,3,3,3,3,3,255,255,255,3,3,3,255,255,255,255,255,3,255,255,3,255,3,3,3,255,255,255,255,3,3,3,255,3,255,3,3,3,3,3,3,255,3,3,3,255,255,3,3,255,255,3,255,3,255,255,3,255,3,3,3,3,3,255,255,255,255,3,3,3,255,3,3,3,255,255,255,255,255,255,3,3,3,3,255,3,3,255,255,255,3,3,3,255,255,255,3,255,255,255,3,255,255,3,3,255,255,3,255,3,255,255,255,3,255,3,3,3,3,3,255,3,3,255,3,255,255,255,255,255,255,3,255,255,3,3,255,255,255,3,255,3,255,255,255,3,3,3,255,255,3,3,3,255,255,3,3],"coherence":1,"opposite_coherence":0,"dot_radius":2,"dot_side_length":1,"dot_life":-1,"move_distance":1,"aperture_width":300,"aperture_height":300,"dot_color":["black","black","black","white","black","white","white","white","black","black","black","white","white","black","black","black","black","white","white","black","black","black","black","white","white","white","white","white","white","white","white","black","black","white","black","black","black","white","white","black","black","white","white","black","white","white","white","white","white","black","black","black","white","white","white","black","black","black","black","black","white","black","black","white","black","white","white","white","black","black","black","black","white","white","white","black","white","black","white","white","white","white","white","white","black","white","white","white","black","black","white","white","black","black","white","black","white","black","black","white","black","white","white","white","white","white","black","black","black","black","white","white","white","black","white","white","white","black","black","black","black","black","black","white","white","white","white","black","white","white","black","black","black","white","white","white","black","black","black","white","black","black","black","white","black","black","white","white","black","black","white","black","white","black","black","black","white","black","white","white","white","white","white","black","white","white","black","white","black","black","black","black","black","black","white","black","black","white","white","black","black","black","white","black","white","black","black","black","white","white","white","black","black","white","white","white","black","black","white","white"],"dot_shape":"circle","background_color":"#AAA","RDK_type":3,"aperture_type":2,"reinsert_type":2,"frame_rate":16.840336134453782,"frame_rate_array":[7,16,35,16,17,17,17,17,17,16,17,17,17,17,17,17,15,16,17,16,17,17,16,17,17,17,17,16,17,17,17,17,17,17,16,17,16,17,17,17,17,17,17,17,17,17,16,17,17,17,15,17,17,17,17,17,16,19,15,17,16,17,16,17,16,17,17,17,17,17,17,17,17,17,17,16,17,17,20,13,17,17,17,17,17,17,17,17,17,16,17,17,17,17,17,17,16,18,16,17,17,17,16,17,17,16,17,17,17,16,18,15,17,16,17,17,16,17,18],"number_of_frames":119,"aperture_center_x":960,"aperture_center_y":540,"fixation_cross":true,"fixation_cross_width":15,"fixation_cross_height":15,"fixation_cross_color":"#111","fixation_cross_thickness":1,"border":true,"border_thickness":2,"border_color":"transparent","canvas_width":1920,"canvas_height":1080,"trial_type":"rdk","trial_index":92,"plugin_version":"2.0.0","time_elapsed":365897},{"rt":5585,"stimulus":"\n        <div class=\"response-container\">\n          <div class=\"response-instruction\">\n            <p>rotate the bar by using the left and right arrow keys.</p>\n            <p>when you are determined, press the Enter key.</p>\n          </div>\n          <div class=\"response-circle\">\n            <div class=\"response-fixation\"></div>\n            <div id=\"bar\" class=\"rotating-bar\"></div>\n          </div>\n        </div>\n      ","response":"Enter","trial_type":"html-keyboard-response","trial_index":93,"plugin_version":"2.1.0","time_elapsed":371483,"random_initial_angle":319,"response_angle_css":219,"response_angle_rdk":231,"angular_error_target":-24,"angular_error_distractor":-132,"target_direction":255,"target_group":"black","reward_points":5},{"rt":null,"stimulus":"\n          <p style=\"color: #00FF00;\">Your reward: 5 points</p>\n        ","response":null,"trial_type":"html-keyboard-response","trial_index":94,"plugin_version":"2.1.0","time_elapsed":373497},{"rt":null,"stimulus":"<div class=\"fixation\" style=\"font-size: 60px;\">+</div>","response":null,"trial_type":"html-keyboard-response","trial_index":95,"plugin_version":"2.1.0","time_elapsed":374513},{"phase":"learning-awareness","target_group":"black","condition_label":"B_H_vs_W_L_rep8","target_direction":238,"distractor_direction":2,"session_rotation":147,"rt":-1,"response":"","correct":false,"choices":"ALL_KEYS","correct_choice":["a"],"trial_duration":2000,"flip_timestamps":[],"response_ends_trial":false,"number_of_apertures":200,"number_of_dots":[1,1,1,1,1,1,1,1,1,1,1,1,1,1,1,1,1,1,1,1,1,1,1,1,1,1,1,1,1,1,1,1,1,1,1,1,1,1,1,1,1,1,1,1,1,1,1,1,1,1,1,1,1,1,1,1,1,1,1,1,1,1,1,1,1,1,1,1,1,1,1,1,1,1,1,1,1,1,1,1,1,1,1,1,1,1,1,1,1,1,1,1,1,1,1,1,1,1,1,1,1,1,1,1,1,1,1,1,1,1,1,1,1,1,1,1,1,1,1,1,1,1,1,1,1,1,1,1,1,1,1,1,1,1,1,1,1,1,1,1,1,1,1,1,1,1,1,1,1,1,1,1,1,1,1,1,1,1,1,1,1,1,1,1,1,1,1,1,1,1,1,1,1,1,1,1,1,1,1,1,1,1,1,1,1,1,1,1,1,1,1,1,1,1,1,1,1,1,1,1],"number_of_sets":1,"coherent_direction":[2,238,238,2,238,2,238,2,238,238,238,2,2,238,2,2,2,2,238,2,238,2,2,238,2,238,238,2,2,238,2,2,238,2,238,2,238,2,2,238,2,238,238,2,238,238,2,2,2,2,238,2,238,238,238,2,238,238,2,2,2,238,2,238,2,238,2,2,2,2,2,238,238,2,238,2,2,238,238,2,238,2,238,238,2,238,238,238,2,238,238,238,238,2,238,2,2,238,238,238,238,2,238,2,238,2,2,2,238,2,2,238,2,2,2,2,2,238,238,2,2,238,2,2,2,238,2,238,238,238,2,2,238,2,238,238,238,2,2,2,238,2,238,2,2,238,2,2,2,2,238,238,238,2,238,2,238,2,238,2,2,238,238,238,2,2,238,238,238,2,2,2,238,2,238,238,238,238,2,238,238,238,2,2,2,238,238,238,238,238,238,2,238,238,2,2,238,238,238,2],"coherence":1,"opposite_coherence":0,"dot_radius":2,"dot_side_length":1,"dot_life":-1,"move_distance":1,"aperture_width":300,"aperture_height":300,"dot_color":["white","black","black","white","black","white","black","white","black","black","black","white","white","black","white","white","white","white","black","white","black","white","white","black","white","black","black","white","white","black","white","white","black","white","black","white","black","white","white","black","white","black","black","white","black","black","white","white","white","white","black","white","black","black","black","white","black","black","white","white","white","black","white","black","white","black","white","white","white","white","white","black","black","white","black","white","white","black","black","white","black","white","black","black","white","black","black","black","white","black","black","black","black","white","black","white","white","black","black","black","black","white","black","white","black","white","white","white","black","white","white","black","white","white","white","white","white","black","black","white","white","black","white","white","white","black","white","black","black","black","white","white","black","white","black","black","black","white","white","white","black","white","black","white","white","black","white","white","white","white","black","black","black","white","black","white","black","white","black","white","white","black","black","black","white","white","black","black","black","white","white","white","black","white","black","black","black","black","white","black","black","black","white","white","white","black","black","black","black","black","black","white","black","black","white","white","black","black","black","white"],"dot_shape":"circle","background_color":"#AAA","RDK_type":3,"aperture_type":2,"reinsert_type":2,"frame_rate":16.691666666666666,"frame_rate_array":[10,15,32,4,14,16,16,17,17,17,17,17,16,17,16,17,17,17,18,16,16,17,17,16,17,16,17,17,17,16,17,18,16,16,17,17,16,17,17,17,18,16,17,17,17,17,17,17,16,17,21,12,17,17,16,17,17,16,17,17,17,17,17,17,17,17,16,17,17,16,17,17,17,17,16,16,17,17,17,16,18,16,16,17,17,17,17,16,17,17,16,17,17,17,16,17,17,17,18,15,17,17,16,17,17,17,17,17,17,17,16,17,16,17,17,17,17,17,18,16],"number_of_frames":120,"aperture_center_x":960,"aperture_center_y":540,"fixation_cross":true,"fixation_cross_width":15,"fixation_cross_height":15,"fixation_cross_color":"#111","fixation_cross_thickness":1,"border":true,"border_thickness":2,"border_color":"transparent","canvas_width":1920,"canvas_height":1080,"trial_type":"rdk","trial_index":96,"plugin_version":"2.0.0","time_elapsed":376547},{"rt":5208,"stimulus":"\n        <div class=\"response-container\">\n          <div class=\"response-instruction\">\n            <p>rotate the bar by using the left and right arrow keys.</p>\n            <p>when you are determined, press the Enter key.</p>\n          </div>\n          <div class=\"response-circle\">\n            <div class=\"response-fixation\"></div>\n            <div id=\"bar\" class=\"rotating-bar\"></div>\n          </div>\n        </div>\n      ","response":"Enter","trial_type":"html-keyboard-response","trial_index":97,"plugin_version":"2.1.0","time_elapsed":381756,"random_initial_angle":195,"response_angle_css":243,"response_angle_rdk":207,"angular_error_target":-31,"angular_error_distractor":-155,"target_direction":238,"target_group":"black","reward_points":3},{"rt":null,"stimulus":"\n          <p style=\"color: #00FF00;\">Your reward: 3 points</p>\n        ","response":null,"trial_type":"html-keyboard-response","trial_index":98,"plugin_version":"2.1.0","time_elapsed":383773},{"rt":null,"stimulus":"<div class=\"fixation\" style=\"font-size: 60px;\">+</div>","response":null,"trial_type":"html-keyboard-response","trial_index":99,"plugin_version":"2.1.0","time_elapsed":384777},{"phase":"learning-awareness","target_group":"white","condition_label":"W_H_vs_B_L_rep18","target_direction":161,"distractor_direction":62,"session_rotation":147,"rt":-1,"response":"","correct":false,"choices":"ALL_KEYS","correct_choice":["a"],"trial_duration":2000,"flip_timestamps":[],"response_ends_trial":false,"number_of_apertures":200,"number_of_dots":[1,1,1,1,1,1,1,1,1,1,1,1,1,1,1,1,1,1,1,1,1,1,1,1,1,1,1,1,1,1,1,1,1,1,1,1,1,1,1,1,1,1,1,1,1,1,1,1,1,1,1,1,1,1,1,1,1,1,1,1,1,1,1,1,1,1,1,1,1,1,1,1,1,1,1,1,1,1,1,1,1,1,1,1,1,1,1,1,1,1,1,1,1,1,1,1,1,1,1,1,1,1,1,1,1,1,1,1,1,1,1,1,1,1,1,1,1,1,1,1,1,1,1,1,1,1,1,1,1,1,1,1,1,1,1,1,1,1,1,1,1,1,1,1,1,1,1,1,1,1,1,1,1,1,1,1,1,1,1,1,1,1,1,1,1,1,1,1,1,1,1,1,1,1,1,1,1,1,1,1,1,1,1,1,1,1,1,1,1,1,1,1,1,1,1,1,1,1,1,1],"number_of_sets":1,"coherent_direction":[62,62,62,62,161,62,62,161,161,161,161,161,62,62,62,62,62,62,62,161,62,161,62,161,161,62,161,62,62,161,161,62,161,161,62,161,161,161,161,161,161,62,62,62,62,161,62,161,161,62,161,62,161,62,62,62,161,161,161,161,161,161,62,161,161,161,161,62,161,62,161,62,161,62,62,161,62,161,161,62,161,161,62,161,161,62,161,62,161,62,62,161,161,62,161,62,161,62,161,62,62,62,161,62,62,62,62,62,161,161,161,62,62,62,62,62,62,161,62,161,62,161,62,161,161,62,161,161,161,161,62,62,161,62,161,62,62,161,161,161,62,62,62,161,62,62,161,62,161,161,161,161,62,161,161,62,161,62,161,161,62,62,161,161,161,161,62,62,62,161,161,161,62,62,62,161,62,161,161,161,62,62,161,62,62,161,62,62,62,62,62,161,161,62,161,62,62,62,161,161],"coherence":1,"opposite_coherence":0,"dot_radius":2,"dot_side_length":1,"dot_life":-1,"move_distance":1,"aperture_width":300,"aperture_height":300,"dot_color":["black","black","black","black","white","black","black","white","white","white","white","white","black","black","black","black","black","black","black","white","black","white","black","white","white","black","white","black","black","white","white","black","white","white","black","white","white","white","white","white","white","black","black","black","black","white","black","white","white","black","white","black","white","black","black","black","white","white","white","white","white","white","black","white","white","white","white","black","white","black","white","black","white","black","black","white","black","white","white","black","white","white","black","white","white","black","white","black","white","black","black","white","white","black","white","black","white","black","white","black","black","black","white","black","black","black","black","black","white","white","white","black","black","black","black","black","black","white","black","white","black","white","black","white","white","black","white","white","white","white","black","black","white","black","white","black","black","white","white","white","black","black","black","white","black","black","white","black","white","white","white","white","black","white","white","black","white","black","white","white","black","black","white","white","white","white","black","black","black","white","white","white","black","black","black","white","black","white","white","white","black","black","white","black","black","white","black","black","black","black","black","white","white","black","white","black","black","black","white","white"],"dot_shape":"circle","background_color":"#AAA","RDK_type":3,"aperture_type":2,"reinsert_type":2,"frame_rate":16.75,"frame_rate_array":[5,10,17,33,16,17,17,17,16,17,17,16,17,17,17,17,17,16,17,17,16,17,17,17,16,17,17,16,17,18,17,16,17,16,17,17,17,17,17,16,17,17,17,17,17,17,17,16,17,17,18,14,17,17,17,17,19,15,17,16,17,16,17,17,21,13,17,17,17,16,17,17,17,17,17,17,17,17,17,16,16,17,17,16,17,17,17,16,17,17,16,18,17,16,17,17,17,17,17,16,17,16,17,17,17,17,17,16,17,17,17,20,14,16,17,16,16,17,17,16],"number_of_frames":120,"aperture_center_x":960,"aperture_center_y":540,"fixation_cross":true,"fixation_cross_width":15,"fixation_cross_height":15,"fixation_cross_color":"#111","fixation_cross_thickness":1,"border":true,"border_thickness":2,"border_color":"transparent","canvas_width":1920,"canvas_height":1080,"trial_type":"rdk","trial_index":100,"plugin_version":"2.0.0","time_elapsed":386783},{"rt":5777,"stimulus":"\n        <div class=\"response-container\">\n          <div class=\"response-instruction\">\n            <p>rotate the bar by using the left and right arrow keys.</p>\n            <p>when you are determined, press the Enter key.</p>\n          </div>\n          <div class=\"response-circle\">\n            <div class=\"response-fixation\"></div>\n            <div id=\"bar\" class=\"rotating-bar\"></div>\n          </div>\n        </div>\n      ","response":"Enter","trial_type":"html-keyboard-response","trial_index":101,"plugin_version":"2.1.0","time_elapsed":392562,"random_initial_angle":205,"response_angle_css":410,"response_angle_rdk":40,"angular_error_target":-121,"angular_error_distractor":-22,"target_direction":161,"target_group":"white","reward_points":0},{"rt":null,"stimulus":"\n          <p style=\"color: #FF3333;\">Your reward: 0 points</p>\n        ","response":null,"trial_type":"html-keyboard-response","trial_index":102,"plugin_version":"2.1.0","time_elapsed":394578},{"rt":null,"stimulus":"<div class=\"fixation\" style=\"font-size: 60px;\">+</div>","response":null,"trial_type":"html-keyboard-response","trial_index":103,"plugin_version":"2.1.0","time_elapsed":395583},{"phase":"learning-awareness","target_group":"black","condition_label":"B_H_vs_W_L_rep14","target_direction":261,"distractor_direction":3,"session_rotation":147,"rt":-1,"response":"","correct":false,"choices":"ALL_KEYS","correct_choice":["a"],"trial_duration":2000,"flip_timestamps":[],"response_ends_trial":false,"number_of_apertures":200,"number_of_dots":[1,1,1,1,1,1,1,1,1,1,1,1,1,1,1,1,1,1,1,1,1,1,1,1,1,1,1,1,1,1,1,1,1,1,1,1,1,1,1,1,1,1,1,1,1,1,1,1,1,1,1,1,1,1,1,1,1,1,1,1,1,1,1,1,1,1,1,1,1,1,1,1,1,1,1,1,1,1,1,1,1,1,1,1,1,1,1,1,1,1,1,1,1,1,1,1,1,1,1,1,1,1,1,1,1,1,1,1,1,1,1,1,1,1,1,1,1,1,1,1,1,1,1,1,1,1,1,1,1,1,1,1,1,1,1,1,1,1,1,1,1,1,1,1,1,1,1,1,1,1,1,1,1,1,1,1,1,1,1,1,1,1,1,1,1,1,1,1,1,1,1,1,1,1,1,1,1,1,1,1,1,1,1,1,1,1,1,1,1,1,1,1,1,1,1,1,1,1,1,1],"number_of_sets":1,"coherent_direction":[3,3,3,3,261,3,261,261,3,3,261,3,261,261,261,261,3,261,3,261,261,261,3,261,3,261,261,261,3,3,3,261,261,261,261,3,3,261,3,3,3,3,261,3,261,3,3,3,261,3,261,3,3,3,3,261,3,261,261,3,3,261,3,261,261,261,261,261,3,261,261,3,3,3,261,261,3,3,3,261,3,3,3,3,3,261,3,261,3,3,3,3,261,261,3,261,3,3,261,3,3,3,261,261,261,3,261,261,3,261,3,3,261,3,261,261,3,261,261,3,3,3,261,3,3,3,3,3,3,261,261,261,261,261,3,261,3,3,3,261,261,3,261,3,261,261,3,261,261,261,3,261,261,261,261,3,261,261,261,3,261,261,3,3,261,261,3,3,261,3,261,3,261,261,3,3,261,261,261,3,261,3,3,261,3,3,3,261,3,261,261,261,261,261,3,261,3,3,261,261],"coherence":1,"opposite_coherence":0,"dot_radius":2,"dot_side_length":1,"dot_life":-1,"move_distance":1,"aperture_width":300,"aperture_height":300,"dot_color":["white","white","white","white","black","white","black","black","white","white","black","white","black","black","black","black","white","black","white","black","black","black","white","black","white","black","black","black","white","white","white","black","black","black","black","white","white","black","white","white","white","white","black","white","black","white","white","white","black","white","black","white","white","white","white","black","white","black","black","white","white","black","white","black","black","black","black","black","white","black","black","white","white","white","black","black","white","white","white","black","white","white","white","white","white","black","white","black","white","white","white","white","black","black","white","black","white","white","black","white","white","white","black","black","black","white","black","black","white","black","white","white","black","white","black","black","white","black","black","white","white","white","black","white","white","white","white","white","white","black","black","black","black","black","white","black","white","white","white","black","black","white","black","white","black","black","white","black","black","black","white","black","black","black","black","white","black","black","black","white","black","black","white","white","black","black","white","white","black","white","black","white","black","black","white","white","black","black","black","white","black","white","white","black","white","white","white","black","white","black","black","black","black","black","white","black","white","white","black","black"],"dot_shape":"circle","background_color":"#AAA","RDK_type":3,"aperture_type":2,"reinsert_type":2,"frame_rate":16.84873949579832,"frame_rate_array":[13,16,33,17,16,17,17,17,17,16,16,17,17,17,17,17,18,16,16,17,17,16,16,17,17,17,17,17,17,17,17,16,17,17,16,16,17,18,16,16,18,15,17,17,17,16,17,16,16,17,17,16,17,17,17,17,16,17,17,17,17,17,16,16,18,16,17,18,16,17,17,16,17,17,16,16,17,16,17,17,17,17,16,17,16,17,17,16,17,17,17,16,17,17,17,17,17,17,17,17,17,16,17,17,17,17,17,16,16,17,17,17,18,17,17,16,17,17,17],"number_of_frames":119,"aperture_center_x":960,"aperture_center_y":540,"fixation_cross":true,"fixation_cross_width":15,"fixation_cross_height":15,"fixation_cross_color":"#111","fixation_cross_thickness":1,"border":true,"border_thickness":2,"border_color":"transparent","canvas_width":1920,"canvas_height":1080,"trial_type":"rdk","trial_index":104,"plugin_version":"2.0.0","time_elapsed":397589},{"rt":5216,"stimulus":"\n        <div class=\"response-container\">\n          <div class=\"response-instruction\">\n            <p>rotate the bar by using the left and right arrow keys.</p>\n            <p>when you are determined, press the Enter key.</p>\n          </div>\n          <div class=\"response-circle\">\n            <div class=\"response-fixation\"></div>\n            <div id=\"bar\" class=\"rotating-bar\"></div>\n          </div>\n        </div>\n      ","response":"Enter","trial_type":"html-keyboard-response","trial_index":105,"plugin_version":"2.1.0","time_elapsed":402806,"random_initial_angle":145,"response_angle_css":225,"response_angle_rdk":225,"angular_error_target":-36,"angular_error_distractor":-138,"target_direction":261,"target_group":"black","reward_points":2},{"rt":null,"stimulus":"\n          <p style=\"color: #FF3333;\">Your reward: 2 points</p>\n        ","response":null,"trial_type":"html-keyboard-response","trial_index":106,"plugin_version":"2.1.0","time_elapsed":404818},{"rt":null,"stimulus":"<div class=\"fixation\" style=\"font-size: 60px;\">+</div>","response":null,"trial_type":"html-keyboard-response","trial_index":107,"plugin_version":"2.1.0","time_elapsed":405823},{"phase":"learning-awareness","target_group":"black","condition_label":"B_H_vs_W_L_rep5","target_direction":253,"distractor_direction":3,"session_rotation":147,"rt":-1,"response":"","correct":false,"choices":"ALL_KEYS","correct_choice":["a"],"trial_duration":2000,"flip_timestamps":[],"response_ends_trial":false,"number_of_apertures":200,"number_of_dots":[1,1,1,1,1,1,1,1,1,1,1,1,1,1,1,1,1,1,1,1,1,1,1,1,1,1,1,1,1,1,1,1,1,1,1,1,1,1,1,1,1,1,1,1,1,1,1,1,1,1,1,1,1,1,1,1,1,1,1,1,1,1,1,1,1,1,1,1,1,1,1,1,1,1,1,1,1,1,1,1,1,1,1,1,1,1,1,1,1,1,1,1,1,1,1,1,1,1,1,1,1,1,1,1,1,1,1,1,1,1,1,1,1,1,1,1,1,1,1,1,1,1,1,1,1,1,1,1,1,1,1,1,1,1,1,1,1,1,1,1,1,1,1,1,1,1,1,1,1,1,1,1,1,1,1,1,1,1,1,1,1,1,1,1,1,1,1,1,1,1,1,1,1,1,1,1,1,1,1,1,1,1,1,1,1,1,1,1,1,1,1,1,1,1,1,1,1,1,1,1],"number_of_sets":1,"coherent_direction":[3,253,3,3,253,3,253,253,253,253,253,253,3,3,3,253,253,253,253,253,3,3,253,253,3,3,253,3,3,253,253,253,3,3,3,253,3,253,253,253,3,3,253,253,3,3,3,3,253,253,253,253,3,253,3,3,3,3,3,3,3,253,3,3,3,3,3,3,253,253,3,253,3,253,253,3,3,3,3,253,3,253,253,3,253,3,253,253,3,253,3,253,3,253,253,3,253,3,3,253,3,253,3,253,3,253,253,3,3,3,3,253,3,3,3,253,253,253,253,253,3,253,3,3,253,253,253,253,253,3,3,253,3,253,3,253,3,253,253,253,3,3