[{"rt":3946,"stimulus":"Welcome to the experiment. Press any key to begin.","response":"F11","trial_type":"html-keyboard-response","trial_index":0,"plugin_version":"2.1.0","time_elapsed":3949},{"rt":40300,"stimulus":"\n        <div class=\"instructions-container\">\n          <h2>Instructions</h2>\n\n          <p>\n          In this experiment, you will see <strong>two Random Dot Kinematograms (RDKs)</strong> displayed simultaneously.\n          </p>\n\n          <p>\n          An RDK is a visual stimulus consisting of many small dots that move coherently in a single direction. \n          In this experiment, the dots will be either <strong>white</strong> or <strong>black</strong> \n          (see the short demo below for an example of an RDK stimulus).\n          </p>\n\n          <p>\n          On each trial, the two RDKs will move in different directions. \n          Your task is to decide <strong>which RDK appears to contain more dots</strong>.\n          </p>\n\n          <p>\n          The RDK that you judge to have more dots is called the <strong>target RDK</strong>. \n          For example, if the white RDK appears to have more dots than the black RDK, \n          you should report the motion direction of the white RDK.\n          </p>\n\n          <p>\n          After viewing the RDKs, you will rotate a bar to indicate the perceived direction of the target RDK \n          using the <strong>left</strong> and <strong>right arrow keys</strong>. \n          Press <strong>Enter</strong> when you are satisfied with your response.\n          When the bar is held down, the rotation speed increases.\n          </p>\n\n          <p>\n          You will receive points based on the <strong>accuracy of your response</strong>, \n          and your final <strong>bonus reward</strong> may depend on your overall performance. \n          Please try to respond as accurately as possible.\n          </p>\n\n          <p>\n          You will first complete <strong>16 practice trials</strong>. \n          Press the <strong>Enter</strong> key to start the practice phase.\n          </p>\n\n          <canvas id=\"instruction-demo-rdk\" width=\"200\" height=\"200\"style=\"display:block;margin:12px auto; border-radius: 50%;\"></canvas>\n        </div>\n      ","response":"Enter","trial_type":"html-keyboard-response","trial_index":1,"plugin_version":"2.1.0","time_elapsed":44251},{"rt":null,"stimulus":"<div class=\"fixation\" style=\"font-size: 60px;\">+</div>","response":null,"trial_type":"html-keyboard-response","trial_index":2,"plugin_version":"2.1.0","time_elapsed":45252},{"target_group":"black","target_index":1,"condition_label":"practice","rt":-1,"response":"","correct":false,"choices":"ALL_KEYS","correct_choice":["a"],"trial_duration":2000,"flip_timestamps":[],"response_ends_trial":false,"number_of_apertures":2,"number_of_dots":[51,100],"number_of_sets":1,"coherent_direction":[4,226],"coherence":1,"opposite_coherence":0,"dot_radius":2,"dot_side_length":1,"dot_life":-1,"move_distance":1,"aperture_width":300,"aperture_height":300,"dot_color":["white","black"],"dot_shape":"circle","background_color":"#AAA","RDK_type":3,"aperture_type":2,"reinsert_type":2,"frame_rate":6.180981595092025,"frame_rate_array":[1,6,40,2,1,8,6,6,6,7,6,6,6,6,6,6,6,7,6,6,6,6,6,6,6,6,6,6,6,6,6,7,6,6,6,6,6,6,6,6,7,6,6,6,6,6,6,7,6,6,6,6,6,6,6,7,6,6,6,6,6,6,7,6,6,6,6,6,6,6,6,6,6,6,6,6,6,6,6,6,6,6,6,6,6,6,6,6,6,6,6,6,6,6,6,6,6,6,6,6,6,7,6,6,6,6,6,6,7,6,6,6,6,7,6,6,6,6,7,6,6,7,6,6,6,6,7,6,6,6,6,6,6,6,6,6,6,6,7,6,6,6,6,7,6,6,7,6,6,6,6,6,6,6,6,6,6,6,6,6,6,6,7,6,6,6,6,6,6,6,6,6,6,6,6,6,6,6,6,6,7,6,6,6,6,6,6,7,6,6,6,6,6,6,6,6,6,6,6,6,6,7,6,6,6,6,7,6,6,6,7,6,6,6,6,6,6,6,6,6,6,6,6,6,6,6,6,6,6,6,6,6,6,6,6,6,6,6,6,7,6,6,6,6,7,6,6,6,7,6,6,6,6,6,6,7,6,6,7,5,6,6,6,7,6,6,6,6,6,6,6,6,7,6,6,6,6,7,6,6,6,6,7,6,6,6,6,6,7,6,6,7,6,6,6,6,6,6,7,6,6,6,6,6,6,6,6,6,7,6,6,6,7,6,6,6,7,5,7,6,6,6,7,6,6,6],"number_of_frames":326,"aperture_center_x":640,"aperture_center_y":400,"fixation_cross":true,"fixation_cross_width":15,"fixation_cross_height":15,"fixation_cross_color":"#111","fixation_cross_thickness":1,"border":true,"border_thickness":2,"border_color":"transparent","canvas_width":1280,"canvas_height":800,"trial_type":"rdk","trial_index":3,"plugin_version":"2.0.0","time_elapsed":47257,"phase":"practice","target_direction":226,"distractor_direction":4},{"rt":4317,"stimulus":"\n        <div class=\"response-container\">\n          <div class=\"response-instruction\">\n            <p>rotate the bar by using the left and right arrow keys.</p>\n            <p>when you are determined, press the Enter key.</p>\n          </div>\n          <div class=\"response-circle\">\n            <div class=\"response-fixation\"></div>\n            <div id=\"bar\" class=\"rotating-bar\"></div>\n          </div>\n        </div>\n      ","response":"Enter","trial_type":"html-keyboard-response","trial_index":4,"plugin_version":"2.1.0","time_elapsed":51575,"random_initial_angle":330,"response_angle_css":217,"response_angle_rdk":233,"angular_error_target":7,"angular_error_distractor":-131,"target_direction":226,"target_group":"black","reward_points":8},{"rt":null,"stimulus":"\n          <p style=\"color: #00FF00;\">Your reward: 8 points</p>\n        ","response":null,"trial_type":"html-keyboard-response","trial_index":5,"plugin_version":"2.1.0","time_elapsed":53576},{"rt":null,"stimulus":"<div class=\"fixation\" style=\"font-size: 60px;\">+</div>","response":null,"trial_type":"html-keyboard-response","trial_index":6,"plugin_version":"2.1.0","time_elapsed":54577},{"target_group":"black","target_index":1,"condition_label":"practice","rt":-1,"response":"","correct":false,"choices":"ALL_KEYS","correct_choice":["a"],"trial_duration":2000,"flip_timestamps":[],"response_ends_trial":false,"number_of_apertures":2,"number_of_dots":[69,100],"number_of_sets":1,"coherent_direction":[56,149],"coherence":1,"opposite_coherence":0,"dot_radius":2,"dot_side_length":1,"dot_life":-1,"move_distance":1,"aperture_width":300,"aperture_height":300,"dot_color":["white","black"],"dot_shape":"circle","background_color":"#AAA","RDK_type":3,"aperture_type":2,"reinsert_type":2,"frame_rate":6.006060606060606,"frame_rate_array":[1,6,6,7,6,6,6,6,6,6,6,6,6,7,6,7,6,5,7,6,7,6,6,6,6,6,6,6,6,6,7,6,6,6,6,6,6,6,6,6,6,6,6,6,6,6,6,6,6,6,6,5,6,6,6,6,6,6,6,6,6,6,5,6,6,6,5,6,6,6,6,6,6,6,6,5,7,6,6,6,6,6,6,6,6,6,6,6,6,7,6,6,6,6,7,6,6,5,6,6,6,6,6,6,6,6,6,7,6,6,7,5,6,6,6,6,7,5,6,6,6,6,6,6,6,6,6,6,6,7,6,6,6,6,6,6,6,6,6,6,6,6,6,6,6,5,7,6,6,6,6,6,6,6,6,7,6,6,6,6,6,6,6,6,6,6,6,6,6,6,6,6,6,6,6,7,6,6,7,6,6,5,7,6,6,6,6,6,6,6,5,6,6,5,6,6,6,6,6,6,5,7,6,6,6,6,6,6,6,6,7,6,6,6,6,6,6,6,6,6,6,6,6,5,6,6,6,6,6,6,6,6,5,7,6,6,6,7,5,6,6,6,6,6,6,6,6,6,6,6,6,6,6,6,5,7,5,7,6,5,7,6,6,6,6,6,6,6,6,6,6,6,7,6,5,7,6,6,6,6,6,6,6,6,6,6,6,6,6,6,6,6,6,6,6,6,6,6,6,6,6,6,6,6,6,7,6,6,5,7,6,5,7,6,6,5,6,6,6,6,6,6,6,6,6,6,6,5,7,6],"number_of_frames":330,"aperture_center_x":640,"aperture_center_y":400,"fixation_cross":true,"fixation_cross_width":15,"fixation_cross_height":15,"fixation_cross_color":"#111","fixation_cross_thickness":1,"border":true,"border_thickness":2,"border_color":"transparent","canvas_width":1280,"canvas_height":800,"trial_type":"rdk","trial_index":7,"plugin_version":"2.0.0","time_elapsed":56580,"phase":"practice","target_direction":149,"distractor_direction":56},{"rt":3357,"stimulus":"\n        <div class=\"response-container\">\n          <div class=\"response-instruction\">\n            <p>rotate the bar by using the left and right arrow keys.</p>\n            <p>when you are determined, press the Enter key.</p>\n          </div>\n          <div class=\"response-circle\">\n            <div class=\"response-fixation\"></div>\n            <div id=\"bar\" class=\"rotating-bar\"></div>\n          </div>\n        </div>\n      ","response":"Enter","trial_type":"html-keyboard-response","trial_index":8,"plugin_version":"2.1.0","time_elapsed":59940,"random_initial_angle":283,"response_angle_css":307,"response_angle_rdk":143,"angular_error_target":-6,"angular_error_distractor":87,"target_direction":149,"target_group":"black","reward_points":8},{"rt":null,"stimulus":"\n          <p style=\"color: #00FF00;\">Your reward: 8 points</p>\n        ","response":null,"trial_type":"html-keyboard-response","trial_index":9,"plugin_version":"2.1.0","time_elapsed":61940},{"rt":null,"stimulus":"<div class=\"fixation\" style=\"font-size: 60px;\">+</div>","response":null,"trial_type":"html-keyboard-response","trial_index":10,"plugin_version":"2.1.0","time_elapsed":62941},{"target_group":"white","target_index":0,"condition_label":"practice","rt":-1,"response":"","correct":false,"choices":"ALL_KEYS","correct_choice":["a"],"trial_duration":2000,"flip_timestamps":[],"response_ends_trial":false,"number_of_apertures":2,"number_of_dots":[100,89],"number_of_sets":1,"coherent_direction":[250,129],"coherence":1,"opposite_coherence":0,"dot_radius":2,"dot_side_length":1,"dot_life":-1,"move_distance":1,"aperture_width":300,"aperture_height":300,"dot_color":["white","black"],"dot_shape":"circle","background_color":"#AAA","RDK_type":3,"aperture_type":2,"reinsert_type":2,"frame_rate":6.164133738601824,"frame_rate_array":[6,6,8,5,7,6,6,6,6,6,7,6,6,6,6,6,6,6,6,6,7,5,6,6,6,6,6,6,6,6,6,6,6,6,6,6,6,7,6,6,6,6,7,6,6,6,6,6,7,6,6,6,6,6,6,6,6,6,6,6,6,7,6,6,6,7,6,6,6,6,6,6,6,6,7,6,5,7,6,7,6,6,5,7,6,6,6,6,7,6,6,7,6,7,6,6,6,6,6,6,6,7,6,7,6,6,6,6,7,6,7,6,6,6,7,6,7,6,6,6,7,6,6,6,6,6,7,6,7,6,6,6,6,7,5,6,6,6,6,6,5,6,6,6,7,6,6,6,6,7,6,7,6,6,6,6,6,6,7,6,6,6,6,6,6,6,6,6,6,6,7,6,7,6,7,5,7,6,5,7,7,5,7,6,6,6,6,6,7,6,6,7,5,7,6,6,6,7,6,6,7,6,6,6,6,6,6,6,6,6,6,7,6,7,6,6,6,6,6,6,6,6,6,7,5,6,6,6,6,6,5,7,6,7,6,6,6,7,6,7,6,7,6,6,6,7,6,6,6,6,6,6,6,6,6,6,6,6,7,6,6,7,6,6,6,7,6,7,6,6,6,6,7,6,7,6,6,6,6,6,7,5,7,6,6,7,5,6,6,6,6,6,6,5,6,7,6,7,6,6,6,7,6,7,6,6,7,6,6,6,6,7,5,7,6,7,6,6,6,6,7,6,6,6,6,6,6,6,6],"number_of_frames":329,"aperture_center_x":640,"aperture_center_y":400,"fixation_cross":true,"fixation_cross_width":15,"fixation_cross_height":15,"fixation_cross_color":"#111","fixation_cross_thickness":1,"border":true,"border_thickness":2,"border_color":"transparent","canvas_width":1280,"canvas_height":800,"trial_type":"rdk","trial_index":11,"plugin_version":"2.0.0","time_elapsed":64943,"phase":"practice","target_direction":250,"distractor_direction":129},{"rt":2405,"stimulus":"\n        <div class=\"response-container\">\n          <div class=\"response-instruction\">\n            <p>rotate the bar by using the left and right arrow keys.</p>\n            <p>when you are determined, press the Enter key.</p>\n          </div>\n          <div class=\"response-circle\">\n            <div class=\"response-fixation\"></div>\n            <div id=\"bar\" class=\"rotating-bar\"></div>\n          </div>\n        </div>\n      ","response":"Enter","trial_type":"html-keyboard-response","trial_index":12,"plugin_version":"2.1.0","time_elapsed":67349,"random_initial_angle":48,"response_angle_css":-32,"response_angle_rdk":122,"angular_error_target":-128,"angular_error_distractor":-7,"target_direction":250,"target_group":"white","reward_points":0},{"rt":null,"stimulus":"\n          <p style=\"color: #FF3333;\">Your reward: 0 points</p>\n        ","response":null,"trial_type":"html-keyboard-response","trial_index":13,"plugin_version":"2.1.0","time_elapsed":69350},{"rt":null,"stimulus":"<div class=\"fixation\" style=\"font-size: 60px;\">+</div>","response":null,"trial_type":"html-keyboard-response","trial_index":14,"plugin_version":"2.1.0","time_elapsed":70351},{"target_group":"white","target_index":0,"condition_label":"practice","rt":-1,"response":"","correct":false,"choices":"ALL_KEYS","correct_choice":["a"],"trial_duration":2000,"flip_timestamps":[],"response_ends_trial":false,"number_of_apertures":2,"number_of_dots":[100,73],"number_of_sets":1,"coherent_direction":[118,274],"coherence":1,"opposite_coherence":0,"dot_radius":2,"dot_side_length":1,"dot_life":-1,"move_distance":1,"aperture_width":300,"aperture_height":300,"dot_color":["white","black"],"dot_shape":"circle","background_color":"#AAA","RDK_type":3,"aperture_type":2,"reinsert_type":2,"frame_rate":6.164133738601824,"frame_rate_array":[6,6,8,6,6,7,6,6,6,6,5,6,7,5,6,6,6,7,6,6,6,7,6,7,6,6,6,7,6,6,7,6,6,6,6,6,6,6,6,6,6,6,6,5,7,7,6,6,7,6,6,6,7,6,6,6,6,6,5,7,6,6,6,6,6,6,6,6,5,6,7,5,7,6,6,6,6,7,6,6,6,6,6,6,6,6,6,6,6,7,6,7,6,7,6,7,6,7,6,6,6,6,6,6,6,6,6,6,6,6,6,5,6,6,6,7,6,7,5,6,6,7,6,7,6,6,6,7,6,6,6,6,6,6,6,6,7,6,7,6,7,6,6,6,6,6,7,6,6,6,6,7,6,6,6,6,6,6,5,6,6,6,6,6,6,6,6,6,7,5,7,6,6,6,6,6,7,6,6,6,7,6,7,6,6,6,6,7,6,6,6,7,6,6,5,6,7,5,6,6,7,6,6,7,6,7,5,7,6,7,5,7,6,7,6,7,6,6,6,6,6,7,5,7,6,6,5,7,6,6,6,6,7,6,6,7,6,6,6,6,7,6,6,6,6,6,6,6,6,6,6,6,6,7,6,6,7,5,6,7,6,7,6,7,6,7,6,7,6,6,7,6,6,6,7,6,7,5,6,7,6,6,6,7,7,6,6,7,6,6,7,5,6,6,6,6,6,7,6,7,5,7,6,6,6,6,6,6,7,6,5,7,6,6,6,6,6,6,6,6,7,6,6,6,7,5,6,6,6],"number_of_frames":329,"aperture_center_x":640,"aperture_center_y":400,"fixation_cross":true,"fixation_cross_width":15,"fixation_cross_height":15,"fixation_cross_color":"#111","fixation_cross_thickness":1,"border":true,"border_thickness":2,"border_color":"transparent","canvas_width":1280,"canvas_height":800,"trial_type":"rdk","trial_index":15,"plugin_version":"2.0.0","time_elapsed":72353,"phase":"practice","target_direction":118,"distractor_direction":274},{"rt":1872,"stimulus":"\n        <div class=\"response-container\">\n          <div class=\"response-instruction\">\n            <p>rotate the bar by using the left and right arrow keys.</p>\n            <p>when you are determined, press the Enter key.</p>\n          </div>\n          <div class=\"response-circle\">\n            <div class=\"response-fixation\"></div>\n            <div id=\"bar\" class=\"rotating-bar\"></div>\n          </div>\n        </div>\n      ","response":"Enter","trial_type":"html-keyboard-response","trial_index":16,"plugin_version":"2.1.0","time_elapsed":74226,"random_initial_angle":341,"response_angle_css":341,"response_angle_rdk":109,"angular_error_target":-9,"angular_error_distractor":-165,"target_direction":118,"target_group":"white","reward_points":8},{"rt":null,"stimulus":"\n          <p style=\"color: #00FF00;\">Your reward: 8 points</p>\n        ","response":null,"trial_type":"html-keyboard-response","trial_index":17,"plugin_version":"2.1.0","time_elapsed":76226},{"rt":null,"stimulus":"<div class=\"fixation\" style=\"font-size: 60px;\">+</div>","response":null,"trial_type":"html-keyboard-response","trial_index":18,"plugin_version":"2.1.0","time_elapsed":77230},{"target_group":"black","target_index":1,"condition_label":"practice","rt":-1,"response":"","correct":false,"choices":"ALL_KEYS","correct_choice":["a"],"trial_duration":2000,"flip_timestamps":[],"response_ends_trial":false,"number_of_apertures":2,"number_of_dots":[54,100],"number_of_sets":1,"coherent_direction":[36,239],"coherence":1,"opposite_coherence":0,"dot_radius":2,"dot_side_length":1,"dot_life":-1,"move_distance":1,"aperture_width":300,"aperture_height":300,"dot_color":["white","black"],"dot_shape":"circle","background_color":"#AAA","RDK_type":3,"aperture_type":2,"reinsert_type":2,"frame_rate":6.11854103343465,"frame_rate_array":[3,6,6,8,6,6,7,6,6,6,7,6,6,6,6,6,6,7,6,6,6,6,6,6,6,6,6,6,6,6,6,7,5,6,6,6,6,6,6,7,6,6,6,6,6,6,6,6,7,6,6,6,6,6,6,7,6,7,6,6,7,6,6,6,6,6,5,6,6,6,6,7,6,6,6,6,6,6,6,7,6,6,6,6,6,6,6,6,6,6,6,6,6,6,6,6,6,6,6,6,6,6,6,6,5,6,6,6,7,6,7,6,6,6,7,6,6,6,7,6,7,6,7,5,6,6,6,7,6,7,6,6,6,7,6,6,6,5,7,6,6,6,7,5,6,6,6,6,6,6,6,7,6,6,6,6,6,6,7,6,6,6,6,7,6,6,6,6,6,6,7,6,6,6,6,6,6,6,6,6,6,6,6,6,6,7,5,6,6,6,6,6,7,5,6,7,6,7,6,7,6,6,7,6,6,6,7,6,6,6,6,6,7,6,7,6,7,6,6,7,6,6,6,6,7,6,7,5,7,6,6,6,5,6,7,6,6,7,6,7,6,5,6,6,6,7,6,6,6,6,6,6,6,6,6,6,6,6,6,6,6,6,7,7,5,7,6,6,6,6,6,5,6,7,6,6,6,6,6,6,6,5,7,6,6,6,5,6,6,6,5,7,5,6,6,6,6,7,6,6,7,6,6,6,6,7,5,7,5,7,6,6,7,6,6,7,6,6,7,6,6,6,6,6,7,5,6,7,6],"number_of_frames":329,"aperture_center_x":640,"aperture_center_y":400,"fixation_cross":true,"fixation_cross_width":15,"fixation_cross_height":15,"fixation_cross_color":"#111","fixation_cross_thickness":1,"border":true,"border_thickness":2,"border_color":"transparent","canvas_width":1280,"canvas_height":800,"trial_type":"rdk","trial_index":19,"plugin_version":"2.0.0","time_elapsed":79231,"phase":"practice","target_direction":239,"distractor_direction":36},{"rt":4846,"stimulus":"\n        <div class=\"response-container\">\n          <div class=\"response-instruction\">\n            <p>rotate the bar by using the left and right arrow keys.</p>\n            <p>when you are determined, press the Enter key.</p>\n          </div>\n          <div class=\"response-circle\">\n            <div class=\"response-fixation\"></div>\n            <div id=\"bar\" class=\"rotating-bar\"></div>\n          </div>\n        </div>\n      ","response":"Enter","trial_type":"html-keyboard-response","trial_index":20,"plugin_version":"2.1.0","time_elapsed":84079,"random_initial_angle":68,"response_angle_css":-144,"response_angle_rdk":234,"angular_error_target":-5,"angular_error_distractor":-162,"target_direction":239,"target_group":"black","reward_points":9},{"rt":null,"stimulus":"\n          <p style=\"color: #00FF00;\">Your reward: 9 points</p>\n        ","response":null,"trial_type":"html-keyboard-response","trial_index":21,"plugin_version":"2.1.0","time_elapsed":86080},{"rt":null,"stimulus":"<div class=\"fixation\" style=\"font-size: 60px;\">+</div>","response":null,"trial_type":"html-keyboard-response","trial_index":22,"plugin_version":"2.1.0","time_elapsed":87080},{"target_group":"black","target_index":1,"condition_label":"practice","rt":-1,"response":"","correct":false,"choices":"ALL_KEYS","correct_choice":["a"],"trial_duration":2000,"flip_timestamps":[],"response_ends_trial":false,"number_of_apertures":2,"number_of_dots":[96,100],"number_of_sets":1,"coherent_direction":[148,8],"coherence":1,"opposite_coherence":0,"dot_radius":2,"dot_side_length":1,"dot_life":-1,"move_distance":1,"aperture_width":300,"aperture_height":300,"dot_color":["white","black"],"dot_shape":"circle","background_color":"#AAA","RDK_type":3,"aperture_type":2,"reinsert_type":2,"frame_rate":6.100303951367781,"frame_rate_array":[2,6,8,6,7,6,6,6,7,5,6,7,6,6,6,6,6,7,5,6,6,7,6,6,6,7,6,5,6,6,6,6,6,6,6,6,6,6,6,6,6,6,6,6,6,6,6,6,6,7,6,6,6,6,7,6,6,6,6,6,6,6,6,6,6,6,6,6,6,6,6,6,7,6,6,6,6,6,6,6,6,6,6,7,6,6,7,6,6,6,6,6,6,6,7,6,6,6,6,6,6,6,6,6,6,6,6,6,6,6,6,6,6,6,6,7,6,6,7,6,6,6,6,6,6,6,7,5,6,6,6,7,6,7,6,6,6,6,6,6,6,6,6,7,6,6,6,7,6,6,6,6,6,6,6,6,6,6,6,6,6,6,6,6,6,6,6,6,6,6,6,6,6,6,6,7,6,6,6,6,6,6,6,6,6,7,6,6,7,6,6,6,6,6,6,6,6,6,7,6,7,5,6,6,7,6,6,7,6,7,6,6,6,6,7,5,6,6,7,6,6,6,6,6,6,6,6,6,6,7,6,6,6,6,6,6,6,6,6,6,6,5,6,7,6,6,6,6,6,6,6,6,6,6,6,6,6,6,6,6,6,6,6,6,7,6,6,6,6,6,6,6,6,7,6,6,6,6,6,6,6,6,6,6,7,6,6,7,6,7,5,7,6,6,7,6,6,6,6,6,6,6,6,7,5,7,6,6,6,7,6,6,6,6,6,6,6,6,6,6,7,6,6,7,6,6,6,7,6],"number_of_frames":329,"aperture_center_x":640,"aperture_center_y":400,"fixation_cross":true,"fixation_cross_width":15,"fixation_cross_height":15,"fixation_cross_color":"#111","fixation_cross_thickness":1,"border":true,"border_thickness":2,"border_color":"transparent","canvas_width":1280,"canvas_height":800,"trial_type":"rdk","trial_index":23,"plugin_version":"2.0.0","time_elapsed":89083,"phase":"practice","target_direction":8,"distractor_direction":148},{"rt":4332,"stimulus":"\n        <div class=\"response-container\">\n          <div class=\"response-instruction\">\n            <p>rotate the bar by using the left and right arrow keys.</p>\n            <p>when you are determined, press the Enter key.</p>\n          </div>\n          <div class=\"response-circle\">\n            <div class=\"response-fixation\"></div>\n            <div id=\"bar\" class=\"rotating-bar\"></div>\n          </div>\n        </div>\n      ","response":"Enter","trial_type":"html-keyboard-response","trial_index":24,"plugin_version":"2.1.0","time_elapsed":93416,"random_initial_angle":186,"response_angle_css":300,"response_angle_rdk":150,"angular_error_target":142,"angular_error_distractor":2,"target_direction":8,"target_group":"black","reward_points":0},{"rt":null,"stimulus":"\n          <p style=\"color: #FF3333;\">Your reward: 0 points</p>\n        ","response":null,"trial_type":"html-keyboard-response","trial_index":25,"plugin_version":"2.1.0","time_elapsed":95417},{"rt":null,"stimulus":"<div class=\"fixation\" style=\"font-size: 60px;\">+</div>","response":null,"trial_type":"html-keyboard-response","trial_index":26,"plugin_version":"2.1.0","time_elapsed":96418},{"target_group":"white","target_index":0,"condition_label":"practice","rt":-1,"response":"","correct":false,"choices":"ALL_KEYS","correct_choice":["a"],"trial_duration":2000,"flip_timestamps":[],"response_ends_trial":false,"number_of_apertures":2,"number_of_dots":[100,69],"number_of_sets":1,"coherent_direction":[184,60],"coherence":1,"opposite_coherence":0,"dot_radius":2,"dot_side_length":1,"dot_life":-1,"move_distance":1,"aperture_width":300,"aperture_height":300,"dot_color":["white","black"],"dot_shape":"circle","background_color":"#AAA","RDK_type":3,"aperture_type":2,"reinsert_type":2,"frame_rate":6.2006079027355625,"frame_rate_array":[5,6,8,6,7,6,6,7,6,7,6,6,7,5,7,6,6,7,6,7,6,6,7,6,6,5,6,7,6,7,6,6,5,6,6,6,6,6,6,7,6,6,5,6,6,7,6,7,6,6,6,6,6,6,6,6,6,7,6,6,6,6,6,6,6,7,6,7,5,7,6,7,6,6,6,6,7,6,7,6,6,5,6,7,5,7,6,7,6,6,6,6,6,6,6,6,6,7,6,7,6,7,6,7,6,7,6,6,6,6,6,6,6,7,6,7,5,6,7,6,7,6,7,6,6,6,6,6,6,6,6,6,7,6,6,6,6,7,6,6,6,6,7,6,6,6,6,7,6,6,7,5,7,6,7,6,7,5,6,6,5,6,6,6,6,7,5,6,7,6,7,6,6,6,6,7,6,6,7,6,7,6,6,6,6,6,7,6,6,7,6,7,6,7,5,7,6,6,6,7,6,6,7,6,7,6,6,7,6,6,6,7,6,6,6,6,7,6,6,6,6,6,6,7,6,7,6,6,6,7,6,6,6,6,6,7,6,7,5,7,6,7,5,7,6,5,6,6,5,7,6,7,6,6,6,6,7,6,6,7,6,6,6,6,6,5,6,6,7,6,6,6,7,6,6,6,7,6,7,6,6,7,5,7,6,6,6,6,7,6,7,6,7,6,6,6,6,7,5,6,7,6,7,6,6,6,6,5,7,6,6,6,6,7,6,6,6,6,7,6,6,7,5,7,6,6,6,6,6],"number_of_frames":329,"aperture_center_x":640,"aperture_center_y":400,"fixation_cross":true,"fixation_cross_width":15,"fixation_cross_height":15,"fixation_cross_color":"#111","fixation_cross_thickness":1,"border":true,"border_thickness":2,"border_color":"transparent","canvas_width":1280,"canvas_height":800,"trial_type":"rdk","trial_index":27,"plugin_version":"2.0.0","time_elapsed":98420,"phase":"practice","target_direction":184,"distractor_direction":60},{"rt":2592,"stimulus":"\n        <div class=\"response-container\">\n          <div class=\"response-instruction\">\n            <p>rotate the bar by using the left and right arrow keys.</p>\n            <p>when you are determined, press the Enter key.</p>\n          </div>\n          <div class=\"response-circle\">\n            <div class=\"response-fixation\"></div>\n            <div id=\"bar\" class=\"rotating-bar\"></div>\n          </div>\n        </div>\n      ","response":"Enter","trial_type":"html-keyboard-response","trial_index":28,"plugin_version":"2.1.0","time_elapsed":101013,"random_initial_angle":299,"response_angle_css":270,"response_angle_rdk":180,"angular_error_target":-4,"angular_error_distractor":120,"target_direction":184,"target_group":"white","reward_points":9},{"rt":null,"stimulus":"\n          <p style=\"color: #00FF00;\">Your reward: 9 points</p>\n        ","response":null,"trial_type":"html-keyboard-response","trial_index":29,"plugin_version":"2.1.0","time_elapsed":103013},{"rt":null,"stimulus":"<div class=\"fixation\" style=\"font-size: 60px;\">+</div>","response":null,"trial_type":"html-keyboard-response","trial_index":30,"plugin_version":"2.1.0","time_elapsed":104014},{"target_group":"white","target_index":0,"condition_label":"practice","rt":-1,"response":"","correct":false,"choices":"ALL_KEYS","correct_choice":["a"],"trial_duration":2000,"flip_timestamps":[],"response_ends_trial":false,"number_of_apertures":2,"number_of_dots":[100,92],"number_of_sets":1,"coherent_direction":[276,155],"coherence":1,"opposite_coherence":0,"dot_radius":2,"dot_side_length":1,"dot_life":-1,"move_distance":1,"aperture_width":300,"aperture_height":300,"dot_color":["white","black"],"dot_shape":"circle","background_color":"#AAA","RDK_type":3,"aperture_type":2,"reinsert_type":2,"frame_rate":6.033434650455927,"frame_rate_array":[1,6,6,8,6,6,6,6,6,6,7,5,6,6,6,6,6,6,7,5,7,6,6,6,6,6,6,6,6,6,6,6,6,7,5,6,6,6,6,6,7,6,7,6,6,5,6,6,6,6,6,6,6,6,5,7,6,7,6,6,6,5,6,6,6,6,6,6,6,12,6,6,6,6,6,6,6,6,6,6,6,6,6,6,6,6,6,6,6,6,6,6,6,6,6,7,6,6,6,6,6,6,6,6,6,6,6,6,6,6,6,6,6,6,6,6,6,6,6,7,6,6,6,6,6,6,6,6,6,6,6,6,5,6,6,6,6,6,6,6,6,6,6,6,6,6,6,7,5,6,6,7,6,6,6,6,6,6,6,6,5,6,6,6,6,6,6,6,6,6,6,6,5,6,7,5,6,6,6,6,6,6,6,6,6,6,6,6,6,6,6,6,6,6,5,7,6,6,6,6,6,7,6,6,6,6,6,5,7,7,5,6,6,6,6,6,6,7,5,6,6,6,6,6,6,6,6,6,6,6,6,6,6,6,6,6,6,6,7,6,6,6,6,6,6,6,6,6,6,6,6,6,6,6,6,6,6,6,6,6,7,6,6,6,6,6,6,6,7,6,6,6,6,6,6,6,6,6,6,6,6,6,6,6,6,6,6,6,6,6,6,6,6,6,6,6,6,6,6,6,6,6,6,6,6,6,6,6,6,6,6,6,6,6,6,6,7,6,6,6,6,6,6,6,6,6,6,6,7],"number_of_frames":329,"aperture_center_x":640,"aperture_center_y":400,"fixation_cross":true,"fixation_cross_width":15,"fixation_cross_height":15,"fixation_cross_color":"#111","fixation_cross_thickness":1,"border":true,"border_thickness":2,"border_color":"transparent","canvas_width":1280,"canvas_height":800,"trial_type":"rdk","trial_index":31,"plugin_version":"2.0.0","time_elapsed":106016,"phase":"practice","target_direction":276,"distractor_direction":155},{"rt":3551,"stimulus":"\n        <div class=\"response-container\">\n          <div class=\"response-instruction\">\n            <p>rotate the bar by using the left and right arrow keys.</p>\n            <p>when you are determined, press the Enter key.</p>\n          </div>\n          <div class=\"response-circle\">\n            <div class=\"response-fixation\"></div>\n            <div id=\"bar\" class=\"rotating-bar\"></div>\n          </div>\n        </div>\n      ","response":"Enter","trial_type":"html-keyboard-response","trial_index":32,"plugin_version":"2.1.0","time_elapsed":109568,"random_initial_angle":243,"response_angle_css":305,"response_angle_rdk":145,"angular_error_target":-131,"angular_error_distractor":-10,"target_direction":276,"target_group":"white","reward_points":0},{"rt":null,"stimulus":"\n          <p style=\"color: #FF3333;\">Your reward: 0 points</p>\n        ","response":null,"trial_type":"html-keyboard-response","trial_index":33,"plugin_version":"2.1.0","time_elapsed":111570},{"rt":null,"stimulus":"<div class=\"fixation\" style=\"font-size: 60px;\">+</div>","response":null,"trial_type":"html-keyboard-response","trial_index":34,"plugin_version":"2.1.0","time_elapsed":112571},{"target_group":"black","target_index":1,"condition_label":"practice","rt":-1,"response":"","correct":false,"choices":"ALL_KEYS","correct_choice":["a"],"trial_duration":2000,"flip_timestamps":[],"response_ends_trial":false,"number_of_apertures":2,"number_of_dots":[87,100],"number_of_sets":1,"coherent_direction":[31,295],"coherence":1,"opposite_coherence":0,"dot_radius":2,"dot_side_length":1,"dot_life":-1,"move_distance":1,"aperture_width":300,"aperture_height":300,"dot_color":["white","black"],"dot_shape":"circle","background_color":"#AAA","RDK_type":3,"aperture_type":2,"reinsert_type":2,"frame_rate":5.996969696969697,"frame_rate_array":[1,6,6,8,6,5,6,6,6,6,6,7,5,6,6,6,6,6,5,6,7,6,6,6,7,5,6,6,6,6,6,6,6,6,6,6,6,6,6,6,6,6,6,7,6,6,6,6,6,6,6,5,6,6,6,6,6,6,6,6,6,6,6,6,6,6,6,6,6,6,7,6,6,6,6,6,6,6,6,6,6,6,6,6,5,6,6,6,6,6,6,5,6,6,6,6,6,6,6,6,6,6,6,6,6,5,6,7,6,6,6,6,6,6,6,6,6,6,7,6,6,6,6,6,6,6,6,6,6,6,7,6,6,6,6,7,6,6,6,6,6,6,6,5,6,6,6,6,6,7,6,6,6,6,6,6,6,6,6,6,6,6,5,6,6,6,6,6,6,6,6,6,6,6,6,6,7,6,6,6,6,6,6,6,6,6,6,6,6,6,6,6,6,6,5,6,6,6,6,6,6,5,6,6,6,6,6,6,6,6,6,6,6,6,6,6,6,6,6,6,5,7,5,6,6,6,6,6,6,6,6,6,6,6,6,6,6,6,6,6,7,6,6,6,6,6,6,6,6,6,6,6,6,6,6,6,6,7,6,6,6,6,6,6,6,6,6,6,6,6,7,6,6,6,6,6,6,6,6,6,6,6,6,6,6,6,6,6,6,6,6,6,6,6,6,6,6,6,6,6,6,6,6,6,6,6,6,6,6,6,6,7,5,6,6,6,6,6,6,6,6,6,6,6,6,6,6,6,7,6],"number_of_frames":330,"aperture_center_x":640,"aperture_center_y":400,"fixation_cross":true,"fixation_cross_width":15,"fixation_cross_height":15,"fixation_cross_color":"#111","fixation_cross_thickness":1,"border":true,"border_thickness":2,"border_color":"transparent","canvas_width":1280,"canvas_height":800,"trial_type":"rdk","trial_index":35,"plugin_version":"2.0.0","time_elapsed":114573,"phase":"practice","target_direction":295,"distractor_direction":31},{"rt":2551,"stimulus":"\n        <div class=\"response-container\">\n          <div class=\"response-instruction\">\n            <p>rotate the bar by using the left and right arrow keys.</p>\n            <p>when you are determined, press the Enter key.</p>\n          </div>\n          <div class=\"response-circle\">\n            <div class=\"response-fixation\"></div>\n            <div id=\"bar\" class=\"rotating-bar\"></div>\n          </div>\n        </div>\n      ","response":"Enter","trial_type":"html-keyboard-response","trial_index":36,"plugin_version":"2.1.0","time_elapsed":117126,"random_initial_angle":321,"response_angle_css":408,"response_angle_rdk":42,"angular_error_target":107,"angular_error_distractor":11,"target_direction":295,"target_group":"black","reward_points":0},{"rt":null,"stimulus":"\n          <p style=\"color: #FF3333;\">Your reward: 0 points</p>\n        ","response":null,"trial_type":"html-keyboard-response","trial_index":37,"plugin_version":"2.1.0","time_elapsed":119126},{"rt":null,"stimulus":"<div class=\"fixation\" style=\"font-size: 60px;\">+</div>","response":null,"trial_type":"html-keyboard-response","trial_index":38,"plugin_version":"2.1.0","time_elapsed":120127},{"target_group":"black","target_index":1,"condition_label":"practice","rt":-1,"response":"","correct":false,"choices":"ALL_KEYS","correct_choice":["a"],"trial_duration":2000,"flip_timestamps":[],"response_ends_trial":false,"number_of_apertures":2,"number_of_dots":[81,100],"number_of_sets":1,"coherent_direction":[189,21],"coherence":1,"opposite_coherence":0,"dot_radius":2,"dot_side_length":1,"dot_life":-1,"move_distance":1,"aperture_width":300,"aperture_height":300,"dot_color":["white","black"],"dot_shape":"circle","background_color":"#AAA","RDK_type":3,"aperture_type":2,"reinsert_type":2,"frame_rate":6.009090909090909,"frame_rate_array":[1,6,6,8,6,7,6,7,6,6,7,6,6,6,6,6,6,6,6,6,6,6,6,6,6,6,6,6,6,6,7,6,6,6,7,6,6,6,6,6,6,7,6,6,5,7,7,6,6,6,6,6,6,6,6,6,6,6,6,6,6,6,6,6,6,6,6,6,6,6,6,6,6,6,6,6,6,6,6,6,6,6,6,6,6,6,6,7,6,6,6,6,6,6,6,7,6,6,6,6,6,5,6,7,5,6,6,6,5,6,6,6,6,6,6,6,6,6,6,6,6,6,6,6,6,6,6,6,5,6,6,6,6,7,6,7,6,5,6,6,6,6,6,6,6,6,6,5,6,6,5,6,6,6,6,6,5,6,6,6,6,6,5,6,7,6,6,6,6,6,6,6,6,6,6,6,6,6,5,6,6,6,5,6,6,6,6,6,6,6,6,6,6,6,6,6,6,6,6,6,6,6,6,6,6,6,6,6,6,6,6,6,6,6,6,6,6,6,6,6,7,6,6,6,6,6,6,6,6,6,6,7,6,6,5,6,6,6,6,6,6,6,6,6,6,7,6,6,5,6,6,6,6,6,6,6,6,6,6,6,6,5,6,6,6,6,6,6,6,6,6,6,7,6,6,6,7,6,6,6,6,6,6,6,6,6,6,6,7,6,6,6,6,7,5,6,7,6,6,6,6,5,6,6,6,6,6,6,6,6,6,6,6,6,6,6,6,6,6,6,6,6,6,6,6,6,6,7,6,6],"number_of_frames":330,"aperture_center_x":640,"aperture_center_y":400,"fixation_cross":true,"fixation_cross_width":15,"fixation_cross_height":15,"fixation_cross_color":"#111","fixation_cross_thickness":1,"border":true,"border_thickness":2,"border_color":"transparent","canvas_width":1280,"canvas_height":800,"trial_type":"rdk","trial_index":39,"plugin_version":"2.0.0","time_elapsed":122129,"phase":"practice","target_direction":21,"distractor_direction":189},{"rt":2433,"stimulus":"\n        <div class=\"response-container\">\n          <div class=\"response-instruction\">\n            <p>rotate the bar by using the left and right arrow keys.</p>\n            <p>when you are determined, press the Enter key.</p>\n          </div>\n          <div class=\"response-circle\">\n            <div class=\"response-fixation\"></div>\n            <div id=\"bar\" class=\"rotating-bar\"></div>\n          </div>\n        </div>\n      ","response":"Enter","trial_type":"html-keyboard-response","trial_index":40,"plugin_version":"2.1.0","time_elapsed":124563,"random_initial_angle":169,"response_angle_css":68,"response_angle_rdk":22,"angular_error_target":1,"angular_error_distractor":-167,"target_direction":21,"target_group":"black","reward_points":9},{"rt":null,"stimulus":"\n          <p style=\"color: #00FF00;\">Your reward: 9 points</p>\n        ","response":null,"trial_type":"html-keyboard-response","trial_index":41,"plugin_version":"2.1.0","time_elapsed":126564},{"rt":null,"stimulus":"<div class=\"fixation\" style=\"font-size: 60px;\">+</div>","response":null,"trial_type":"html-keyboard-response","trial_index":42,"plugin_version":"2.1.0","time_elapsed":127565},{"target_group":"black","target_index":1,"condition_label":"practice","rt":-1,"response":"","correct":false,"choices":"ALL_KEYS","correct_choice":["a"],"trial_duration":2000,"flip_timestamps":[],"response_ends_trial":false,"number_of_apertures":2,"number_of_dots":[84,100],"number_of_sets":1,"coherent_direction":[73,259],"coherence":1,"opposite_coherence":0,"dot_radius":2,"dot_side_length":1,"dot_life":-1,"move_distance":1,"aperture_width":300,"aperture_height":300,"dot_color":["white","black"],"dot_shape":"circle","background_color":"#AAA","RDK_type":3,"aperture_type":2,"reinsert_type":2,"frame_rate":6.027355623100304,"frame_rate_array":[3,6,6,8,6,6,6,6,6,6,6,7,6,6,6,6,6,6,6,6,6,6,6,6,6,6,6,6,6,6,6,6,6,6,6,5,6,6,6,6,6,6,6,6,6,6,7,6,6,6,6,6,6,6,6,6,6,6,6,6,6,6,6,6,6,6,6,7,6,6,6,6,6,6,6,6,6,6,6,7,6,6,6,6,6,6,6,6,6,6,6,6,7,6,6,6,6,6,6,6,6,6,6,6,6,6,6,6,6,6,6,7,6,6,6,6,6,6,6,6,6,6,6,6,6,6,6,6,6,6,6,6,6,6,6,6,7,6,6,6,6,6,5,6,6,6,6,6,6,6,6,6,6,6,6,6,6,6,6,6,6,6,6,6,6,6,6,6,6,6,6,6,6,6,6,6,6,7,6,6,6,6,6,6,6,6,6,6,6,6,6,6,6,6,6,6,6,6,6,6,6,6,6,6,6,6,6,6,6,6,6,6,6,6,6,7,6,6,6,6,6,6,6,6,6,6,6,6,6,6,6,6,6,6,6,6,6,6,6,6,6,6,6,6,6,6,6,6,6,6,7,6,6,6,6,6,6,6,6,6,6,6,6,6,6,6,6,6,6,6,6,6,6,6,6,6,6,6,6,6,6,6,6,6,6,6,6,6,6,6,6,6,6,6,6,6,6,6,6,6,6,7,6,6,6,6,6,6,6,6,6,6,6,6,6,6,8,5,6,6,6,6,6,6,6,6,6,6,6],"number_of_frames":329,"aperture_center_x":640,"aperture_center_y":400,"fixation_cross":true,"fixation_cross_width":15,"fixation_cross_height":15,"fixation_cross_color":"#111","fixation_cross_thickness":1,"border":true,"border_thickness":2,"border_color":"transparent","canvas_width":1280,"canvas_height":800,"trial_type":"rdk","trial_index":43,"plugin_version":"2.0.0","time_elapsed":129567,"phase":"practice","target_direction":259,"distractor_direction":73},{"rt":2012,"stimulus":"\n        <div class=\"response-container\">\n          <div class=\"response-instruction\">\n            <p>rotate the bar by using the left and right arrow keys.</p>\n            <p>when you are determined, press the Enter key.</p>\n          </div>\n          <div class=\"response-circle\">\n            <div class=\"response-fixation\"></div>\n            <div id=\"bar\" class=\"rotating-bar\"></div>\n          </div>\n        </div>\n      ","response":"Enter","trial_type":"html-keyboard-response","trial_index":44,"plugin_version":"2.1.0","time_elapsed":131580,"random_initial_angle":290,"response_angle_css":196,"response_angle_rdk":254,"angular_error_target":-5,"angular_error_distractor":-179,"target_direction":259,"target_group":"black","reward_points":9},{"rt":null,"stimulus":"\n          <p style=\"color: #00FF00;\">Your reward: 9 points</p>\n        ","response":null,"trial_type":"html-keyboard-response","trial_index":45,"plugin_version":"2.1.0","time_elapsed":133581},{"rt":null,"stimulus":"<div class=\"fixation\" style=\"font-size: 60px;\">+</div>","response":null,"trial_type":"html-keyboard-response","trial_index":46,"plugin_version":"2.1.0","time_elapsed":134582},{"target_group":"black","target_index":1,"condition_label":"practice","rt":-1,"response":"","correct":false,"choices":"ALL_KEYS","correct_choice":["a"],"trial_duration":2000,"flip_timestamps":[],"response_ends_trial":false,"number_of_apertures":2,"number_of_dots":[55,100],"number_of_sets":1,"coherent_direction":[199,88],"coherence":1,"opposite_coherence":0,"dot_radius":2,"dot_side_length":1,"dot_life":-1,"move_distance":1,"aperture_width":300,"aperture_height":300,"dot_color":["white","black"],"dot_shape":"circle","background_color":"#AAA","RDK_type":3,"aperture_type":2,"reinsert_type":2,"frame_rate":6.142857142857143,"frame_rate_array":[3,7,6,8,6,6,6,7,6,7,6,7,6,6,6,6,6,6,6,6,6,6,6,6,6,6,6,6,6,6,6,7,6,6,7,6,6,6,6,7,6,6,6,6,7,6,6,6,6,6,6,6,7,5,7,6,7,6,6,6,6,6,6,6,6,6,6,6,7,6,6,6,6,6,7,6,6,6,6,6,6,6,6,5,6,6,6,6,6,6,5,6,6,6,6,7,6,7,6,6,6,6,6,6,6,6,5,6,7,6,7,6,6,6,6,6,6,6,6,6,6,6,6,6,7,6,6,6,6,7,5,6,6,6,6,7,6,6,6,7,7,6,6,6,6,6,6,5,7,5,7,6,6,6,7,6,6,7,6,6,6,6,6,6,6,6,7,6,6,6,5,6,6,6,6,6,6,6,5,7,6,6,6,6,6,7,6,6,7,6,7,6,7,6,6,6,7,6,7,6,6,6,6,6,6,7,6,6,7,6,6,7,6,6,7,6,6,7,6,6,6,7,6,6,6,6,6,6,6,6,6,7,5,6,6,6,7,6,6,6,6,6,7,6,6,6,6,6,6,6,7,6,6,6,7,6,6,6,6,7,5,6,6,6,6,6,7,6,7,6,7,6,6,7,6,6,6,6,7,5,6,7,6,6,6,6,6,7,6,6,6,6,7,6,6,6,7,6,7,6,6,7,6,6,7,6,6,6,6,6,6,6,6,6,5,6,6,6,6,7,6,6,6,7,6,7,6,6,6],"number_of_frames":329,"aperture_center_x":640,"aperture_center_y":400,"fixation_cross":true,"fixation_cross_width":15,"fixation_cross_height":15,"fixation_cross_color":"#111","fixation_cross_thickness":1,"border":true,"border_thickness":2,"border_color":"transparent","canvas_width":1280,"canvas_height":800,"trial_type":"rdk","trial_index":47,"plugin_version":"2.0.0","time_elapsed":136583,"phase":"practice","target_direction":88,"distractor_direction":199},{"rt":2668,"stimulus":"\n        <div class=\"response-container\">\n          <div class=\"response-instruction\">\n            <p>rotate the bar by using the left and right arrow keys.</p>\n            <p>when you are determined, press the Enter key.</p>\n          </div>\n          <div class=\"response-circle\">\n            <div class=\"response-fixation\"></div>\n            <div id=\"bar\" class=\"rotating-bar\"></div>\n          </div>\n        </div>\n      ","response":"Enter","trial_type":"html-keyboard-response","trial_index":48,"plugin_version":"2.1.0","time_elapsed":139253,"random_initial_angle":233,"response_angle_css":212,"response_angle_rdk":238,"angular_error_target":150,"angular_error_distractor":39,"target_direction":88,"target_group":"black","reward_points":0},{"rt":null,"stimulus":"\n          <p style=\"color: #FF3333;\">Your reward: 0 points</p>\n        ","response":null,"trial_type":"html-keyboard-response","trial_index":49,"plugin_version":"2.1.0","time_elapsed":141253},{"rt":null,"stimulus":"<div class=\"fixation\" style=\"font-size: 60px;\">+</div>","response":null,"trial_type":"html-keyboard-response","trial_index":50,"plugin_version":"2.1.0","time_elapsed":142254},{"target_group":"white","target_index":0,"condition_label":"practice","rt":-1,"response":"","correct":false,"choices":"ALL_KEYS","correct_choice":["a"],"trial_duration":2000,"flip_timestamps":[],"response_ends_trial":false,"number_of_apertures":2,"number_of_dots":[100,83],"number_of_sets":1,"coherent_direction":[286,81],"coherence":1,"opposite_coherence":0,"dot_radius":2,"dot_side_length":1,"dot_life":-1,"move_distance":1,"aperture_width":300,"aperture_height":300,"dot_color":["white","black"],"dot_shape":"circle","background_color":"#AAA","RDK_type":3,"aperture_type":2,"reinsert_type":2,"frame_rate":6.13939393939394,"frame_rate_array":[1,6,6,8,6,6,6,7,6,6,7,6,7,6,7,5,7,7,4,7,5,7,6,7,5,5,7,6,6,6,6,6,6,7,6,6,7,6,6,7,6,6,6,6,7,6,6,6,6,7,6,7,6,7,6,6,6,7,6,6,7,6,6,6,6,6,7,6,6,6,5,7,5,6,6,6,6,6,7,6,7,6,6,7,6,6,6,6,7,6,7,6,6,7,6,6,7,6,6,6,7,6,6,6,6,7,6,6,7,6,6,6,6,6,6,6,6,6,6,7,6,7,6,6,6,6,6,6,5,7,7,6,6,6,5,7,7,6,6,6,6,6,7,6,7,5,7,6,6,6,6,6,6,6,5,6,6,5,7,6,7,6,6,6,6,6,6,7,6,6,6,7,5,6,7,5,6,6,6,7,6,6,6,6,6,6,7,6,7,5,6,7,6,7,6,6,6,7,6,6,6,6,6,6,6,6,6,6,5,6,6,6,6,6,5,6,6,6,7,5,7,6,7,6,7,6,6,5,7,6,6,7,5,6,6,6,6,6,6,6,6,7,5,7,5,7,6,7,6,6,6,6,6,6,6,6,6,6,6,7,6,7,6,6,6,6,6,6,6,6,6,7,5,7,6,6,6,6,6,6,7,6,6,6,6,7,6,6,6,6,6,7,6,6,6,6,7,6,6,6,6,6,7,6,6,6,6,7,5,6,7,6,7,6,6,6,5,6,7,6,6,6,6,6,7,5,7,6,7,5],"number_of_frames":330,"aperture_center_x":640,"aperture_center_y":400,"fixation_cross":true,"fixation_cross_width":15,"fixation_cross_height":15,"fixation_cross_color":"#111","fixation_cross_thickness":1,"border":true,"border_thickness":2,"border_color":"transparent","canvas_width":1280,"canvas_height":800,"trial_type":"rdk","trial_index":51,"plugin_version":"2.0.0","time_elapsed":144256,"phase":"practice","target_direction":286,"distractor_direction":81},{"rt":3016,"stimulus":"\n        <div class=\"response-container\">\n          <div class=\"response-instruction\">\n            <p>rotate the bar by using the left and right arrow keys.</p>\n            <p>when you are determined, press the Enter key.</p>\n          </div>\n          <div class=\"response-circle\">\n            <div class=\"response-fixation\"></div>\n            <div id=\"bar\" class=\"rotating-bar\"></div>\n          </div>\n        </div>\n      ","response":"Enter","trial_type":"html-keyboard-response","trial_index":52,"plugin_version":"2.1.0","time_elapsed":147273,"random_initial_angle":56,"response_angle_css":168,"response_angle_rdk":282,"angular_error_target":-4,"angular_error_distractor":-159,"target_direction":286,"target_group":"white","reward_points":9},{"rt":null,"stimulus":"\n          <p style=\"color: #00FF00;\">Your reward: 9 points</p>\n        ","response":null,"trial_type":"html-keyboard-response","trial_index":53,"plugin_version":"2.1.0","time_elapsed":149274},{"rt":null,"stimulus":"<div class=\"fixation\" style=\"font-size: 60px;\">+</div>","response":null,"trial_type":"html-keyboard-response","trial_index":54,"plugin_version":"2.1.0","time_elapsed":150276},{"target_group":"white","target_index":0,"condition_label":"practice","rt":-1,"response":"","correct":false,"choices":"ALL_KEYS","correct_choice":["a"],"trial_duration":2000,"flip_timestamps":[],"response_ends_trial":false,"number_of_apertures":2,"number_of_dots":[100,75],"number_of_sets":1,"coherent_direction":[269,43],"coherence":1,"opposite_coherence":0,"dot_radius":2,"dot_side_length":1,"dot_life":-1,"move_distance":1,"aperture_width":300,"aperture_height":300,"dot_color":["white","black"],"dot_shape":"circle","background_color":"#AAA","RDK_type":3,"aperture_type":2,"reinsert_type":2,"frame_rate":6.124620060790273,"frame_rate_array":[3,6,8,6,6,6,6,6,6,7,6,7,6,6,6,7,6,6,6,6,6,6,6,6,6,6,6,6,6,6,6,7,6,6,6,6,6,6,6,6,6,6,6,7,6,6,6,6,6,7,6,6,6,6,7,6,6,6,6,6,6,6,6,6,6,6,6,6,6,6,6,7,6,6,7,6,6,6,7,6,6,6,7,6,6,6,6,7,6,6,6,6,6,7,6,6,6,6,7,6,6,7,6,6,6,7,6,6,6,6,6,6,6,5,7,6,6,6,6,6,6,7,6,7,6,7,6,6,6,7,6,6,7,6,6,7,6,6,6,6,7,6,6,6,6,6,6,6,6,6,6,7,6,6,6,5,6,6,6,7,6,6,6,5,7,6,6,7,5,6,6,5,6,6,6,5,6,7,6,6,6,6,6,6,6,6,7,6,6,6,7,6,7,6,6,6,6,6,6,6,6,6,7,6,6,6,7,6,6,6,7,6,6,6,6,7,6,6,6,6,6,6,6,7,5,7,6,6,6,5,6,6,6,6,6,6,6,5,6,6,6,6,6,6,6,6,6,7,6,6,7,6,7,6,6,7,6,6,7,6,6,6,5,7,6,6,6,6,7,6,6,6,7,5,7,6,7,6,6,6,6,7,6,6,7,6,5,6,6,6,6,6,6,6,5,6,6,7,5,6,7,6,7,6,6,6,6,6,6,6,6,6,6,6,6,6,6,6,6,7,5,7,6,6,6,7,6,6,7],"number_of_frames":329,"aperture_center_x":640,"aperture_center_y":400,"fixation_cross":true,"fixation_cross_width":15,"fixation_cross_height":15,"fixation_cross_color":"#111","fixation_cross_thickness":1,"border":true,"border_thickness":2,"border_color":"transparent","canvas_width":1280,"canvas_height":800,"trial_type":"rdk","trial_index":55,"plugin_version":"2.0.0","time_elapsed":152277,"phase":"practice","target_direction":269,"distractor_direction":43},{"rt":2284,"stimulus":"\n        <div class=\"response-container\">\n          <div class=\"response-instruction\">\n            <p>rotate the bar by using the left and right arrow keys.</p>\n            <p>when you are determined, press the Enter key.</p>\n          </div>\n          <div class=\"response-circle\">\n            <div class=\"response-fixation\"></div>\n            <div id=\"bar\" class=\"rotating-bar\"></div>\n          </div>\n        </div>\n      ","response":"Enter","trial_type":"html-keyboard-response","trial_index":56,"plugin_version":"2.1.0","time_elapsed":154562,"random_initial_angle":130,"response_angle_css":175,"response_angle_rdk":275,"angular_error_target":6,"angular_error_distractor":-128,"target_direction":269,"target_group":"white","reward_points":8},{"rt":null,"stimulus":"\n          <p style=\"color: #00FF00;\">Your reward: 8 points</p>\n        ","response":null,"trial_type":"html-keyboard-response","trial_index":57,"plugin_version":"2.1.0","time_elapsed":156563},{"rt":null,"stimulus":"<div class=\"fixation\" style=\"font-size: 60px;\">+</div>","response":null,"trial_type":"html-keyboard-response","trial_index":58,"plugin_version":"2.1.0","time_elapsed":157564},{"target_group":"white","target_index":0,"condition_label":"practice","rt":-1,"response":"","correct":false,"choices":"ALL_KEYS","correct_choice":["a"],"trial_duration":2000,"flip_timestamps":[],"response_ends_trial":false,"number_of_apertures":2,"number_of_dots":[100,67],"number_of_sets":1,"coherent_direction":[313,66],"coherence":1,"opposite_coherence":0,"dot_radius":2,"dot_side_length":1,"dot_life":-1,"move_distance":1,"aperture_width":300,"aperture_height":300,"dot_color":["white","black"],"dot_shape":"circle","background_color":"#AAA","RDK_type":3,"aperture_type":2,"reinsert_type":2,"frame_rate":6.185410334346504,"frame_rate_array":[4,6,6,7,6,6,5,7,6,6,6,6,6,5,7,6,6,7,6,7,6,6,6,6,7,6,6,6,7,6,7,5,6,6,7,6,6,6,7,6,6,7,6,6,7,6,7,6,6,7,6,6,6,7,6,7,6,6,6,6,5,6,7,6,6,6,6,6,6,7,6,6,6,6,7,6,6,7,5,7,6,6,6,7,5,6,7,6,6,6,7,6,7,6,7,6,6,7,6,6,6,6,7,5,7,6,6,5,6,7,6,7,6,7,5,6,6,6,6,6,6,6,6,6,6,6,7,7,6,7,6,6,6,6,6,6,6,6,7,6,7,5,7,6,6,7,6,7,6,6,6,6,5,6,7,6,7,6,6,6,6,7,6,6,7,6,6,6,6,6,6,6,6,6,7,6,6,5,6,7,6,7,6,6,6,7,6,6,6,5,6,6,6,6,6,7,6,7,6,6,6,7,6,6,6,6,7,6,6,6,6,7,6,6,6,6,6,6,7,6,6,6,6,7,6,6,6,6,7,6,6,7,5,6,6,6,6,6,6,6,7,6,7,6,7,6,6,6,6,6,6,7,6,6,6,6,7,6,6,6,6,7,6,6,7,6,6,6,6,6,6,6,7,6,6,6,6,6,6,6,6,7,6,6,6,6,6,6,6,7,6,6,6,6,7,6,6,6,7,6,6,7,6,7,6,6,6,7,5,7,6,7,6,6,6,7,7,6,7,6,6,6,7,5,7,6,6,6,6],"number_of_frames":329,"aperture_center_x":640,"aperture_center_y":400,"fixation_cross":true,"fixation_cross_width":15,"fixation_cross_height":15,"fixation_cross_color":"#111","fixation_cross_thickness":1,"border":true,"border_thickness":2,"border_color":"transparent","canvas_width":1280,"canvas_height":800,"trial_type":"rdk","trial_index":59,"plugin_version":"2.0.0","time_elapsed":159566,"phase":"practice","target_direction":313,"distractor_direction":66},{"rt":2470,"stimulus":"\n        <div class=\"response-container\">\n          <div class=\"response-instruction\">\n            <p>rotate the bar by using the left and right arrow keys.</p>\n            <p>when you are determined, press the Enter key.</p>\n          </div>\n          <div class=\"response-circle\">\n            <div class=\"response-fixation\"></div>\n            <div id=\"bar\" class=\"rotating-bar\"></div>\n          </div>\n        </div>\n      ","response":"Enter","trial_type":"html-keyboard-response","trial_index":60,"plugin_version":"2.1.0","time_elapsed":162036,"random_initial_angle":251,"response_angle_css":136,"response_angle_rdk":314,"angular_error_target":1,"angular_error_distractor":-112,"target_direction":313,"target_group":"white","reward_points":9},{"rt":null,"stimulus":"\n          <p style=\"color: #00FF00;\">Your reward: 9 points</p>\n        ","response":null,"trial_type":"html-keyboard-response","trial_index":61,"plugin_version":"2.1.0","time_elapsed":164037},{"rt":null,"stimulus":"<div class=\"fixation\" style=\"font-size: 60px;\">+</div>","response":null,"trial_type":"html-keyboard-response","trial_index":62,"plugin_version":"2.1.0","time_elapsed":165038},{"target_group":"white","target_index":0,"condition_label":"practice","rt":-1,"response":"","correct":false,"choices":"ALL_KEYS","correct_choice":["a"],"trial_duration":2000,"flip_timestamps":[],"response_ends_trial":false,"number_of_apertures":2,"number_of_dots":[100,100],"number_of_sets":1,"coherent_direction":[81,275],"coherence":1,"opposite_coherence":0,"dot_radius":2,"dot_side_length":1,"dot_life":-1,"move_distance":1,"aperture_width":300,"aperture_height":300,"dot_color":["white","black"],"dot_shape":"circle","background_color":"#AAA","RDK_type":3,"aperture_type":2,"reinsert_type":2,"frame_rate":6.0181818181818185,"frame_rate_array":[1,6,8,6,6,6,6,7,6,6,6,7,6,7,5,6,6,6,6,7,6,6,6,7,6,6,7,6,6,6,6,6,6,5,7,6,6,6,6,6,6,6,6,7,6,6,6,6,6,7,5,6,6,6,6,6,6,6,6,6,6,6,6,6,6,6,6,6,6,6,6,7,6,7,6,6,6,6,6,6,6,6,6,6,6,6,6,6,6,6,6,6,6,6,6,6,6,5,6,6,6,6,6,6,6,6,6,6,6,6,6,6,6,6,6,6,6,6,6,6,6,6,6,6,6,6,6,6,6,6,6,6,6,6,6,6,6,6,6,6,6,6,6,6,6,6,6,6,6,6,6,6,6,6,6,6,6,6,6,6,6,6,6,6,6,6,6,6,6,6,6,6,6,6,6,6,6,6,6,6,6,5,6,6,6,5,6,6,6,6,6,6,6,6,6,6,6,6,6,6,6,6,6,6,7,6,6,7,6,6,6,6,6,6,6,7,6,6,6,6,6,6,6,6,6,6,6,6,6,6,6,6,6,6,6,6,6,6,5,6,6,6,6,6,6,6,6,6,6,6,5,6,6,6,6,6,6,6,6,6,6,6,6,6,6,6,6,6,6,6,6,6,6,6,6,6,7,6,6,6,6,6,7,6,6,6,6,6,6,6,6,7,6,6,6,6,6,6,6,6,6,6,6,6,6,6,6,5,7,6,6,6,6,6,5,6,6,6,6,6,6,6,6,6,6,6,6,7,6,6],"number_of_frames":330,"aperture_center_x":640,"aperture_center_y":400,"fixation_cross":true,"fixation_cross_width":15,"fixation_cross_height":15,"fixation_cross_color":"#111","fixation_cross_thickness":1,"border":true,"border_thickness":2,"border_color":"transparent","canvas_width":1280,"canvas_height":800,"trial_type":"rdk","trial_index":63,"plugin_version":"2.0.0","time_elapsed":167040,"phase":"practice","target_direction":81,"distractor_direction":275},{"rt":3289,"stimulus":"\n        <div class=\"response-container\">\n          <div class=\"response-instruction\">\n            <p>rotate the bar by using the left and right arrow keys.</p>\n            <p>when you are determined, press the Enter key.</p>\n          </div>\n          <div class=\"response-circle\">\n            <div class=\"response-fixation\"></div>\n            <div id=\"bar\" class=\"rotating-bar\"></div>\n          </div>\n        </div>\n      ","response":"Enter","trial_type":"html-keyboard-response","trial_index":64,"plugin_version":"2.1.0","time_elapsed":170331,"random_initial_angle":190,"response_angle_css":19,"response_angle_rdk":71,"angular_error_target":-10,"angular_error_distractor":156,"target_direction":81,"target_group":"white","reward_points":8},{"rt":null,"stimulus":"\n          <p style=\"color: #00FF00;\">Your reward: 8 points</p>\n        ","response":null,"trial_type":"html-keyboard-response","trial_index":65,"plugin_version":"2.1.0","time_elapsed":172332},{"rt":2661,"stimulus":"\n        <div class=\"instructions-container\">\n          <h2>End of Practice</h2>\n          <p>You have completed the practice trials.</p>\n          <p>Press <strong>Enter</strong> key to begin the main experiment.</p>\n        </div>\n      ","response":"Enter","trial_type":"html-keyboard-response","trial_index":66,"plugin_version":"2.1.0","time_elapsed":174994},{"rt":null,"stimulus":"<div class=\"fixation\" style=\"font-size: 60px;\">+</div>","response":null,"trial_type":"html-keyboard-response","trial_index":67,"plugin_version":"2.1.0","time_elapsed":175996},{"phase":"learning-awareness","target_group":"white","condition_label":"W_H_vs_B_L_rep23","target_direction":124,"distractor_direction":14,"session_rotation":102,"rt":-1,"response":"","correct":false,"choices":"ALL_KEYS","correct_choice":["a"],"trial_duration":2000,"flip_timestamps":[],"response_ends_trial":false,"number_of_apertures":200,"number_of_dots":[1,1,1,1,1,1,1,1,1,1,1,1,1,1,1,1,1,1,1,1,1,1,1,1,1,1,1,1,1,1,1,1,1,1,1,1,1,1,1,1,1,1,1,1,1,1,1,1,1,1,1,1,1,1,1,1,1,1,1,1,1,1,1,1,1,1,1,1,1,1,1,1,1,1,1,1,1,1,1,1,1,1,1,1,1,1,1,1,1,1,1,1,1,1,1,1,1,1,1,1,1,1,1,1,1,1,1,1,1,1,1,1,1,1,1,1,1,1,1,1,1,1,1,1,1,1,1,1,1,1,1,1,1,1,1,1,1,1,1,1,1,1,1,1,1,1,1,1,1,1,1,1,1,1,1,1,1,1,1,1,1,1,1,1,1,1,1,1,1,1,1,1,1,1,1,1,1,1,1,1,1,1,1,1,1,1,1,1,1,1,1,1,1,1,1,1,1,1,1,1],"number_of_sets":1,"coherent_direction":[14,124,124,14,14,14,14,124,124,124,124,14,14,14,14,14,14,124,14,14,14,124,124,14,124,14,14,124,14,124,14,124,14,124,14,124,14,124,124,124,14,124,124,124,14,14,124,14,14,14,124,14,124,14,124,124,124,14,124,14,124,14,124,124,14,14,14,14,124,124,14,14,124,124,14,124,14,14,124,14,14,14,14,124,124,14,124,14,14,124,14,14,124,14,14,124,124,124,124,124,14,124,124,124,124,124,124,14,124,14,14,124,124,124,124,14,124,124,124,14,124,124,124,14,14,124,124,124,124,124,124,124,124,124,14,124,14,14,124,14,124,14,14,14,14,124,124,124,14,14,14,124,14,14,14,124,14,14,14,14,14,124,124,14,14,14,124,14,124,14,14,14,14,14,124,14,14,124,124,124,124,14,124,124,124,124,124,14,14,14,124,124,14,14,124,14,124,14,124,14],"coherence":1,"opposite_coherence":0,"dot_radius":2,"dot_side_length":1,"dot_life":-1,"move_distance":1,"aperture_width":300,"aperture_height":300,"dot_color":["black","white","white","black","black","black","black","white","white","white","white","black","black","black","black","black","black","white","black","black","black","white","white","black","white","black","black","white","black","white","black","white","black","white","black","white","black","white","white","white","black","white","white","white","black","black","white","black","black","black","white","black","white","black","white","white","white","black","white","black","white","black","white","white","black","black","black","black","white","white","black","black","white","white","black","white","black","black","white","black","black","black","black","white","white","black","white","black","black","white","black","black","white","black","black","white","white","white","white","white","black","white","white","white","white","white","white","black","white","black","black","white","white","white","white","black","white","white","white","black","white","white","white","black","black","white","white","white","white","white","white","white","white","white","black","white","black","black","white","black","white","black","black","black","black","white","white","white","black","black","black","white","black","black","black","white","black","black","black","black","black","white","white","black","black","black","white","black","white","black","black","black","black","black","white","black","black","white","white","white","white","black","white","white","white","white","white","black","black","black","white","white","black","black","white","black","white","black","white","black"],"dot_shape":"circle","background_color":"#AAA","RDK_type":3,"aperture_type":2,"reinsert_type":2,"frame_rate":6.130699088145897,"frame_rate_array":[3,7,6,8,7,6,6,6,7,6,7,6,6,6,6,6,7,6,6,6,7,5,6,6,6,6,7,6,6,6,7,6,7,6,6,6,7,5,7,6,7,6,6,6,6,6,6,6,6,6,6,6,6,6,6,7,6,7,6,6,7,5,7,5,6,6,6,6,6,6,7,7,5,6,6,7,6,6,7,5,7,5,7,6,6,6,6,6,7,6,6,6,6,6,6,6,6,6,6,6,6,6,6,6,7,6,7,5,7,5,6,6,6,6,7,6,6,7,6,6,6,7,6,6,7,5,6,6,7,5,6,6,6,6,6,6,6,6,6,6,7,6,6,7,5,7,6,7,5,6,6,6,6,6,6,6,6,6,6,6,6,7,6,6,7,6,6,6,7,6,6,7,5,6,6,7,6,6,6,7,6,5,6,6,6,7,6,8,5,6,6,7,7,6,6,6,6,6,6,6,7,6,7,6,6,6,7,6,6,6,6,6,6,6,6,6,6,6,6,6,6,6,6,6,6,7,6,6,6,6,7,6,6,6,7,6,7,6,6,7,6,6,6,6,6,6,6,7,6,6,6,6,6,6,6,6,6,6,6,6,6,6,6,6,6,6,6,6,6,6,6,6,6,6,6,6,6,6,6,6,6,6,5,7,6,6,6,6,6,6,6,6,6,6,6,6,6,6,7,6,6,6,6,6,7,6,6,7,6,6,6,6,6,6,6,6,6,6,6,6,6,6,7,6,7,6,6,6,6],"number_of_frames":329,"aperture_center_x":640,"aperture_center_y":400,"fixation_cross":true,"fixation_cross_width":15,"fixation_cross_height":15,"fixation_cross_color":"#111","fixation_cross_thickness":1,"border":true,"border_thickness":2,"border_color":"transparent","canvas_width":1280,"canvas_height":800,"trial_type":"rdk","trial_index":68,"plugin_version":"2.0.0","time_elapsed":177997},{"rt":2025,"stimulus":"\n        <div class=\"response-container\">\n          <div class=\"response-instruction\">\n            <p>rotate the bar by using the left and right arrow keys.</p>\n            <p>when you are determined, press the Enter key.</p>\n          </div>\n          <div class=\"response-circle\">\n            <div class=\"response-fixation\"></div>\n            <div id=\"bar\" class=\"rotating-bar\"></div>\n          </div>\n        </div>\n      ","response":"Enter","trial_type":"html-keyboard-response","trial_index":69,"plugin_version":"2.1.0","time_elapsed":180023,"random_initial_angle":347,"response_angle_css":327,"response_angle_rdk":123,"angular_error_target":-1,"angular_error_distractor":109,"target_direction":124,"target_group":"white","reward_points":9},{"rt":null,"stimulus":"\n          <p style=\"color: #00FF00;\">Your reward: 9 points</p>\n        ","response":null,"trial_type":"html-keyboard-response","trial_index":70,"plugin_version":"2.1.0","time_elapsed":182024},{"rt":null,"stimulus":"<div class=\"fixation\" style=\"font-size: 60px;\">+</div>","response":null,"trial_type":"html-keyboard-response","trial_index":71,"plugin_version":"2.1.0","time_elapsed":183025},{"phase":"learning-awareness","target_group":"white","condition_label":"W_H_vs_B_L_rep8","target_direction":128,"distractor_direction":37,"session_rotation":102,"rt":-1,"response":"","correct":false,"choices":"ALL_KEYS","correct_choice":["a"],"trial_duration":2000,"flip_timestamps":[],"response_ends_trial":false,"number_of_apertures":200,"number_of_dots":[1,1,1,1,1,1,1,1,1,1,1,1,1,1,1,1,1,1,1,1,1,1,1,1,1,1,1,1,1,1,1,1,1,1,1,1,1,1,1,1,1,1,1,1,1,1,1,1,1,1,1,1,1,1,1,1,1,1,1,1,1,1,1,1,1,1,1,1,1,1,1,1,1,1,1,1,1,1,1,1,1,1,1,1,1,1,1,1,1,1,1,1,1,1,1,1,1,1,1,1,1,1,1,1,1,1,1,1,1,1,1,1,1,1,1,1,1,1,1,1,1,1,1,1,1,1,1,1,1,1,1,1,1,1,1,1,1,1,1,1,1,1,1,1,1,1,1,1,1,1,1,1,1,1,1,1,1,1,1,1,1,1,1,1,1,1,1,1,1,1,1,1,1,1,1,1,1,1,1,1,1,1,1,1,1,1,1,1,1,1,1,1,1,1,1,1,1,1,1,1],"number_of_sets":1,"coherent_direction":[128,37,37,37,128,128,37,37,128,128,128,128,37,128,128,128,128,128,37,128,37,37,128,128,37,128,128,128,128,128,37,37,128,128,37,37,128,37,128,128,37,128,37,128,37,37,128,128,37,37,37,128,37,128,128,37,37,37,128,128,37,37,37,37,37,128,128,128,128,128,128,128,37,37,37,128,37,128,128,37,37,37,128,37,128,37,37,37,128,37,128,128,37,128,128,128,128,37,37,128,128,37,37,37,37,37,37,128,128,128,37,37,128,37,37,37,128,37,37,37,37,128,128,128,37,128,128,128,128,37,37,37,37,37,37,128,37,37,37,128,37,37,37,128,37,37,37,37,128,128,128,128,128,37,37,37,128,37,128,128,128,37,128,128,128,128,128,37,128,37,128,128,128,128,37,37,37,128,128,128,128,37,37,128,128,37,37,37,128,128,37,128,37,37,37,37,37,128,37,128],"coherence":1,"opposite_coherence":0,"dot_radius":2,"dot_side_length":1,"dot_life":-1,"move_distance":1,"aperture_width":300,"aperture_height":300,"dot_color":["white","black","black","black","white","white","black","black","white","white","white","white","black","white","white","white","white","white","black","white","black","black","white","white","black","white","white","white","white","white","black","black","white","white","black","black","white","black","white","white","black","white","black","white","black","black","white","white","black","black","black","white","black","white","white","black","black","black","white","white","black","black","black","black","black","white","white","white","white","white","white","white","black","black","black","white","black","white","white","black","black","black","white","black","white","black","black","black","white","black","white","white","black","white","white","white","white","black","black","white","white","black","black","black","black","black","black","white","white","white","black","black","white","black","black","black","white","black","black","black","black","white","white","white","black","white","white","white","white","black","black","black","black","black","black","white","black","black","black","white","black","black","black","white","black","black","black","black","white","white","white","white","white","black","black","black","white","black","white","white","white","black","white","white","white","white","white","black","white","black","white","white","white","white","black","black","black","white","white","white","white","black","black","white","white","black","black","black","white","white","black","white","black","black","black","black","black","white","black","white"],"dot_shape":"circle","background_color":"#AAA","RDK_type":3,"aperture_type":2,"reinsert_type":2,"frame_rate":6.130699088145897,"frame_rate_array":[2,7,7,6,6,6,6,6,6,6,6,6,6,6,6,6,6,6,7,6,6,6,6,6,6,6,6,6,6,6,6,7,6,6,6,6,6,6,6,6,6,6,6,6,7,6,6,6,6,5,7,6,6,6,7,6,6,7,6,6,6,5,6,7,6,6,7,6,6,7,6,6,6,7,6,6,6,7,6,6,7,5,6,7,6,6,6,6,7,6,7,6,6,6,6,7,6,5,6,6,6,6,6,7,6,6,6,6,6,6,6,6,6,6,6,6,6,6,6,6,6,6,7,6,6,6,6,6,7,6,6,7,6,6,6,6,7,6,6,7,6,7,6,6,6,7,6,6,5,6,7,6,6,6,6,7,6,6,6,6,6,7,6,6,7,6,6,7,6,6,6,7,6,7,6,6,6,7,6,6,6,6,7,6,6,7,6,6,6,6,7,6,6,6,7,6,6,6,6,6,6,7,6,6,7,6,6,6,6,6,7,6,6,6,6,6,6,6,6,6,6,6,6,6,6,6,6,6,6,6,6,6,6,6,6,6,6,7,6,6,7,6,6,6,6,6,6,6,6,6,6,6,6,6,7,6,7,5,6,6,6,7,6,6,6,6,5,6,7,6,6,6,6,7,6,6,6,6,6,6,6,6,7,6,6,6,7,6,6,6,6,6,6,6,6,6,6,6,7,6,6,6,5,7,6,6,6,6,6,7,6,6,6,6,6,6,7,6,6,6,6,7,6,6,6,6,6,7,5],"number_of_frames":329,"aperture_center_x":640,"aperture_center_y":400,"fixation_cross":true,"fixation_cross_width":15,"fixation_cross_height":15,"fixation_cross_color":"#111","fixation_cross_thickness":1,"border":true,"border_thickness":2,"border_color":"transparent","canvas_width":1280,"canvas_height":800,"trial_type":"rdk","trial_index":72,"plugin_version":"2.0.0","time_elapsed":185027},{"rt":2501,"stimulus":"\n        <div class=\"response-container\">\n          <div class=\"response-instruction\">\n            <p>rotate the bar by using the left and right arrow keys.</p>\n            <p>when you are determined, press the Enter key.</p>\n          </div>\n          <div class=\"response-circle\">\n            <div class=\"response-fixation\"></div>\n            <div id=\"bar\" class=\"rotating-bar\"></div>\n          </div>\n        </div>\n      ","response":"Enter","trial_type":"html-keyboard-response","trial_index":73,"plugin_version":"2.1.0","time_elapsed":187529,"random_initial_angle":254,"response_angle_css":320,"response_angle_rdk":130,"angular_error_target":2,"angular_error_distractor":93,"target_direction":128,"target_group":"white","reward_points":9},{"rt":null,"stimulus":"\n          <p style=\"color: #00FF00;\">Your reward: 9 points</p>\n        ","response":null,"trial_type":"html-keyboard-response","trial_index":74,"plugin_version":"2.1.0","time_elapsed":189530},{"rt":null,"stimulus":"<div class=\"fixation\" style=\"font-size: 60px;\">+</div>","response":null,"trial_type":"html-keyboard-response","trial_index":75,"plugin_version":"2.1.0","time_elapsed":190531},{"phase":"learning-awareness","target_group":"white","condition_label":"W_H_vs_B_L_rep24","target_direction":109,"distractor_direction":18,"session_rotation":102,"rt":-1,"response":"","correct":false,"choices":"ALL_KEYS","correct_choice":["a"],"trial_duration":2000,"flip_timestamps":[],"response_ends_trial":false,"number_of_apertures":200,"number_of_dots":[1,1,1,1,1,1,1,1,1,1,1,1,1,1,1,1,1,1,1,1,1,1,1,1,1,1,1,1,1,1,1,1,1,1,1,1,1,1,1,1,1,1,1,1,1,1,1,1,1,1,1,1,1,1,1,1,1,1,1,1,1,1,1,1,1,1,1,1,1,1,1,1,1,1,1,1,1,1,1,1,1,1,1,1,1,1,1,1,1,1,1,1,1,1,1,1,1,1,1,1,1,1,1,1,1,1,1,1,1,1,1,1,1,1,1,1,1,1,1,1,1,1,1,1,1,1,1,1,1,1,1,1,1,1,1,1,1,1,1,1,1,1,1,1,1,1,1,1,1,1,1,1,1,1,1,1,1,1,1,1,1,1,1,1,1,1,1,1,1,1,1,1,1,1,1,1,1,1,1,1,1,1,1,1,1,1,1,1,1,1,1,1,1,1,1,1,1,1,1,1],"number_of_sets":1,"coherent_direction":[18,18,109,109,109,18,109,18,18,109,109,18,109,109,109,18,18,109,109,18,109,18,109,109,18,18,18,18,18,18,109,109,109,109,109,109,18,18,109,18,109,109,18,18,109,18,18,18,18,18,109,18,18,18,18,18,109,18,109,109,109,109,18,18,109,109,109,18,18,109,109,109,18,109,109,109,18,109,109,18,18,18,18,18,109,109,18,109,18,109,18,109,18,109,18,109,18,109,18,18,109,109,18,109,109,18,109,18,109,18,18,18,109,18,18,109,109,109,109,109,109,18,18,18,18,18,109,18,18,18,109,18,18,18,109,18,18,109,109,18,18,18,18,109,109,109,109,109,18,18,18,109,109,109,109,109,109,109,109,18,109,18,109,18,109,109,18,18,18,18,109,18,18,18,18,109,109,18,109,18,18,109,18,109,18,109,109,109,109,109,109,18,18,109,109,18,18,18,109,109],"coherence":1,"opposite_coherence":0,"dot_radius":2,"dot_side_length":1,"dot_life":-1,"move_distance":1,"aperture_width":300,"aperture_height":300,"dot_color":["black","black","white","white","white","black","white","black","black","white","white","black","white","white","white","black","black","white","white","black","white","black","white","white","black","black","black","black","black","black","white","white","white","white","white","white","black","black","white","black","white","white","black","black","white","black","black","black","black","black","white","black","black","black","black","black","white","black","white","white","white","white","black","black","white","white","white","black","black","white","white","white","black","white","white","white","black","white","white","black","black","black","black","black","white","white","black","white","black","white","black","white","black","white","black","white","black","white","black","black","white","white","black","white","white","black","white","black","white","black","black","black","white","black","black","white","white","white","white","white","white","black","black","black","black","black","white","black","black","black","white","black","black","black","white","black","black","white","white","black","black","black","black","white","white","white","white","white","black","black","black","white","white","white","white","white","white","white","white","black","white","black","white","black","white","white","black","black","black","black","white","black","black","black","black","white","white","black","white","black","black","white","black","white","black","white","white","white","white","white","white","black","black","white","white","black","black","black","white","white"],"dot_shape":"circle","background_color":"#AAA","RDK_type":3,"aperture_type":2,"reinsert_type":2,"frame_rate":6.094224924012158,"frame_rate_array":[4,6,6,8,5,6,6,7,6,7,6,6,6,7,6,7,6,6,6,6,6,6,7,6,6,7,6,5,6,7,6,6,6,6,5,7,6,6,6,7,6,7,6,5,7,5,7,6,6,6,6,6,6,6,7,5,6,7,6,6,6,6,6,6,6,6,6,5,6,6,6,6,6,6,6,6,7,6,7,5,7,5,7,5,7,6,7,5,6,6,6,6,7,6,7,5,7,6,6,6,6,6,6,5,6,7,5,6,6,6,6,6,6,6,6,7,5,7,6,6,6,6,6,6,6,6,6,6,6,6,6,6,6,7,6,6,7,6,6,6,5,6,6,6,6,7,6,7,6,6,6,7,5,6,6,6,7,5,7,5,6,6,6,6,6,6,6,5,6,7,6,6,6,6,6,5,6,7,6,5,7,6,7,5,7,6,7,6,6,6,6,6,5,6,6,6,6,7,6,6,7,6,6,6,7,6,6,6,6,6,6,6,6,6,6,6,6,7,5,6,6,6,6,6,6,6,6,6,6,6,6,7,6,6,6,6,7,6,6,6,6,7,6,6,6,7,6,6,6,6,6,7,5,6,6,6,7,6,6,5,7,6,6,6,7,6,6,6,6,6,6,6,6,7,6,6,6,7,6,6,6,6,6,7,7,5,6,6,6,6,6,6,6,6,6,6,7,6,5,6,6,6,7,6,6,6,6,6,8,3,7,6,6,6,7,5,6,6,6,6,6,7,5,7,6,7,6,7,6],"number_of_frames":329,"aperture_center_x":640,"aperture_center_y":400,"fixation_cross":true,"fixation_cross_width":15,"fixation_cross_height":15,"fixation_cross_color":"#111","fixation_cross_thickness":1,"border":true,"border_thickness":2,"border_color":"transparent","canvas_width":1280,"canvas_height":800,"trial_type":"rdk","trial_index":76,"plugin_version":"2.0.0","time_elapsed":192532},{"rt":3036,"stimulus":"\n        <div class=\"response-container\">\n          <div class=\"response-instruction\">\n            <p>rotate the bar by using the left and right arrow keys.</p>\n            <p>when you are determined, press the Enter key.</p>\n          </div>\n          <div class=\"response-circle\">\n            <div class=\"response-fixation\"></div>\n            <div id=\"bar\" class=\"rotating-bar\"></div>\n          </div>\n        </div>\n      ","response":"Enter","trial_type":"html-keyboard-response","trial_index":77,"plugin_version":"2.1.0","time_elapsed":195569,"random_initial_angle":148,"response_angle_css":325,"response_angle_rdk":125,"angular_error_target":16,"angular_error_distractor":107,"target_direction":109,"target_group":"white","reward_points":6},{"rt":null,"stimulus":"\n          <p style=\"color: #00FF00;\">Your reward: 6 points</p>\n        ","response":null,"trial_type":"html-keyboard-response","trial_index":78,"plugin_version":"2.1.0","time_elapsed":197570},{"rt":null,"stimulus":"<div class=\"fixation\" style=\"font-size: 60px;\">+</div>","response":null,"trial_type":"html-keyboard-response","trial_index":79,"plugin_version":"2.1.0","time_elapsed":198571},{"phase":"learning-awareness","target_group":"black","condition_label":"B_H_vs_W_L_rep7","target_direction":205,"distractor_direction":307,"session_rotation":102,"rt":-1,"response":"","correct":false,"choices":"ALL_KEYS","correct_choice":["a"],"trial_duration":2000,"flip_timestamps":[],"response_ends_trial":false,"number_of_apertures":200,"number_of_dots":[1,1,1,1,1,1,1,1,1,1,1,1,1,1,1,1,1,1,1,1,1,1,1,1,1,1,1,1,1,1,1,1,1,1,1,1,1,1,1,1,1,1,1,1,1,1,1,1,1,1,1,1,1,1,1,1,1,1,1,1,1,1,1,1,1,1,1,1,1,1,1,1,1,1,1,1,1,1,1,1,1,1,1,1,1,1,1,1,1,1,1,1,1,1,1,1,1,1,1,1,1,1,1,1,1,1,1,1,1,1,1,1,1,1,1,1,1,1,1,1,1,1,1,1,1,1,1,1,1,1,1,1,1,1,1,1,1,1,1,1,1,1,1,1,1,1,1,1,1,1,1,1,1,1,1,1,1,1,1,1,1,1,1,1,1,1,1,1,1,1,1,1,1,1,1,1,1,1,1,1,1,1,1,1,1,1,1,1,1,1,1,1,1,1,1,1,1,1,1,1],"number_of_sets":1,"coherent_direction":[205,307,307,205,205,307,205,205,205,307,307,307,307,205,307,307,205,205,205,205,307,307,205,307,205,205,205,205,205,205,307,205,205,205,307,307,205,307,205,205,307,307,307,205,205,205,307,307,205,307,205,205,307,307,205,307,307,205,307,307,307,307,205,307,307,307,307,205,307,307,205,205,205,307,307,205,307,307,205,205,205,205,205,205,205,205,205,307,307,205,205,205,205,307,205,205,307,307,205,307,205,307,307,205,205,205,205,205,205,205,205,307,307,307,307,307,205,307,205,307,307,205,205,307,307,307,307,307,307,205,307,307,307,307,307,307,205,205,205,307,307,307,205,205,205,307,307,307,307,307,307,307,307,307,205,307,205,307,205,205,205,205,307,205,307,205,307,205,205,307,307,307,205,205,307,307,205,205,205,205,205,307,205,307,205,205,205,307,205,307,205,307,307,205,307,307,307,205,307,205],"coherence":1,"opposite_coherence":0,"dot_radius":2,"dot_side_length":1,"dot_life":-1,"move_distance":1,"aperture_width":300,"aperture_height":300,"dot_color":["black","white","white","black","black","white","black","black","black","white","white","white","white","black","white","white","black","black","black","black","white","white","black","white","black","black","black","black","black","black","white","black","black","black","white","white","black","white","black","black","white","white","white","black","black","black","white","white","black","white","black","black","white","white","black","white","white","black","white","white","white","white","black","white","white","white","white","black","white","white","black","black","black","white","white","black","white","white","black","black","black","black","black","black","black","black","black","white","white","black","black","black","black","white","black","black","white","white","black","white","black","white","white","black","black","black","black","black","black","black","black","white","white","white","white","white","black","white","black","white","white","black","black","white","white","white","white","white","white","black","white","white","white","white","white","white","black","black","black","white","white","white","black","black","black","white","white","white","white","white","white","white","white","white","black","white","black","white","black","black","black","black","white","black","white","black","white","black","black","white","white","white","black","black","white","white","black","black","black","black","black","white","black","white","black","black","black","white","black","white","black","white","white","black","white","white","white","black","white","black"],"dot_shape":"circle","background_color":"#AAA","RDK_type":3,"aperture_type":2,"reinsert_type":2,"frame_rate":6.139817629179332,"frame_rate_array":[4,7,7,6,6,6,6,6,6,6,6,7,6,6,7,6,7,6,6,6,7,6,5,6,6,5,7,7,5,7,6,7,6,6,6,5,7,6,7,5,7,6,6,6,7,6,6,6,7,5,6,6,6,6,6,6,7,5,6,6,6,6,7,6,7,6,7,6,6,6,6,6,7,5,6,6,6,6,6,6,6,6,6,6,6,6,7,5,7,5,6,6,6,6,6,6,6,5,6,6,6,6,5,6,6,6,6,6,6,6,6,6,6,7,6,6,6,6,6,6,6,6,6,7,6,7,6,6,7,6,6,6,6,6,5,6,7,5,7,6,6,6,7,6,6,6,7,7,6,6,6,7,5,6,7,6,6,6,6,6,6,6,6,7,5,7,5,7,6,6,7,5,6,7,6,7,6,6,7,6,6,7,6,6,6,6,6,6,6,5,7,6,7,6,6,6,6,7,6,6,7,6,7,6,6,6,6,6,6,7,6,6,7,6,6,6,7,6,6,5,6,6,6,6,6,6,6,6,6,6,6,6,6,6,6,6,7,6,6,6,7,6,6,6,7,6,6,6,6,6,6,6,7,6,7,6,6,7,6,7,6,6,6,6,6,6,6,7,6,7,6,6,6,6,6,6,6,7,6,7,6,6,7,6,6,6,6,6,6,6,7,6,6,7,6,7,5,6,6,5,6,7,6,6,6,6,7,6,5,7,6,7,6,7,6,6,6,6,6,6,6,6,7,6,6,7,6,6,6],"number_of_frames":329,"aperture_center_x":640,"aperture_center_y":400,"fixation_cross":true,"fixation_cross_width":15,"fixation_cross_height":15,"fixation_cross_color":"#111","fixation_cross_thickness":1,"border":true,"border_thickness":2,"border_color":"transparent","canvas_width":1280,"canvas_height":800,"trial_type":"rdk","trial_index":80,"plugin_version":"2.0.0","time_elapsed":200573},{"rt":2005,"stimulus":"\n        <div class=\"response-container\">\n          <div class=\"response-instruction\">\n            <p>rotate the bar by using the left and right arrow keys.</p>\n            <p>when you are determined, press the Enter key.</p>\n          </div>\n          <div class=\"response-circle\">\n            <div class=\"response-fixation\"></div>\n            <div id=\"bar\" class=\"rotating-bar\"></div>\n          </div>\n        </div>\n      ","response":"Enter","trial_type":"html-keyboard-response","trial_index":81,"plugin_version":"2.1.0","time_elapsed":202579,"random_initial_angle":35,"response_angle_css":134,"response_angle_rdk":316,"angular_error_target":111,"angular_error_distractor":9,"target_direction":205,"target_group":"black","reward_points":0},{"rt":null,"stimulus":"\n          <p style=\"color: #FF3333;\">Your reward: 0 points</p>\n        ","response":null,"trial_type":"html-keyboard-response","trial_index":82,"plugin_version":"2.1.0","time_elapsed":204580},{"rt":null,"stimulus":"<div class=\"fixation\" style=\"font-size: 60px;\">+</div>","response":null,"trial_type":"html-keyboard-response","trial_index":83,"plugin_version":"2.1.0","time_elapsed":205581},{"phase":"learning-awareness","target_group":"white","condition_label":"W_H_vs_B_L_rep10","target_direction":146,"distractor_direction":33,"session_rotation":102,"rt":-1,"response":"","correct":false,"choices":"ALL_KEYS","correct_choice":["a"],"trial_duration":2000,"flip_timestamps":[],"response_ends_trial":false,"number_of_apertures":200,"number_of_dots":[1,1,1,1,1,1,1,1,1,1,1,1,1,1,1,1,1,1,1,1,1,1,1,1,1,1,1,1,1,1,1,1,1,1,1,1,1,1,1,1,1,1,1,1,1,1,1,1,1,1,1,1,1,1,1,1,1,1,1,1,1,1,1,1,1,1,1,1,1,1,1,1,1,1,1,1,1,1,1,1,1,1,1,1,1,1,1,1,1,1,1,1,1,1,1,1,1,1,1,1,1,1,1,1,1,1,1,1,1,1,1,1,1,1,1,1,1,1,1,1,1,1,1,1,1,1,1,1,1,1,1,1,1,1,1,1,1,1,1,1,1,1,1,1,1,1,1,1,1,1,1,1,1,1,1,1,1,1,1,1,1,1,1,1,1,1,1,1,1,1,1,1,1,1,1,1,1,1,1,1,1,1,1,1,1,1,1,1,1,1,1,1,1,1,1,1,1,1,1,1],"number_of_sets":1,"coherent_direction":[146,33,33,146,33,33,146,33,33,33,33,33,146,146,146,33,146,33,146,33,146,33,146,33,33,146,33,33,33,146,33,33,33,33,146,146,146,33,146,146,146,33,33,146,146,33,33,146,146,33,146,146,33,146,146,33,33,146,33,146,33,33,146,33,33,146,146,146,33,146,33,33,146,146,146,33,146,33,146,146,146,146,146,33,146,33,146,146,146,146,146,146,146,146,146,33,146,33,146,33,33,146,146,146,33,33,33,146,146,146,33,33,33,146,33,146,33,33,146,33,146,146,146,146,146,33,146,146,33,33,33,146,146,33,146,146,33,146,146,146,146,146,146,33,146,33,33,33,146,33,33,33,33,33,146,146,33,33,33,146,146,146,33,33,33,146,33,33,33,146,33,33,146,146,33,33,146,33,33,33,33,146,33,33,33,146,146,33,33,33,33,33,146,146,146,146,33,33,33,146],"coherence":1,"opposite_coherence":0,"dot_radius":2,"dot_side_length":1,"dot_life":-1,"move_distance":1,"aperture_width":300,"aperture_height":300,"dot_color":["white","black","black","white","black","black","white","black","black","black","black","black","white","white","white","black","white","black","white","black","white","black","white","black","black","white","black","black","black","white","black","black","black","black","white","white","white","black","white","white","white","black","black","white","white","black","black","white","white","black","white","white","black","white","white","black","black","white","black","white","black","black","white","black","black","white","white","white","black","white","black","black","white","white","white","black","white","black","white","white","white","white","white","black","white","black","white","white","white","white","white","white","white","white","white","black","white","black","white","black","black","white","white","white","black","black","black","white","white","white","black","black","black","white","black","white","black","black","white","black","white","white","white","white","white","black","white","white","black","black","black","white","white","black","white","white","black","white","white","white","white","white","white","black","white","black","black","black","white","black","black","black","black","black","white","white","black","black","black","white","white","white","black","black","black","white","black","black","black","white","black","black","white","white","black","black","white","black","black","black","black","white","black","black","black","white","white","black","black","black","black","black","white","white","white","white","black","black","black","white"],"dot_shape":"circle","background_color":"#AAA","RDK_type":3,"aperture_type":2,"reinsert_type":2,"frame_rate":6.139817629179332,"frame_rate_array":[5,6,8,6,6,7,7,6,6,7,6,6,6,6,6,6,7,6,6,6,7,5,7,6,6,5,6,7,6,7,6,6,5,6,6,6,5,7,6,6,6,7,6,7,6,6,7,6,6,6,7,6,6,6,6,6,6,6,6,6,7,6,6,7,6,7,6,7,5,6,6,7,5,7,6,7,5,7,5,7,6,7,6,6,6,5,7,6,6,6,6,6,6,6,6,6,6,6,6,6,7,6,7,6,7,6,7,6,6,6,7,5,7,5,6,7,5,6,6,6,6,6,6,5,6,7,6,7,5,7,7,6,6,6,6,6,6,6,6,6,7,6,6,6,6,6,6,7,6,6,6,7,5,6,7,5,6,7,6,6,6,7,6,5,6,5,7,6,6,6,6,7,7,6,6,6,6,6,7,6,7,6,6,6,7,6,6,6,6,6,6,6,6,6,6,6,6,6,6,6,6,6,6,6,5,7,6,6,7,6,7,6,6,6,6,6,6,6,6,6,7,6,5,7,6,7,6,6,6,6,6,6,6,6,6,7,6,6,6,6,6,6,6,6,6,6,7,5,6,6,6,6,7,6,6,7,6,7,6,6,7,6,6,6,6,6,6,6,6,6,6,5,6,6,6,7,5,7,6,6,7,5,6,7,6,6,7,6,6,6,6,5,6,7,6,7,5,6,6,6,6,7,6,7,6,7,6,6,6,6,6,6,7,6,6,6,6,6,7,5,6,6,7,6,6,6,6,7,5],"number_of_frames":329,"aperture_center_x":640,"aperture_center_y":400,"fixation_cross":true,"fixation_cross_width":15,"fixation_cross_height":15,"fixation_cross_color":"#111","fixation_cross_thickness":1,"border":true,"border_thickness":2,"border_color":"transparent","canvas_width":1280,"canvas_height":800,"trial_type":"rdk","trial_index":84,"plugin_version":"2.0.0","time_elapsed":207583},{"rt":3767,"stimulus":"\n        <div class=\"response-container\">\n          <div class=\"response-instruction\">\n            <p>rotate the bar by using the left and right arrow keys.</p>\n            <p>when you are determined, press the Enter key.</p>\n          </div>\n          <div class=\"response-circle\">\n            <div class=\"response-fixation\"></div>\n            <div id=\"bar\" class=\"rotating-bar\"></div>\n          </div>\n        </div>\n      ","response":"Enter","trial_type":"html-keyboard-response","trial_index":85,"plugin_version":"2.1.0","time_elapsed":211351,"random_initial_angle":301,"response_angle_css":453,"response_angle_rdk":357,"angular_error_target":-149,"angular_error_distractor":-36,"target_direction":146,"target_group":"white","reward_points":0},{"rt":null,"stimulus":"\n          <p style=\"color: #FF3333;\">Your reward: 0 points</p>\n        ","response":null,"trial_type":"html-keyboard-response","trial_index":86,"plugin_version":"2.1.0","time_elapsed":213352},{"rt":null,"stimulus":"<div class=\"fixation\" style=\"font-size: 60px;\">+</div>","response":null,"trial_type":"html-keyboard-response","trial_index":87,"plugin_version":"2.1.0","time_elapsed":214353},{"phase":"learning-awareness","target_group":"white","condition_label":"W_H_vs_B_L_rep21","target_direction":126,"distractor_direction":13,"session_rotation":102,"rt":-1,"response":"","correct":false,"choices":"ALL_KEYS","correct_choice":["a"],"trial_duration":2000,"flip_timestamps":[],"response_ends_trial":false,"number_of_apertures":200,"number_of_dots":[1,1,1,1,1,1,1,1,1,1,1,1,1,1,1,1,1,1,1,1,1,1,1,1,1,1,1,1,1,1,1,1,1,1,1,1,1,1,1,1,1,1,1,1,1,1,1,1,1,1,1,1,1,1,1,1,1,1,1,1,1,1,1,1,1,1,1,1,1,1,1,1,1,1,1,1,1,1,1,1,1,1,1,1,1,1,1,1,1,1,1,1,1,1,1,1,1,1,1,1,1,1,1,1,1,1,1,1,1,1,1,1,1,1,1,1,1,1,1,1,1,1,1,1,1,1,1,1,1,1,1,1,1,1,1,1,1,1,1,1,1,1,1,1,1,1,1,1,1,1,1,1,1,1,1,1,1,1,1,1,1,1,1,1,1,1,1,1,1,1,1,1,1,1,1,1,1,1,1,1,1,1,1,1,1,1,1,1,1,1,1,1,1,1,1,1,1,1,1,1],"number_of_sets":1,"coherent_direction":[13,126,13,13,126,13,13,126,126,13,126,126,126,13,126,126,126,126,126,126,126,126,126,126,126,13,126,13,126,13,13,13,126,13,126,126,126,13,126,13,13,13,126,126,126,126,13,126,126,13,13,13,126,13,13,126,126,13,13,126,13,13,126,13,126,13,126,13,13,13,13,126,126,13,13,126,13,13,126,126,126,13,126,13,126,13,126,13,126,126,126,13,126,13,126,126,13,126,126,126,13,13,13,126,13,13,126,13,126,13,13,13,13,126,13,126,126,126,126,126,13,13,126,13,13,13,13,126,126,13,13,126,13,126,13,13,126,126,126,13,126,13,13,126,13,13,13,13,13,13,126,13,13,126,126,126,126,126,13,126,126,13,13,126,13,126,13,13,126,13,126,126,126,13,13,13,126,126,13,126,126,13,126,13,126,126,13,126,126,13,13,13,126,13,13,13,13,13,13,126],"coherence":1,"opposite_coherence":0,"dot_radius":2,"dot_side_length":1,"dot_life":-1,"move_distance":1,"aperture_width":300,"aperture_height":300,"dot_color":["black","white","black","black","white","black","black","white","white","black","white","white","white","black","white","white","white","white","white","white","white","white","white","white","white","black","white","black","white","black","black","black","white","black","white","white","white","black","white","black","black","black","white","white","white","white","black","white","white","black","black","black","white","black","black","white","white","black","black","white","black","black","white","black","white","black","white","black","black","black","black","white","white","black","black","white","black","black","white","white","white","black","white","black","white","black","white","black","white","white","white","black","white","black","white","white","black","white","white","white","black","black","black","white","black","black","white","black","white","black","black","black","black","white","black","white","white","white","white","white","black","black","white","black","black","black","black","white","white","black","black","white","black","white","black","black","white","white","white","black","white","black","black","white","black","black","black","black","black","black","white","black","black","white","white","white","white","white","black","white","white","black","black","white","black","white","black","black","white","black","white","white","white","black","black","black","white","white","black","white","white","black","white","black","white","white","black","white","white","black","black","black","white","black","black","black","black","black","black","white"],"dot_shape":"circle","background_color":"#AAA","RDK_type":3,"aperture_type":2,"reinsert_type":2,"frame_rate":6.139817629179332,"frame_rate_array":[3,6,5,9,5,7,6,6,7,6,5,6,6,6,6,6,6,6,7,6,6,6,6,7,5,6,7,6,7,5,7,5,7,6,7,6,6,7,6,6,5,7,7,6,6,6,6,6,7,6,6,6,6,6,7,5,7,6,6,7,6,6,7,6,6,7,6,6,6,6,7,6,7,5,7,6,6,7,5,6,7,5,7,6,7,6,7,6,6,6,6,6,6,6,6,6,5,7,6,6,6,7,6,6,6,6,6,7,6,6,6,6,6,7,5,7,6,6,5,6,7,6,6,7,6,6,6,6,6,6,6,7,5,7,6,6,6,6,6,6,6,6,6,6,7,6,6,6,7,5,7,6,6,6,6,6,6,7,5,6,6,6,6,7,6,6,6,7,5,7,7,6,6,6,6,7,6,6,7,6,6,6,6,7,6,6,6,7,6,6,6,6,6,7,6,6,6,6,6,6,6,6,7,5,7,6,6,6,6,6,6,5,6,6,5,7,5,6,6,6,5,7,6,6,6,6,7,5,7,6,6,6,7,5,6,7,6,6,6,6,6,6,6,6,6,6,7,6,6,6,7,6,7,6,6,6,7,6,6,6,6,6,6,7,5,6,6,6,5,7,6,7,5,6,7,6,6,6,6,6,6,6,7,6,6,6,7,6,7,6,7,6,6,6,6,5,6,7,6,6,6,7,6,6,7,6,7,6,6,6,6,6,6,7,6,6,6,7,6,6,7,5,6,6,7,6,6,6,6],"number_of_frames":329,"aperture_center_x":640,"aperture_center_y":400,"fixation_cross":true,"fixation_cross_width":15,"fixation_cross_height":15,"fixation_cross_color":"#111","fixation_cross_thickness":1,"border":true,"border_thickness":2,"border_color":"transparent","canvas_width":1280,"canvas_height":800,"trial_type":"rdk","trial_index":88,"plugin_version":"2.0.0","time_elapsed":216355},{"rt":2581,"stimulus":"\n        <div class=\"response-container\">\n          <div class=\"response-instruction\">\n            <p>rotate the bar by using the left and right arrow keys.</p>\n            <p>when you are determined, press the Enter key.</p>\n          </div>\n          <div class=\"response-circle\">\n            <div class=\"response-fixation\"></div>\n            <div id=\"bar\" class=\"rotating-bar\"></div>\n          </div>\n        </div>\n      ","response":"Enter","trial_type":"html-keyboard-response","trial_index":89,"plugin_version":"2.1.0","time_elapsed":218938,"random_initial_angle":252,"response_angle_css":320,"response_angle_rdk":130,"angular_error_target":4,"angular_error_distractor":117,"target_direction":126,"target_group":"white","reward_points":9},{"rt":null,"stimulus":"\n          <p style=\"color: #00FF00;\">Your reward: 9 points</p>\n        ","response":null,"trial_type":"html-keyboard-response","trial_index":90,"plugin_version":"2.1.0","time_elapsed":220938},{"rt":null,"stimulus":"<div class=\"fixation\" style=\"font-size: 60px;\">+</div>","response":null,"trial_type":"html-keyboard-response","trial_index":91,"plugin_version":"2.1.0","time_elapsed":221939},{"phase":"learning-awareness","target_group":"black","condition_label":"B_H_vs_W_L_rep4","target_direction":200,"distractor_direction":299,"session_rotation":102,"rt":-1,"response":"","correct":false,"choices":"ALL_KEYS","correct_choice":["a"],"trial_duration":2000,"flip_timestamps":[],"response_ends_trial":false,"number_of_apertures":200,"number_of_dots":[1,1,1,1,1,1,1,1,1,1,1,1,1,1,1,1,1,1,1,1,1,1,1,1,1,1,1,1,1,1,1,1,1,1,1,1,1,1,1,1,1,1,1,1,1,1,1,1,1,1,1,1,1,1,1,1,1,1,1,1,1,1,1,1,1,1,1,1,1,1,1,1,1,1,1,1,1,1,1,1,1,1,1,1,1,1,1,1,1,1,1,1,1,1,1,1,1,1,1,1,1,1,1,1,1,1,1,1,1,1,1,1,1,1,1,1,1,1,1,1,1,1,1,1,1,1,1,1,1,1,1,1,1,1,1,1,1,1,1,1,1,1,1,1,1,1,1,1,1,1,1,1,1,1,1,1,1,1,1,1,1,1,1,1,1,1,1,1,1,1,1,1,1,1,1,1,1,1,1,1,1,1,1,1,1,1,1,1,1,1,1,1,1,1,1,1,1,1,1,1],"number_of_sets":1,"coherent_direction":[299,299,299,299,200,299,200,200,200,299,299,299,299,299,299,299,200,200,299,299,200,299,200,200,200,299,200,200,200,299,299,200,299,200,299,299,200,200,299,299,200,299,200,299,299,200,299,299,200,299,299,299,200,299,200,200,200,200,299,200,200,200,299,200,200,200,299,299,299,299,200,200,299,200,200,200,200,299,299,299,200,200,299,299,299,200,299,299,299,299,200,200,299,200,200,200,299,200,200,299,200,200,200,299,299,299,200,299,200,200,299,200,299,200,200,200,299,200,200,200,200,200,200,299,299,299,200,299,200,200,200,200,299,200,299,200,299,200,200,299,299,299,299,299,299,299,200,299,200,299,299,299,200,299,299,200,200,299,200,200,299,200,299,200,200,299,200,200,299,200,299,299,299,299,200,200,200,299,200,299,299,299,200,299,200,299,299,200,299,200,200,299,200,200,200,299,200,299,200,299],"coherence":1,"opposite_coherence":0,"dot_radius":2,"dot_side_length":1,"dot_life":-1,"move_distance":1,"aperture_width":300,"aperture_height":300,"dot_color":["white","white","white","white","black","white","black","black","black","white","white","white","white","white","white","white","black","black","white","white","black","white","black","black","black","white","black","black","black","white","white","black","white","black","white","white","black","black","white","white","black","white","black","white","white","black","white","white","black","white","white","white","black","white","black","black","black","black","white","black","black","black","white","black","black","black","white","white","white","white","black","black","white","black","black","black","black","white","white","white","black","black","white","white","white","black","white","white","white","white","black","black","white","black","black","black","white","black","black","white","black","black","black","white","white","white","black","white","black","black","white","black","white","black","black","black","white","black","black","black","black","black","black","white","white","white","black","white","black","black","black","black","white","black","white","black","white","black","black","white","white","white","white","white","white","white","black","white","black","white","white","white","black","white","white","black","black","white","black","black","white","black","white","black","black","white","black","black","white","black","white","white","white","white","black","black","black","white","black","white","white","white","black","white","black","white","white","black","white","black","black","white","black","black","black","white","black","white","black","white"],"dot_shape":"circle","background_color":"#AAA","RDK_type":3,"aperture_type":2,"reinsert_type":2,"frame_rate":6.054711246200608,"frame_rate_array":[2,6,8,6,6,6,7,5,7,5,6,7,6,7,5,7,6,6,6,7,5,6,6,6,6,6,6,6,7,6,6,6,6,6,7,6,7,6,6,6,6,6,6,7,6,5,6,6,6,6,5,7,6,6,6,6,7,5,6,6,6,6,6,6,6,6,6,6,6,6,6,6,6,6,6,6,6,6,6,6,6,6,6,6,6,6,6,6,7,5,6,6,6,6,6,6,7,6,6,6,6,6,6,6,6,6,6,6,6,6,6,5,6,6,7,5,7,6,6,6,6,6,6,6,6,6,6,6,6,6,6,6,6,6,6,6,6,7,5,6,6,6,6,6,6,6,6,6,6,7,6,7,6,6,6,6,7,9,2,7,6,6,6,6,6,7,5,6,6,7,6,5,7,6,6,6,5,7,6,6,6,6,7,6,7,6,6,6,6,7,6,6,7,6,6,6,5,6,7,6,6,6,7,6,6,6,6,5,6,6,6,5,6,6,6,6,6,6,6,6,7,6,6,6,6,6,6,6,6,6,6,6,6,6,7,5,7,6,6,7,6,6,7,6,6,6,5,6,6,6,6,6,6,6,7,6,6,6,6,6,6,6,6,6,6,6,6,6,6,6,6,6,7,6,6,7,5,6,6,6,6,7,6,6,6,6,6,6,6,6,6,6,6,6,6,6,6,6,6,6,6,6,6,6,6,6,6,6,6,7,5,6,6,6,7,6,6,6,5,6,6,6,7,5,6,6,6,7,6],"number_of_frames":329,"aperture_center_x":640,"aperture_center_y":400,"fixation_cross":true,"fixation_cross_width":15,"fixation_cross_height":15,"fixation_cross_color":"#111","fixation_cross_thickness":1,"border":true,"border_thickness":2,"border_color":"transparent","canvas_width":1280,"canvas_height":800,"trial_type":"rdk","trial_index":92,"plugin_version":"2.0.0","time_elapsed":223941},{"rt":3393,"stimulus":"\n        <div class=\"response-container\">\n          <div class=\"response-instruction\">\n            <p>rotate the bar by using the left and right arrow keys.</p>\n            <p>when you are determined, press the Enter key.</p>\n          </div>\n          <div class=\"response-circle\">\n            <div class=\"response-fixation\"></div>\n            <div id=\"bar\" class=\"rotating-bar\"></div>\n          </div>\n        </div>\n      ","response":"Enter","trial_type":"html-keyboard-response","trial_index":93,"plugin_version":"2.1.0","time_elapsed":227336,"random_initial_angle":129,"response_angle_css":262,"response_angle_rdk":188,"angular_error_target":-12,"angular_error_distractor":-111,"target_direction":200,"target_group":"black","reward_points":7},{"rt":null,"stimulus":"\n          <p style=\"color: #00FF00;\">Your reward: 7 points</p>\n        ","response":null,"trial_type":"html-keyboard-response","trial_index":94,"plugin_version":"2.1.0","time_elapsed":229337},{"rt":null,"stimulus":"<div class=\"fixation\" style=\"font-size: 60px;\">+</div>","response":null,"trial_type":"html-keyboard-response","trial_index":95,"plugin_version":"2.1.0","time_elapsed":230338},{"phase":"learning-awareness","target_group":"black","condition_label":"B_H_vs_W_L_rep22","target_direction":194,"distractor_direction":325,"session_rotation":102,"rt":-1,"response":"","correct":false,"choices":"ALL_KEYS","correct_choice":["a"],"trial_duration":2000,"flip_timestamps":[],"response_ends_trial":false,"number_of_apertures":200,"number_of_dots":[1,1,1,1,1,1,1,1,1,1,1,1,1,1,1,1,1,1,1,1,1,1,1,1,1,1,1,1,1,1,1,1,1,1,1,1,1,1,1,1,1,1,1,1,1,1,1,1,1,1,1,1,1,1,1,1,1,1,1,1,1,1,1,1,1,1,1,1,1,1,1,1,1,1,1,1,1,1,1,1,1,1,1,1,1,1,1,1,1,1,1,1,1,1,1,1,1,1,1,1,1,1,1,1,1,1,1,1,1,1,1,1,1,1,1,1,1,1,1,1,1,1,1,1,1,1,1,1,1,1,1,1,1,1,1,1,1,1,1,1,1,1,1,1,1,1,1,1,1,1,1,1,1,1,1,1,1,1,1,1,1,1,1,1,1,1,1,1,1,1,1,1,1,1,1,1,1,1,1,1,1,1,1,1,1,1,1,1,1,1,1,1,1,1,1,1,1,1,1,1],"number_of_sets":1,"coherent_direction":[194,325,194,194,325,194,325,194,325,325,325,325,194,194,194,325,325,325,325,194,194,325,325,194,194,325,325,325,194,194,325,194,194,194,194,194,194,194,325,325,325,194,325,194,194,194,194,325,194,325,194,194,325,325,325,194,325,325,194,194,194,325,325,325,194,325,325,325,325,325,325,194,194,325,194,325,194,194,325,325,194,194,325,325,325,325,194,194,194,194,325,325,325,325,194,325,194,325,194,194,325,325,194,325,194,325,325,194,325,325,325,194,325,194,325,194,194,194,194,194,194,325,194,194,325,325,194,325,194,325,325,325,325,194,194,325,325,325,325,325,194,325,325,194,194,194,194,194,194,194,325,325,325,194,194,194,194,194,194,325,194,194,325,325,325,194,194,325,194,194,325,194,325,325,325,325,325,194,325,325,194,194,194,194,325,194,325,325,194,194,325,194,194,325,325,194,325,194,194,325],"coherence":1,"opposite_coherence":0,"dot_radius":2,"dot_side_length":1,"dot_life":-1,"move_distance":1,"aperture_width":300,"aperture_height":300,"dot_color":["black","white","black","black","white","black","white","black","white","white","white","white","black","black","black","white","white","white","white","black","black","white","white","black","black","white","white","white","black","black","white","black","black","black","black","black","black","black","white","white","white","black","white","black","black","black","black","white","black","white","black","black","white","white","white","black","white","white","black","black","black","white","white","white","black","white","white","white","white","white","white","black","black","white","black","white","black","black","white","white","black","black","white","white","white","white","black","black","black","black","white","white","white","white","black","white","black","white","black","black","white","white","black","white","black","white","white","black","white","white","white","black","white","black","white","black","black","black","black","black","black","white","black","black","white","white","black","white","black","white","white","white","white","black","black","white","white","white","white","white","black","white","white","black","black","black","black","black","black","black","white","white","white","black","black","black","black","black","black","white","black","black","white","white","white","black","black","white","black","black","white","black","white","white","white","white","white","black","white","white","black","black","black","black","white","black","white","white","black","black","white","black","black","white","white","black","white","black","black","white"],"dot_shape":"circle","background_color":"#AAA","RDK_type":3,"aperture_type":2,"reinsert_type":2,"frame_rate":6.130699088145897,"frame_rate_array":[4,5,6,8,6,6,6,6,7,6,6,7,6,6,6,6,7,5,7,7,5,6,6,6,7,6,6,6,6,6,7,5,6,6,7,6,6,7,6,6,7,6,6,6,6,7,5,6,6,6,7,6,6,7,6,6,5,6,7,6,6,7,6,6,7,6,6,6,7,6,6,7,6,6,6,6,6,7,6,7,6,6,6,7,6,6,6,6,6,6,6,6,7,6,7,6,7,6,6,6,6,6,6,6,6,7,6,6,7,6,6,6,6,6,7,6,7,5,7,6,6,6,7,5,7,5,6,7,5,6,6,6,6,6,6,6,6,6,6,6,6,6,6,7,6,6,6,7,5,6,6,6,7,6,6,6,6,6,6,6,6,7,6,6,7,6,6,6,6,6,6,6,5,6,6,6,6,7,6,6,6,7,5,6,6,6,7,6,6,6,6,6,6,6,6,6,7,6,6,6,7,6,6,6,6,6,6,6,7,6,6,7,6,6,6,6,6,6,7,6,6,6,5,7,6,5,7,6,6,6,6,7,6,6,6,6,6,6,6,6,6,6,5,7,6,6,6,7,6,6,6,6,6,6,7,6,6,6,6,6,6,6,6,7,5,7,6,6,7,6,6,7,6,6,6,6,6,6,7,6,6,6,6,7,6,6,6,6,6,6,6,7,6,6,6,6,6,6,6,6,6,6,6,6,6,6,6,6,6,6,6,6,6,6,6,6,6,6,6,7,6,6,7,6,6,6,6,6,6],"number_of_frames":329,"aperture_center_x":640,"aperture_center_y":400,"fixation_cross":true,"fixation_cross_width":15,"fixation_cross_height":15,"fixation_cross_color":"#111","fixation_cross_thickness":1,"border":true,"border_thickness":2,"border_color":"transparent","canvas_width":1280,"canvas_height":800,"trial_type":"rdk","trial_index":96,"plugin_version":"2.0.0","time_elapsed":232340},{"rt":2407,"stimulus":"\n        <div class=\"response-container\">\n          <div class=\"response-instruction\">\n            <p>rotate the bar by using the left and right arrow keys.</p>\n            <p>when you are determined, press the Enter key.</p>\n          </div>\n          <div class=\"response-circle\">\n            <div class=\"response-fixation\"></div>\n            <div id=\"bar\" class=\"rotating-bar\"></div>\n          </div>\n        </div>\n      ","response":"Enter","trial_type":"html-keyboard-response","trial_index":97,"plugin_version":"2.1.0","time_elapsed":234748,"random_initial_angle":232,"response_angle_css":261,"response_angle_rdk":189,"angular_error_target":-5,"angular_error_distractor":-136,"target_direction":194,"target_group":"black","reward_points":9},{"rt":null,"stimulus":"\n          <p style=\"color: #00FF00;\">Your reward: 9 points</p>\n        ","response":null,"trial_type":"html-keyboard-response","trial_index":98,"plugin_version":"2.1.0","time_elapsed":236748},{"rt":null,"stimulus":"<div class=\"fixation\" style=\"font-size: 60px;\">+</div>","response":null,"trial_type":"html-keyboard-response","trial_index":99,"plugin_version":"2.1.0","time_elapsed":237749},{"phase":"learning-awareness","target_group":"white","condition_label":"W_H_vs_B_L_rep17","target_direction":134,"distractor_direction":21,"session_rotation":102,"rt":-1,"response":"","correct":false,"choices":"ALL_KEYS","correct_choice":["a"],"trial_duration":2000,"flip_timestamps":[],"response_ends_trial":false,"number_of_apertures":200,"number_of_dots":[1,1,1,1,1,1,1,1,1,1,1,1,1,1,1,1,1,1,1,1,1,1,1,1,1,1,1,1,1,1,1,1,1,1,1,1,1,1,1,1,1,1,1,1,1,1,1,1,1,1,1,1,1,1,1,1,1,1,1,1,1,1,1,1,1,1,1,1,1,1,1,1,1,1,1,1,1,1,1,1,1,1,1,1,1,1,1,1,1,1,1,1,1,1,1,1,1,1,1,1,1,1,1,1,1,1,1,1,1,1,1,1,1,1,1,1,1,1,1,1,1,1,1,1,1,1,1,1,1,1,1,1,1,1,1,1,1,1,1,1,1,1,1,1,1,1,1,1,1,1,1,1,1,1,1,1,1,1,1,1,1,1,1,1,1,1,1,1,1,1,1,1,1,1,1,1,1,1,1,1,1,1,1,1,1,1,1,1,1,1,1,1,1,1,1,1,1,1,1,1],"number_of_sets":1,"coherent_direction":[21,134,134,134,21,134,134,21,134,21,21,134,134,134,134,134,21,21,134,134,21,21,134,134,134,134,21,134,134,21,134,21,134,21,134,21,21,21,21,21,134,21,134,21,21,21,134,134,134,134,21,134,21,134,21,21,21,21,134,21,134,134,134,134,134,21,21,21,21,21,134,134,21,21,134,21,21,21,21,21,21,21,134,21,21,21,134,21,21,134,21,21,134,21,134,21,134,134,134,134,134,21,21,134,21,134,134,134,21,21,134,21,134,21,21,134,134,134,21,21,134,134,134,134,134,134,21,21,21,134,21,134,134,134,134,21,21,21,21,21,134,21,21,134,21,134,134,134,21,21,21,134,21,134,134,134,134,21,21,134,134,134,21,21,134,134,134,134,21,21,134,134,134,21,134,134,134,21,134,21,134,134,21,21,134,21,21,21,21,21,21,134,134,21,21,21,21,134,134,21],"coherence":1,"opposite_coherence":0,"dot_radius":2,"dot_side_length":1,"dot_life":-1,"move_distance":1,"aperture_width":300,"aperture_height":300,"dot_color":["black","white","white","white","black","white","white","black","white","black","black","white","white","white","white","white","black","black","white","white","black","black","white","white","white","white","black","white","white","black","white","black","white","black","white","black","black","black","black","black","white","black","white","black","black","black","white","white","white","white","black","white","black","white","black","black","black","black","white","black","white","white","white","white","white","black","black","black","black","black","white","white","black","black","white","black","black","black","black","black","black","black","white","black","black","black","white","black","black","white","black","black","white","black","white","black","white","white","white","white","white","black","black","white","black","white","white","white","black","black","white","black","white","black","black","white","white","white","black","black","white","white","white","white","white","white","black","black","black","white","black","white","white","white","white","black","black","black","black","black","white","black","black","white","black","white","white","white","black","black","black","white","black","white","white","white","white","black","black","white","white","white","black","black","white","white","white","white","black","black","white","white","white","black","white","white","white","black","white","black","white","white","black","black","white","black","black","black","black","black","black","white","white","black","black","black","black","white","white","black"],"dot_shape":"circle","background_color":"#AAA","RDK_type":3,"aperture_type":2,"reinsert_type":2,"frame_rate":6.139817629179332,"frame_rate_array":[2,6,7,6,6,6,7,6,6,6,6,6,6,6,6,6,6,6,6,6,6,6,6,6,6,6,6,6,7,6,6,6,6,6,6,6,6,6,6,6,6,6,6,7,6,7,6,6,7,5,6,6,6,6,7,5,6,6,6,7,6,6,7,6,6,6,6,6,6,7,7,5,6,6,6,6,7,6,6,7,6,6,6,6,6,6,6,6,7,6,6,6,6,6,6,6,7,6,6,6,6,6,6,6,7,