[{"rt":15277,"stimulus":"Welcome to the experiment. Press any key to begin.","response":"j","trial_type":"html-keyboard-response","trial_index":0,"plugin_version":"2.1.0","time_elapsed":15280},{"rt":167861,"stimulus":"\n        <div class=\"instructions-container\">\n          <h2>Instructions</h2>\n\n          <p>\n          In this experiment, you will see <strong>two Random Dot Kinematograms (RDKs)</strong> displayed simultaneously.\n          </p>\n\n          <p>\n          An RDK is a visual stimulus consisting of many small dots that move coherently in a single direction. \n          In this experiment, the dots will be either <strong>white</strong> or <strong>black</strong> \n          (see the short demo below for an example of an RDK stimulus).\n          </p>\n\n          <p>\n          On each trial, the two RDKs will move in different directions. \n          Your task is to decide <strong>which RDK appears to contain more dots</strong>.\n          </p>\n\n          <p>\n          The RDK that you judge to have more dots is called the <strong>target RDK</strong>. \n          For example, if the white RDK appears to have more dots than the black RDK, \n          you should report the motion direction of the white RDK.\n          </p>\n\n          <p>\n          After viewing the RDKs, you will rotate a bar to indicate the perceived direction of the target RDK \n          using the <strong>left</strong> and <strong>right arrow keys</strong>. \n          Press <strong>Enter</strong> when you are satisfied with your response.\n          </p>\n\n          <p>\n          You will receive points based on the <strong>accuracy of your response</strong>, \n          and your final <strong>bonus reward</strong> may depend on your overall performance. \n          Please try to respond as accurately as possible.\n          </p>\n\n          <p>\n          You will first complete <strong>three practice trials</strong>. \n          Press the <strong>Enter</strong> key to start the practice phase.\n          </p>\n\n          <canvas id=\"instruction-demo-rdk\" width=\"300\" height=\"300\"style=\"display:block;margin:12px auto; border-radius: 50%;\"></canvas>\n        </div>\n      ","response":"Enter","trial_type":"html-keyboard-response","trial_index":1,"plugin_version":"2.1.0","time_elapsed":183142},{"rt":null,"stimulus":"<div class=\"fixation\" style=\"font-size: 60px;\">+</div>","response":null,"trial_type":"html-keyboard-response","trial_index":2,"plugin_version":"2.1.0","time_elapsed":184143},{"target_group":"black","target_index":1,"condition_label":"B_H_vs_W_L","rt":-1,"response":"","correct":false,"choices":"ALL_KEYS","correct_choice":["a"],"trial_duration":2000,"flip_timestamps":[],"response_ends_trial":false,"number_of_apertures":2,"number_of_dots":[50,100],"number_of_sets":1,"coherent_direction":[10,100],"coherence":1,"opposite_coherence":0,"dot_radius":2,"dot_side_length":1,"dot_life":-1,"move_distance":1,"aperture_width":300,"aperture_height":300,"dot_color":["white","black"],"dot_shape":"circle","background_color":"#AAA","RDK_type":3,"aperture_type":2,"reinsert_type":2,"frame_rate":16.85,"frame_rate_array":[15,17,17,17,17,17,17,17,17,17,17,16,16,17,16,17,17,17,17,17,17,17,17,17,17,17,17,17,16,18,16,17,17,17,17,17,17,17,16,17,17,17,17,17,16,17,17,17,17,17,17,17,16,17,17,17,16,17,16,17,17,17,17,17,17,17,17,17,17,17,17,17,16,16,17,17,17,17,17,17,17,17,17,17,17,17,16,17,17,17,17,17,17,17,17,17,17,17,18,17,16,16,17,17,16,17,17,17,16,17,17,17,17,17,17,16,17,17,17,17],"number_of_frames":120,"aperture_center_x":960,"aperture_center_y":540,"fixation_cross":true,"fixation_cross_width":15,"fixation_cross_height":15,"fixation_cross_color":"#111","fixation_cross_thickness":1,"border":true,"border_thickness":2,"border_color":"transparent","canvas_width":1920,"canvas_height":1080,"trial_type":"rdk","trial_index":3,"plugin_version":"2.0.0","time_elapsed":186160,"target_direction":100,"distractor_direction":10},{"rt":11427,"stimulus":"\n        <div class=\"response-container\">\n          <div class=\"response-instruction\">\n            <p>rotate the bar by using the left and right arrow keys.</p>\n            <p>when you are determined, press the Enter key.</p>\n          </div>\n          <div class=\"response-circle\">\n            <div class=\"response-fixation\"></div>\n            <div id=\"bar\" class=\"rotating-bar\"></div>\n          </div>\n        </div>\n      ","response":"Enter","trial_type":"html-keyboard-response","trial_index":4,"plugin_version":"2.1.0","time_elapsed":197589,"response_angle_css":124,"response_angle_rdk":326,"angular_error_target":-134,"angular_error_distractor":-44,"target_direction":100,"target_group":"black","reward_points":0},{"rt":null,"stimulus":"\n          <p style=\"color: #FF3333;\">Your reward: 0 points</p>\n        ","response":null,"trial_type":"html-keyboard-response","trial_index":5,"plugin_version":"2.1.0","time_elapsed":199600},{"rt":null,"stimulus":"<div class=\"fixation\" style=\"font-size: 60px;\">+</div>","response":null,"trial_type":"html-keyboard-response","trial_index":6,"plugin_version":"2.1.0","time_elapsed":200607},{"target_group":"white","target_index":0,"condition_label":"W_H_vs_B_L","rt":-1,"response":"","correct":false,"choices":"ALL_KEYS","correct_choice":["a"],"trial_duration":2000,"flip_timestamps":[],"response_ends_trial":false,"number_of_apertures":2,"number_of_dots":[100,50],"number_of_sets":1,"coherent_direction":[150,30],"coherence":1,"opposite_coherence":0,"dot_radius":2,"dot_side_length":1,"dot_life":-1,"move_distance":1,"aperture_width":300,"aperture_height":300,"dot_color":["white","black"],"dot_shape":"circle","background_color":"#AAA","RDK_type":3,"aperture_type":2,"reinsert_type":2,"frame_rate":16.710743801652892,"frame_rate_array":[2,16,17,17,19,15,17,17,17,17,17,17,17,17,16,17,17,17,16,17,17,17,17,16,17,17,17,16,17,17,17,17,16,17,17,17,16,17,17,17,17,17,17,16,17,16,17,17,17,17,17,17,17,17,17,17,17,17,17,17,17,16,17,17,17,17,17,17,17,17,17,17,17,17,17,16,17,17,17,17,17,17,17,15,17,17,16,17,17,17,17,16,16,16,17,16,17,17,17,17,17,17,17,17,17,17,16,16,17,17,17,17,17,18,16,17,17,17,17,17,17],"number_of_frames":121,"aperture_center_x":960,"aperture_center_y":540,"fixation_cross":true,"fixation_cross_width":15,"fixation_cross_height":15,"fixation_cross_color":"#111","fixation_cross_thickness":1,"border":true,"border_thickness":2,"border_color":"transparent","canvas_width":1920,"canvas_height":1080,"trial_type":"rdk","trial_index":7,"plugin_version":"2.0.0","time_elapsed":202612,"target_direction":150,"distractor_direction":30},{"rt":4623,"stimulus":"\n        <div class=\"response-container\">\n          <div class=\"response-instruction\">\n            <p>rotate the bar by using the left and right arrow keys.</p>\n            <p>when you are determined, press the Enter key.</p>\n          </div>\n          <div class=\"response-circle\">\n            <div class=\"response-fixation\"></div>\n            <div id=\"bar\" class=\"rotating-bar\"></div>\n          </div>\n        </div>\n      ","response":"Enter","trial_type":"html-keyboard-response","trial_index":8,"plugin_version":"2.1.0","time_elapsed":207236,"response_angle_css":427,"response_angle_rdk":23,"angular_error_target":-127,"angular_error_distractor":-7,"target_direction":150,"target_group":"white","reward_points":0},{"rt":null,"stimulus":"\n          <p style=\"color: #FF3333;\">Your reward: 0 points</p>\n        ","response":null,"trial_type":"html-keyboard-response","trial_index":9,"plugin_version":"2.1.0","time_elapsed":209245},{"rt":null,"stimulus":"<div class=\"fixation\" style=\"font-size: 60px;\">+</div>","response":null,"trial_type":"html-keyboard-response","trial_index":10,"plugin_version":"2.1.0","time_elapsed":210250},{"target_group":"black","target_index":1,"condition_label":"B_H_vs_W_L","rt":-1,"response":"","correct":false,"choices":"ALL_KEYS","correct_choice":["a"],"trial_duration":2000,"flip_timestamps":[],"response_ends_trial":false,"number_of_apertures":2,"number_of_dots":[50,100],"number_of_sets":1,"coherent_direction":[270,180],"coherence":1,"opposite_coherence":0,"dot_radius":2,"dot_side_length":1,"dot_life":-1,"move_distance":1,"aperture_width":300,"aperture_height":300,"dot_color":["white","black"],"dot_shape":"circle","background_color":"#AAA","RDK_type":3,"aperture_type":2,"reinsert_type":2,"frame_rate":16.85,"frame_rate_array":[9,17,17,17,17,17,17,17,17,17,17,17,17,17,17,17,19,15,17,17,17,17,16,17,16,17,17,17,17,17,17,16,17,17,17,17,17,17,16,17,17,17,17,16,17,17,17,17,17,17,17,17,17,17,17,17,17,17,17,17,17,16,17,16,17,17,17,17,17,17,17,17,17,17,17,17,17,17,17,17,17,17,17,17,17,17,17,17,17,16,17,17,17,17,17,17,17,17,17,17,17,17,17,17,17,17,17,17,16,17,17,17,17,17,17,17,17,17,16,17],"number_of_frames":120,"aperture_center_x":960,"aperture_center_y":540,"fixation_cross":true,"fixation_cross_width":15,"fixation_cross_height":15,"fixation_cross_color":"#111","fixation_cross_thickness":1,"border":true,"border_thickness":2,"border_color":"transparent","canvas_width":1920,"canvas_height":1080,"trial_type":"rdk","trial_index":11,"plugin_version":"2.0.0","time_elapsed":212257,"target_direction":180,"distractor_direction":270},{"rt":3507,"stimulus":"\n        <div class=\"response-container\">\n          <div class=\"response-instruction\">\n            <p>rotate the bar by using the left and right arrow keys.</p>\n            <p>when you are determined, press the Enter key.</p>\n          </div>\n          <div class=\"response-circle\">\n            <div class=\"response-fixation\"></div>\n            <div id=\"bar\" class=\"rotating-bar\"></div>\n          </div>\n        </div>\n      ","response":"Enter","trial_type":"html-keyboard-response","trial_index":12,"plugin_version":"2.1.0","time_elapsed":215765,"response_angle_css":167,"response_angle_rdk":283,"angular_error_target":103,"angular_error_distractor":13,"target_direction":180,"target_group":"black","reward_points":0},{"rt":null,"stimulus":"\n          <p style=\"color: #FF3333;\">Your reward: 0 points</p>\n        ","response":null,"trial_type":"html-keyboard-response","trial_index":13,"plugin_version":"2.1.0","time_elapsed":217782},{"rt":2147,"stimulus":"\n        <div class=\"instructions-container\">\n          <h2>End of Practice</h2>\n          <p>You have completed the practice trials.</p>\n          <p>Press <strong>Enter</strong> key to begin the main experiment.</p>\n        </div>\n      ","response":"Enter","trial_type":"html-keyboard-response","trial_index":14,"plugin_version":"2.1.0","time_elapsed":219930},{"rt":null,"stimulus":"<div class=\"fixation\" style=\"font-size: 60px;\">+</div>","response":null,"trial_type":"html-keyboard-response","trial_index":15,"plugin_version":"2.1.0","time_elapsed":220935},{"target_group":"white","condition_label":"W_H_vs_B_L_rep3","target_direction":129,"distractor_direction":35,"session_rotation":120,"rt":-1,"response":"","correct":false,"choices":"ALL_KEYS","correct_choice":["a"],"trial_duration":2000,"flip_timestamps":[],"response_ends_trial":false,"number_of_apertures":200,"number_of_dots":[1,1,1,1,1,1,1,1,1,1,1,1,1,1,1,1,1,1,1,1,1,1,1,1,1,1,1,1,1,1,1,1,1,1,1,1,1,1,1,1,1,1,1,1,1,1,1,1,1,1,1,1,1,1,1,1,1,1,1,1,1,1,1,1,1,1,1,1,1,1,1,1,1,1,1,1,1,1,1,1,1,1,1,1,1,1,1,1,1,1,1,1,1,1,1,1,1,1,1,1,1,1,1,1,1,1,1,1,1,1,1,1,1,1,1,1,1,1,1,1,1,1,1,1,1,1,1,1,1,1,1,1,1,1,1,1,1,1,1,1,1,1,1,1,1,1,1,1,1,1,1,1,1,1,1,1,1,1,1,1,1,1,1,1,1,1,1,1,1,1,1,1,1,1,1,1,1,1,1,1,1,1,1,1,1,1,1,1,1,1,1,1,1,1,1,1,1,1,1,1],"number_of_sets":1,"coherent_direction":[129,129,129,35,129,35,35,129,35,129,129,35,35,35,35,129,129,35,35,129,35,35,35,35,129,129,129,35,129,129,129,129,35,129,35,35,129,35,129,35,35,129,35,35,129,35,35,35,35,35,35,35,35,129,129,129,35,129,35,129,129,129,129,35,35,129,129,35,129,35,129,129,129,35,129,129,129,35,129,129,35,35,129,35,129,129,129,35,129,35,129,35,129,35,35,129,129,129,35,129,35,129,35,129,129,35,129,129,129,129,129,35,35,35,129,35,35,35,129,129,129,129,35,35,129,35,129,129,35,129,129,129,35,35,129,129,35,35,35,129,35,35,35,35,35,129,129,35,35,35,129,35,129,35,35,129,129,129,129,129,129,129,35,35,35,129,35,129,35,35,35,129,35,129,35,129,35,35,129,35,35,129,35,35,129,35,129,129,129,35,129,35,35,35,35,35,129,129,35,129],"coherence":1,"opposite_coherence":0,"dot_radius":2,"dot_side_length":1,"dot_life":-1,"move_distance":1,"aperture_width":300,"aperture_height":300,"dot_color":["white","white","white","black","white","black","black","white","black","white","white","black","black","black","black","white","white","black","black","white","black","black","black","black","white","white","white","black","white","white","white","white","black","white","black","black","white","black","white","black","black","white","black","black","white","black","black","black","black","black","black","black","black","white","white","white","black","white","black","white","white","white","white","black","black","white","white","black","white","black","white","white","white","black","white","white","white","black","white","white","black","black","white","black","white","white","white","black","white","black","white","black","white","black","black","white","white","white","black","white","black","white","black","white","white","black","white","white","white","white","white","black","black","black","white","black","black","black","white","white","white","white","black","black","white","black","white","white","black","white","white","white","black","black","white","white","black","black","black","white","black","black","black","black","black","white","white","black","black","black","white","black","white","black","black","white","white","white","white","white","white","white","black","black","black","white","black","white","black","black","black","white","black","white","black","white","black","black","white","black","black","white","black","black","white","black","white","white","white","black","white","black","black","black","black","black","white","white","black","white"],"dot_shape":"circle","background_color":"#AAA","RDK_type":3,"aperture_type":2,"reinsert_type":2,"frame_rate":16.816666666666666,"frame_rate_array":[7,17,17,17,17,17,17,17,17,17,16,16,17,17,17,17,16,17,17,17,17,17,17,17,17,17,17,17,17,17,17,17,17,17,17,17,17,16,16,17,17,17,17,17,17,17,17,17,17,17,17,17,16,17,17,17,17,17,17,17,17,17,17,17,17,17,17,17,17,17,17,16,17,17,17,17,17,17,17,17,16,17,17,17,17,17,17,17,16,17,17,17,17,17,17,17,16,17,17,17,17,16,17,17,17,17,17,17,17,17,17,17,17,17,17,17,16,17,17,17],"number_of_frames":120,"aperture_center_x":960,"aperture_center_y":540,"fixation_cross":true,"fixation_cross_width":15,"fixation_cross_height":15,"fixation_cross_color":"#111","fixation_cross_thickness":1,"border":true,"border_thickness":2,"border_color":"transparent","canvas_width":1920,"canvas_height":1080,"trial_type":"rdk","trial_index":16,"plugin_version":"2.0.0","time_elapsed":222942},{"rt":3183,"stimulus":"\n        <div class=\"response-container\">\n          <div class=\"response-instruction\">\n            <p>rotate the bar by using the left and right arrow keys.</p>\n            <p>when you are determined, press the Enter key.</p>\n          </div>\n          <div class=\"response-circle\">\n            <div class=\"response-fixation\"></div>\n            <div id=\"bar\" class=\"rotating-bar\"></div>\n          </div>\n        </div>\n      ","response":"Enter","trial_type":"html-keyboard-response","trial_index":17,"plugin_version":"2.1.0","time_elapsed":226126,"response_angle_css":51,"response_angle_rdk":39,"angular_error_target":-90,"angular_error_distractor":4,"target_direction":129,"target_group":"white","reward_points":0},{"rt":null,"stimulus":"\n          <p style=\"color: #FF3333;\">Your reward: 0 points</p>\n        ","response":null,"trial_type":"html-keyboard-response","trial_index":18,"plugin_version":"2.1.0","time_elapsed":228139},{"rt":null,"stimulus":"<div class=\"fixation\" style=\"font-size: 60px;\">+</div>","response":null,"trial_type":"html-keyboard-response","trial_index":19,"plugin_version":"2.1.0","time_elapsed":229156},{"target_group":"black","condition_label":"B_H_vs_W_L_rep23","target_direction":237,"distractor_direction":344,"session_rotation":120,"rt":-1,"response":"","correct":false,"choices":"ALL_KEYS","correct_choice":["a"],"trial_duration":2000,"flip_timestamps":[],"response_ends_trial":false,"number_of_apertures":200,"number_of_dots":[1,1,1,1,1,1,1,1,1,1,1,1,1,1,1,1,1,1,1,1,1,1,1,1,1,1,1,1,1,1,1,1,1,1,1,1,1,1,1,1,1,1,1,1,1,1,1,1,1,1,1,1,1,1,1,1,1,1,1,1,1,1,1,1,1,1,1,1,1,1,1,1,1,1,1,1,1,1,1,1,1,1,1,1,1,1,1,1,1,1,1,1,1,1,1,1,1,1,1,1,1,1,1,1,1,1,1,1,1,1,1,1,1,1,1,1,1,1,1,1,1,1,1,1,1,1,1,1,1,1,1,1,1,1,1,1,1,1,1,1,1,1,1,1,1,1,1,1,1,1,1,1,1,1,1,1,1,1,1,1,1,1,1,1,1,1,1,1,1,1,1,1,1,1,1,1,1,1,1,1,1,1,1,1,1,1,1,1,1,1,1,1,1,1,1,1,1,1,1,1],"number_of_sets":1,"coherent_direction":[237,237,344,344,344,344,237,344,344,237,344,237,237,237,344,237,344,344,237,237,237,344,237,237,344,237,344,344,237,237,344,344,237,344,237,237,237,237,237,344,237,237,237,237,237,237,237,344,344,237,344,237,344,344,237,344,237,344,344,344,344,237,344,344,237,344,237,344,344,344,237,344,344,344,344,237,344,237,344,344,237,344,344,237,237,344,237,237,344,344,237,344,237,237,237,344,237,237,344,344,237,344,344,344,344,237,237,237,237,344,344,344,344,237,344,237,344,237,237,344,344,344,237,237,237,344,237,344,344,344,344,237,237,344,344,237,344,344,237,344,237,344,237,237,344,344,237,237,344,237,237,237,237,344,344,237,237,237,344,237,344,344,344,237,344,237,344,344,344,344,237,237,237,344,344,237,344,237,237,344,237,237,237,344,237,344,344,344,237,237,237,237,237,237,237,344,344,344,344,237],"coherence":1,"opposite_coherence":0,"dot_radius":2,"dot_side_length":1,"dot_life":-1,"move_distance":1,"aperture_width":300,"aperture_height":300,"dot_color":["black","black","white","white","white","white","black","white","white","black","white","black","black","black","white","black","white","white","black","black","black","white","black","black","white","black","white","white","black","black","white","white","black","white","black","black","black","black","black","white","black","black","black","black","black","black","black","white","white","black","white","black","white","white","black","white","black","white","white","white","white","black","white","white","black","white","black","white","white","white","black","white","white","white","white","black","white","black","white","white","black","white","white","black","black","white","black","black","white","white","black","white","black","black","black","white","black","black","white","white","black","white","white","white","white","black","black","black","black","white","white","white","white","black","white","black","white","black","black","white","white","white","black","black","black","white","black","white","white","white","white","black","black","white","white","black","white","white","black","white","black","white","black","black","white","white","black","black","white","black","black","black","black","white","white","black","black","black","white","black","white","white","white","black","white","black","white","white","white","white","black","black","black","white","white","black","white","black","black","white","black","black","black","white","black","white","white","white","black","black","black","black","black","black","black","white","white","white","white","black"],"dot_shape":"circle","background_color":"#AAA","RDK_type":3,"aperture_type":2,"reinsert_type":2,"frame_rate":16.826446280991735,"frame_rate_array":[2,17,17,17,17,17,17,17,17,17,17,17,17,17,17,17,17,17,17,17,17,17,17,17,17,17,17,17,17,17,17,17,17,17,16,17,17,17,17,17,17,17,17,17,17,17,17,17,17,17,16,17,17,17,17,17,17,17,17,17,17,17,17,16,17,17,16,17,17,17,17,17,17,17,17,17,17,17,17,17,17,17,17,18,15,17,17,17,17,17,17,17,17,17,17,17,17,17,19,16,16,17,17,16,17,17,17,17,17,17,17,17,17,17,17,17,17,17,17,17,17],"number_of_frames":121,"aperture_center_x":960,"aperture_center_y":540,"fixation_cross":true,"fixation_cross_width":15,"fixation_cross_height":15,"fixation_cross_color":"#111","fixation_cross_thickness":1,"border":true,"border_thickness":2,"border_color":"transparent","canvas_width":1920,"canvas_height":1080,"trial_type":"rdk","trial_index":20,"plugin_version":"2.0.0","time_elapsed":231164},{"rt":3024,"stimulus":"\n        <div class=\"response-container\">\n          <div class=\"response-instruction\">\n            <p>rotate the bar by using the left and right arrow keys.</p>\n            <p>when you are determined, press the Enter key.</p>\n          </div>\n          <div class=\"response-circle\">\n            <div class=\"response-fixation\"></div>\n            <div id=\"bar\" class=\"rotating-bar\"></div>\n          </div>\n        </div>\n      ","response":"Enter","trial_type":"html-keyboard-response","trial_index":21,"plugin_version":"2.1.0","time_elapsed":234189,"response_angle_css":108,"response_angle_rdk":342,"angular_error_target":105,"angular_error_distractor":-2,"target_direction":237,"target_group":"black","reward_points":0},{"rt":null,"stimulus":"\n          <p style=\"color: #FF3333;\">Your reward: 0 points</p>\n        ","response":null,"trial_type":"html-keyboard-response","trial_index":22,"plugin_version":"2.1.0","time_elapsed":236191},{"rt":null,"stimulus":"<div class=\"fixation\" style=\"font-size: 60px;\">+</div>","response":null,"trial_type":"html-keyboard-response","trial_index":23,"plugin_version":"2.1.0","time_elapsed":237198},{"target_group":"black","condition_label":"B_H_vs_W_L_rep7","target_direction":226,"distractor_direction":323,"session_rotation":120,"rt":-1,"response":"","correct":false,"choices":"ALL_KEYS","correct_choice":["a"],"trial_duration":2000,"flip_timestamps":[],"response_ends_trial":false,"number_of_apertures":200,"number_of_dots":[1,1,1,1,1,1,1,1,1,1,1,1,1,1,1,1,1,1,1,1,1,1,1,1,1,1,1,1,1,1,1,1,1,1,1,1,1,1,1,1,1,1,1,1,1,1,1,1,1,1,1,1,1,1,1,1,1,1,1,1,1,1,1,1,1,1,1,1,1,1,1,1,1,1,1,1,1,1,1,1,1,1,1,1,1,1,1,1,1,1,1,1,1,1,1,1,1,1,1,1,1,1,1,1,1,1,1,1,1,1,1,1,1,1,1,1,1,1,1,1,1,1,1,1,1,1,1,1,1,1,1,1,1,1,1,1,1,1,1,1,1,1,1,1,1,1,1,1,1,1,1,1,1,1,1,1,1,1,1,1,1,1,1,1,1,1,1,1,1,1,1,1,1,1,1,1,1,1,1,1,1,1,1,1,1,1,1,1,1,1,1,1,1,1,1,1,1,1,1,1],"number_of_sets":1,"coherent_direction":[226,323,323,226,226,323,323,226,226,226,323,323,323,226,323,226,226,323,323,226,226,323,323,226,323,226,323,323,323,323,323,226,323,226,226,323,226,226,323,226,323,323,226,226,226,323,323,226,226,226,226,323,226,226,226,323,323,323,226,226,323,226,323,226,323,226,226,323,323,226,323,226,226,226,323,226,323,226,226,323,226,226,226,323,226,323,226,323,226,323,323,226,323,323,323,323,226,323,226,323,226,323,323,226,323,323,323,226,323,226,226,226,226,226,323,323,226,226,323,323,226,226,226,226,226,323,323,323,226,323,226,323,226,226,226,323,226,323,226,323,323,226,226,323,226,323,323,323,323,323,323,323,226,323,226,323,323,226,226,226,226,226,323,323,323,226,323,226,226,226,323,226,323,226,323,226,226,323,323,226,226,226,226,323,323,323,323,226,323,323,323,226,226,323,323,226,323,226,323,323],"coherence":1,"opposite_coherence":0,"dot_radius":2,"dot_side_length":1,"dot_life":-1,"move_distance":1,"aperture_width":300,"aperture_height":300,"dot_color":["black","white","white","black","black","white","white","black","black","black","white","white","white","black","white","black","black","white","white","black","black","white","white","black","white","black","white","white","white","white","white","black","white","black","black","white","black","black","white","black","white","white","black","black","black","white","white","black","black","black","black","white","black","black","black","white","white","white","black","black","white","black","white","black","white","black","black","white","white","black","white","black","black","black","white","black","white","black","black","white","black","black","black","white","black","white","black","white","black","white","white","black","white","white","white","white","black","white","black","white","black","white","white","black","white","white","white","black","white","black","black","black","black","black","white","white","black","black","white","white","black","black","black","black","black","white","white","white","black","white","black","white","black","black","black","white","black","white","black","white","white","black","black","white","black","white","white","white","white","white","white","white","black","white","black","white","white","black","black","black","black","black","white","white","white","black","white","black","black","black","white","black","white","black","white","black","black","white","white","black","black","black","black","white","white","white","white","black","white","white","white","black","black","white","white","black","white","black","white","white"],"dot_shape":"circle","background_color":"#AAA","RDK_type":3,"aperture_type":2,"reinsert_type":2,"frame_rate":16.9,"frame_rate_array":[11,16,17,17,17,17,17,17,17,17,17,17,17,17,17,17,17,17,17,17,17,17,17,17,17,17,17,17,17,17,17,17,17,17,17,17,17,17,17,17,17,17,17,17,17,17,17,16,16,17,17,17,17,17,17,17,17,17,17,17,17,17,17,17,17,17,17,17,17,17,17,17,17,17,17,17,17,16,17,17,17,17,16,17,17,17,17,17,17,17,17,17,17,17,17,17,17,16,17,17,17,17,17,17,17,17,17,17,17,17,17,17,17,17,17,17,17,17,17,17],"number_of_frames":120,"aperture_center_x":960,"aperture_center_y":540,"fixation_cross":true,"fixation_cross_width":15,"fixation_cross_height":15,"fixation_cross_color":"#111","fixation_cross_thickness":1,"border":true,"border_thickness":2,"border_color":"transparent","canvas_width":1920,"canvas_height":1080,"trial_type":"rdk","trial_index":24,"plugin_version":"2.0.0","time_elapsed":239203},{"rt":2030,"stimulus":"\n        <div class=\"response-container\">\n          <div class=\"response-instruction\">\n            <p>rotate the bar by using the left and right arrow keys.</p>\n            <p>when you are determined, press the Enter key.</p>\n          </div>\n          <div class=\"response-circle\">\n            <div class=\"response-fixation\"></div>\n            <div id=\"bar\" class=\"rotating-bar\"></div>\n          </div>\n        </div>\n      ","response":"Enter","trial_type":"html-keyboard-response","trial_index":25,"plugin_version":"2.1.0","time_elapsed":241234,"response_angle_css":233,"response_angle_rdk":217,"angular_error_target":-9,"angular_error_distractor":-106,"target_direction":226,"target_group":"black","reward_points":8},{"rt":null,"stimulus":"\n          <p style=\"color: #00FF00;\">Your reward: 8 points</p>\n        ","response":null,"trial_type":"html-keyboard-response","trial_index":26,"plugin_version":"2.1.0","time_elapsed":243239},{"rt":null,"stimulus":"<div class=\"fixation\" style=\"font-size: 60px;\">+</div>","response":null,"trial_type":"html-keyboard-response","trial_index":27,"plugin_version":"2.1.0","time_elapsed":244253},{"target_group":"white","condition_label":"W_H_vs_B_L_rep12","target_direction":162,"distractor_direction":34,"session_rotation":120,"rt":-1,"response":"","correct":false,"choices":"ALL_KEYS","correct_choice":["a"],"trial_duration":2000,"flip_timestamps":[],"response_ends_trial":false,"number_of_apertures":200,"number_of_dots":[1,1,1,1,1,1,1,1,1,1,1,1,1,1,1,1,1,1,1,1,1,1,1,1,1,1,1,1,1,1,1,1,1,1,1,1,1,1,1,1,1,1,1,1,1,1,1,1,1,1,1,1,1,1,1,1,1,1,1,1,1,1,1,1,1,1,1,1,1,1,1,1,1,1,1,1,1,1,1,1,1,1,1,1,1,1,1,1,1,1,1,1,1,1,1,1,1,1,1,1,1,1,1,1,1,1,1,1,1,1,1,1,1,1,1,1,1,1,1,1,1,1,1,1,1,1,1,1,1,1,1,1,1,1,1,1,1,1,1,1,1,1,1,1,1,1,1,1,1,1,1,1,1,1,1,1,1,1,1,1,1,1,1,1,1,1,1,1,1,1,1,1,1,1,1,1,1,1,1,1,1,1,1,1,1,1,1,1,1,1,1,1,1,1,1,1,1,1,1,1],"number_of_sets":1,"coherent_direction":[162,162,162,162,34,162,162,34,34,162,34,34,162,34,162,34,34,162,162,34,162,162,34,162,34,162,162,34,162,34,34,34,34,34,34,34,162,34,34,34,34,162,34,162,34,34,162,162,34,162,34,34,34,162,162,162,34,34,162,34,162,162,34,162,34,34,34,162,162,34,162,162,34,34,34,162,162,34,34,162,34,34,162,34,162,34,162,34,34,162,34,34,162,162,162,162,34,34,34,162,34,34,162,34,34,34,162,162,34,162,34,34,162,162,162,34,34,162,34,162,162,162,162,162,34,162,34,162,162,34,162,34,34,34,162,34,34,34,162,34,162,162,162,34,162,162,34,34,34,162,34,34,34,34,34,162,162,162,162,162,34,34,162,162,162,34,162,162,162,162,162,34,162,162,162,162,34,34,162,34,34,162,162,162,162,162,34,162,34,34,162,34,34,162,34,162,162,34,34,162],"coherence":1,"opposite_coherence":0,"dot_radius":2,"dot_side_length":1,"dot_life":-1,"move_distance":1,"aperture_width":300,"aperture_height":300,"dot_color":["white","white","white","white","black","white","white","black","black","white","black","black","white","black","white","black","black","white","white","black","white","white","black","white","black","white","white","black","white","black","black","black","black","black","black","black","white","black","black","black","black","white","black","white","black","black","white","white","black","white","black","black","black","white","white","white","black","black","white","black","white","white","black","white","black","black","black","white","white","black","white","white","black","black","black","white","white","black","black","white","black","black","white","black","white","black","white","black","black","white","black","black","white","white","white","white","black","black","black","white","black","black","white","black","black","black","white","white","black","white","black","black","white","white","white","black","black","white","black","white","white","white","white","white","black","white","black","white","white","black","white","black","black","black","white","black","black","black","white","black","white","white","white","black","white","white","black","black","black","white","black","black","black","black","black","white","white","white","white","white","black","black","white","white","white","black","white","white","white","white","white","black","white","white","white","white","black","black","white","black","black","white","white","white","white","white","black","white","black","black","white","black","black","white","black","white","white","black","black","white"],"dot_shape":"circle","background_color":"#AAA","RDK_type":3,"aperture_type":2,"reinsert_type":2,"frame_rate":16.85123966942149,"frame_rate_array":[6,17,17,17,17,17,16,17,17,17,17,17,17,17,17,17,17,17,17,17,17,17,17,17,17,17,17,17,17,17,17,17,17,17,17,17,17,17,17,17,17,17,17,17,17,17,16,17,17,17,17,17,17,17,17,17,17,17,17,17,17,17,17,17,17,17,17,16,17,17,17,17,17,17,17,17,17,17,17,17,17,17,17,17,17,17,17,17,17,17,16,17,17,17,17,17,17,16,17,17,17,17,17,16,16,17,17,17,17,17,17,17,17,17,17,17,17,17,17,17,17],"number_of_frames":121,"aperture_center_x":960,"aperture_center_y":540,"fixation_cross":true,"fixation_cross_width":15,"fixation_cross_height":15,"fixation_cross_color":"#111","fixation_cross_thickness":1,"border":true,"border_thickness":2,"border_color":"transparent","canvas_width":1920,"canvas_height":1080,"trial_type":"rdk","trial_index":28,"plugin_version":"2.0.0","time_elapsed":246265},{"rt":2978,"stimulus":"\n        <div class=\"response-container\">\n          <div class=\"response-instruction\">\n            <p>rotate the bar by using the left and right arrow keys.</p>\n            <p>when you are determined, press the Enter key.</p>\n          </div>\n          <div class=\"response-circle\">\n            <div class=\"response-fixation\"></div>\n            <div id=\"bar\" class=\"rotating-bar\"></div>\n          </div>\n        </div>\n      ","response":"Enter","trial_type":"html-keyboard-response","trial_index":29,"plugin_version":"2.1.0","time_elapsed":249244,"response_angle_css":70,"response_angle_rdk":20,"angular_error_target":-142,"angular_error_distractor":-14,"target_direction":162,"target_group":"white","reward_points":0},{"rt":null,"stimulus":"\n          <p style=\"color: #FF3333;\">Your reward: 0 points</p>\n        ","response":null,"trial_type":"html-keyboard-response","trial_index":30,"plugin_version":"2.1.0","time_elapsed":251248},{"rt":null,"stimulus":"<div class=\"fixation\" style=\"font-size: 60px;\">+</div>","response":null,"trial_type":"html-keyboard-response","trial_index":31,"plugin_version":"2.1.0","time_elapsed":252265},{"target_group":"black","condition_label":"B_H_vs_W_L_rep13","target_direction":216,"distractor_direction":313,"session_rotation":120,"rt":-1,"response":"","correct":false,"choices":"ALL_KEYS","correct_choice":["a"],"trial_duration":2000,"flip_timestamps":[],"response_ends_trial":false,"number_of_apertures":200,"number_of_dots":[1,1,1,1,1,1,1,1,1,1,1,1,1,1,1,1,1,1,1,1,1,1,1,1,1,1,1,1,1,1,1,1,1,1,1,1,1,1,1,1,1,1,1,1,1,1,1,1,1,1,1,1,1,1,1,1,1,1,1,1,1,1,1,1,1,1,1,1,1,1,1,1,1,1,1,1,1,1,1,1,1,1,1,1,1,1,1,1,1,1,1,1,1,1,1,1,1,1,1,1,1,1,1,1,1,1,1,1,1,1,1,1,1,1,1,1,1,1,1,1,1,1,1,1,1,1,1,1,1,1,1,1,1,1,1,1,1,1,1,1,1,1,1,1,1,1,1,1,1,1,1,1,1,1,1,1,1,1,1,1,1,1,1,1,1,1,1,1,1,1,1,1,1,1,1,1,1,1,1,1,1,1,1,1,1,1,1,1,1,1,1,1,1,1,1,1,1,1,1,1],"number_of_sets":1,"coherent_direction":[313,216,216,216,313,313,313,216,313,313,216,216,216,313,216,216,313,216,216,216,216,216,216,313,313,216,216,313,216,313,216,216,216,216,216,313,216,313,216,216,313,216,313,313,313,216,313,216,216,216,313,313,313,216,216,216,313,313,216,313,313,313,216,313,216,313,216,216,313,216,313,216,313,216,313,216,216,313,216,216,216,313,313,313,216,216,313,313,313,313,313,313,313,313,216,216,313,216,313,216,216,216,313,216,313,313,216,216,216,313,216,216,313,216,313,216,216,216,216,313,216,216,216,313,216,313,313,216,216,313,313,216,313,216,216,313,313,216,216,313,313,216,216,313,313,313,313,216,216,313,216,216,216,313,313,216,313,313,313,313,216,313,216,313,216,313,216,313,313,216,216,313,313,313,313,216,313,313,313,216,313,313,313,216,216,313,313,313,313,313,216,216,313,313,313,216,313,216,313,216],"coherence":1,"opposite_coherence":0,"dot_radius":2,"dot_side_length":1,"dot_life":-1,"move_distance":1,"aperture_width":300,"aperture_height":300,"dot_color":["white","black","black","black","white","white","white","black","white","white","black","black","black","white","black","black","white","black","black","black","black","black","black","white","white","black","black","white","black","white","black","black","black","black","black","white","black","white","black","black","white","black","white","white","white","black","white","black","black","black","white","white","white","black","black","black","white","white","black","white","white","white","black","white","black","white","black","black","white","black","white","black","white","black","white","black","black","white","black","black","black","white","white","white","black","black","white","white","white","white","white","white","white","white","black","black","white","black","white","black","black","black","white","black","white","white","black","black","black","white","black","black","white","black","white","black","black","black","black","white","black","black","black","white","black","white","white","black","black","white","white","black","white","black","black","white","white","black","black","white","white","black","black","white","white","white","white","black","black","white","black","black","black","white","white","black","white","white","white","white","black","white","black","white","black","white","black","white","white","black","black","white","white","white","white","black","white","white","white","black","white","white","white","black","black","white","white","white","white","white","black","black","white","white","white","black","white","black","white","black"],"dot_shape":"circle","background_color":"#AAA","RDK_type":3,"aperture_type":2,"reinsert_type":2,"frame_rate":16.875,"frame_rate_array":[12,17,17,17,17,16,17,16,17,17,17,17,17,18,16,16,17,17,17,17,17,17,17,17,16,17,17,17,17,17,17,17,17,17,17,16,17,17,17,17,17,17,17,17,17,17,17,17,17,17,17,17,16,17,17,17,17,17,17,17,17,17,17,17,17,17,16,17,17,17,17,16,17,17,17,17,17,17,17,17,17,17,17,17,17,17,17,17,17,17,17,17,17,17,17,17,17,17,17,16,17,17,16,17,17,17,17,17,17,17,17,17,17,17,17,17,17,17,17,17],"number_of_frames":120,"aperture_center_x":960,"aperture_center_y":540,"fixation_cross":true,"fixation_cross_width":15,"fixation_cross_height":15,"fixation_cross_color":"#111","fixation_cross_thickness":1,"border":true,"border_thickness":2,"border_color":"transparent","canvas_width":1920,"canvas_height":1080,"trial_type":"rdk","trial_index":32,"plugin_version":"2.0.0","time_elapsed":254275},{"rt":2333,"stimulus":"\n        <div class=\"response-container\">\n          <div class=\"response-instruction\">\n            <p>rotate the bar by using the left and right arrow keys.</p>\n            <p>when you are determined, press the Enter key.</p>\n          </div>\n          <div class=\"response-circle\">\n            <div class=\"response-fixation\"></div>\n            <div id=\"bar\" class=\"rotating-bar\"></div>\n          </div>\n        </div>\n      ","response":"Enter","trial_type":"html-keyboard-response","trial_index":33,"plugin_version":"2.1.0","time_elapsed":256609,"response_angle_css":122,"response_angle_rdk":328,"angular_error_target":112,"angular_error_distractor":15,"target_direction":216,"target_group":"black","reward_points":0},{"rt":null,"stimulus":"\n          <p style=\"color: #FF3333;\">Your reward: 0 points</p>\n        ","response":null,"trial_type":"html-keyboard-response","trial_index":34,"plugin_version":"2.1.0","time_elapsed":258616},{"rt":null,"stimulus":"<div class=\"fixation\" style=\"font-size: 60px;\">+</div>","response":null,"trial_type":"html-keyboard-response","trial_index":35,"plugin_version":"2.1.0","time_elapsed":259619},{"target_group":"white","condition_label":"W_H_vs_B_L_rep13","target_direction":148,"distractor_direction":47,"session_rotation":120,"rt":1184,"response":"ArrowLeft","correct":false,"choices":"ALL_KEYS","correct_choice":["a"],"trial_duration":2000,"flip_timestamps":[],"response_ends_trial":false,"number_of_apertures":200,"number_of_dots":[1,1,1,1,1,1,1,1,1,1,1,1,1,1,1,1,1,1,1,1,1,1,1,1,1,1,1,1,1,1,1,1,1,1,1,1,1,1,1,1,1,1,1,1,1,1,1,1,1,1,1,1,1,1,1,1,1,1,1,1,1,1,1,1,1,1,1,1,1,1,1,1,1,1,1,1,1,1,1,1,1,1,1,1,1,1,1,1,1,1,1,1,1,1,1,1,1,1,1,1,1,1,1,1,1,1,1,1,1,1,1,1,1,1,1,1,1,1,1,1,1,1,1,1,1,1,1,1,1,1,1,1,1,1,1,1,1,1,1,1,1,1,1,1,1,1,1,1,1,1,1,1,1,1,1,1,1,1,1,1,1,1,1,1,1,1,1,1,1,1,1,1,1,1,1,1,1,1,1,1,1,1,1,1,1,1,1,1,1,1,1,1,1,1,1,1,1,1,1,1],"number_of_sets":1,"coherent_direction":[47,47,148,47,47,47,47,47,47,148,47,148,148,148,148,148,47,47,148,47,47,148,47,148,148,47,148,148,148,148,47,47,47,148,47,148,47,148,47,47,148,148,148,148,47,47,148,148,47,148,47,47,47,148,148,148,47,47,148,148,47,47,47,148,47,148,47,47,148,47,148,148,148,148,148,148,148,148,148,47,148,47,47,148,148,148,47,47,148,148,148,148,148,148,47,47,148,148,47,47,47,47,47,47,148,148,148,47,148,148,148,47,47,47,148,47,148,148,47,148,148,47,148,47,47,148,47,47,47,47,148,148,47,47,148,148,47,148,47,148,148,47,148,47,47,148,148,47,148,47,47,47,148,148,47,47,148,148,148,148,47,47,148,148,47,47,47,47,47,47,148,148,47,148,47,148,47,47,148,47,47,148,148,47,47,148,47,148,47,47,148,47,47,47,47,148,148,47,148,148],"coherence":1,"opposite_coherence":0,"dot_radius":2,"dot_side_length":1,"dot_life":-1,"move_distance":1,"aperture_width":300,"aperture_height":300,"dot_color":["black","black","white","black","black","black","black","black","black","white","black","white","white","white","white","white","black","black","white","black","black","white","black","white","white","black","white","white","white","white","black","black","black","white","black","white","black","white","black","black","white","white","white","white","black","black","white","white","black","white","black","black","black","white","white","white","black","black","white","white","black","black","black","white","black","white","black","black","white","black","white","white","white","white","white","white","white","white","white","black","white","black","black","white","white","white","black","black","white","white","white","white","white","white","black","black","white","white","black","black","black","black","black","black","white","white","white","black","white","white","white","black","black","black","white","black","white","white","black","white","white","black","white","black","black","white","black","black","black","black","white","white","black","black","white","white","black","white","black","white","white","black","white","black","black","white","white","black","white","black","black","black","white","white","black","black","white","white","white","white","black","black","white","white","black","black","black","black","black","black","white","white","black","white","black","white","black","black","white","black","black","white","white","black","black","white","black","white","black","black","white","black","black","black","black","white","white","black","white","white"],"dot_shape":"circle","background_color":"#AAA","RDK_type":3,"aperture_type":2,"reinsert_type":2,"frame_rate":16.891666666666666,"frame_rate_array":[9,17,17,17,16,17,17,17,17,17,17,17,17,17,17,17,17,17,17,17,17,17,17,17,17,17,17,17,17,16,17,17,17,17,17,17,17,17,17,17,17,17,17,17,16,17,17,17,17,16,17,17,17,17,17,17,17,17,17,17,17,17,17,17,17,17,17,17,17,17,17,17,17,17,17,17,17,17,17,17,17,17,17,17,17,17,17,17,17,17,16,17,17,17,17,17,17,17,17,17,17,17,17,17,17,17,17,17,17,17,17,17,17,17,17,17,17,17,17,17],"number_of_frames":120,"aperture_center_x":960,"aperture_center_y":540,"fixation_cross":true,"fixation_cross_width":15,"fixation_cross_height":15,"fixation_cross_color":"#111","fixation_cross_thickness":1,"border":true,"border_thickness":2,"border_color":"transparent","canvas_width":1920,"canvas_height":1080,"trial_type":"rdk","trial_index":36,"plugin_version":"2.0.0","time_elapsed":261632},{"rt":3070,"stimulus":"\n        <div class=\"response-container\">\n          <div class=\"response-instruction\">\n            <p>rotate the bar by using the left and right arrow keys.</p>\n            <p>when you are determined, press the Enter key.</p>\n          </div>\n          <div class=\"response-circle\">\n            <div class=\"response-fixation\"></div>\n            <div id=\"bar\" class=\"rotating-bar\"></div>\n          </div>\n        </div>\n      ","response":"Enter","trial_type":"html-keyboard-response","trial_index":37,"plugin_version":"2.1.0","time_elapsed":264703,"response_angle_css":421,"response_angle_rdk":29,"angular_error_target":-119,"angular_error_distractor":-18,"target_direction":148,"target_group":"white","reward_points":0},{"rt":null,"stimulus":"\n          <p style=\"color: #FF3333;\">Your reward: 0 points</p>\n        ","response":null,"trial_type":"html-keyboard-response","trial_index":38,"plugin_version":"2.1.0","time_elapsed":266712},{"rt":null,"stimulus":"<div class=\"fixation\" style=\"font-size: 60px;\">+</div>","response":null,"trial_type":"html-keyboard-response","trial_index":39,"plugin_version":"2.1.0","time_elapsed":267716},{"target_group":"black","condition_label":"B_H_vs_W_L_rep4","target_direction":229,"distractor_direction":327,"session_rotation":120,"rt":-1,"response":"","correct":false,"choices":"ALL_KEYS","correct_choice":["a"],"trial_duration":2000,"flip_timestamps":[],"response_ends_trial":false,"number_of_apertures":200,"number_of_dots":[1,1,1,1,1,1,1,1,1,1,1,1,1,1,1,1,1,1,1,1,1,1,1,1,1,1,1,1,1,1,1,1,1,1,1,1,1,1,1,1,1,1,1,1,1,1,1,1,1,1,1,1,1,1,1,1,1,1,1,1,1,1,1,1,1,1,1,1,1,1,1,1,1,1,1,1,1,1,1,1,1,1,1,1,1,1,1,1,1,1,1,1,1,1,1,1,1,1,1,1,1,1,1,1,1,1,1,1,1,1,1,1,1,1,1,1,1,1,1,1,1,1,1,1,1,1,1,1,1,1,1,1,1,1,1,1,1,1,1,1,1,1,1,1,1,1,1,1,1,1,1,1,1,1,1,1,1,1,1,1,1,1,1,1,1,1,1,1,1,1,1,1,1,1,1,1,1,1,1,1,1,1,1,1,1,1,1,1,1,1,1,1,1,1,1,1,1,1,1,1],"number_of_sets":1,"coherent_direction":[327,327,327,327,229,327,327,327,229,229,229,229,229,327,327,229,327,327,327,229,327,229,327,327,327,229,229,229,229,327,229,229,327,229,229,229,327,327,327,327,327,327,229,229,229,229,327,229,327,229,229,229,327,229,327,229,229,229,229,229,229,327,229,327,327,229,229,327,229,327,327,327,327,327,327,229,229,229,229,229,229,327,327,327,229,327,229,327,229,327,229,229,327,229,327,229,327,327,327,327,327,229,229,229,229,229,229,229,327,229,229,327,229,327,327,327,327,327,229,327,327,229,327,229,327,229,327,327,327,327,327,229,229,229,327,327,327,327,229,229,327,229,327,327,229,229,229,327,229,229,327,327,229,229,229,327,327,327,327,229,327,327,327,327,229,229,327,229,327,229,327,327,229,327,327,327,229,229,327,229,327,229,229,229,327,327,229,229,229,229,327,327,229,327,229,229,229,229,229,327],"coherence":1,"opposite_coherence":0,"dot_radius":2,"dot_side_length":1,"dot_life":-1,"move_distance":1,"aperture_width":300,"aperture_height":300,"dot_color":["white","white","white","white","black","white","white","white","black","black","black","black","black","white","white","black","white","white","white","black","white","black","white","white","white","black","black","black","black","white","black","black","white","black","black","black","white","white","white","white","white","white","black","black","black","black","white","black","white","black","black","black","white","black","white","black","black","black","black","black","black","white","black","white","white","black","black","white","black","white","white","white","white","white","white","black","black","black","black","black","black","white","white","white","black","white","black","white","black","white","black","black","white","black","white","black","white","white","white","white","white","black","black","black","black","black","black","black","white","black","black","white","black","white","white","white","white","white","black","white","white","black","white","black","white","black","white","white","white","white","white","black","black","black","white","white","white","white","black","black","white","black","white","white","black","black","black","white","black","black","white","white","black","black","black","white","white","white","white","black","white","white","white","white","black","black","white","black","white","black","white","white","black","white","white","white","black","black","white","black","white","black","black","black","white","white","black","black","black","black","white","white","black","white","black","black","black","black","black","white"],"dot_shape":"circle","background_color":"#AAA","RDK_type":3,"aperture_type":2,"reinsert_type":2,"frame_rate":16.917355371900825,"frame_rate_array":[14,16,17,17,17,17,17,17,17,17,17,17,17,17,17,17,16,17,17,17,17,17,17,17,17,17,17,16,17,17,17,17,17,17,17,17,17,17,17,17,17,17,17,17,16,17,17,17,17,17,17,17,17,17,17,17,17,17,17,17,17,17,17,17,17,17,17,17,17,17,16,17,17,17,17,17,17,17,16,17,17,17,17,17,17,17,17,17,17,17,16,17,17,17,17,17,17,17,17,17,17,17,17,17,17,17,17,17,17,17,17,17,17,17,17,17,17,17,17,17,17],"number_of_frames":121,"aperture_center_x":960,"aperture_center_y":540,"fixation_cross":true,"fixation_cross_width":15,"fixation_cross_height":15,"fixation_cross_color":"#111","fixation_cross_thickness":1,"border":true,"border_thickness":2,"border_color":"transparent","canvas_width":1920,"canvas_height":1080,"trial_type":"rdk","trial_index":40,"plugin_version":"2.0.0","time_elapsed":269734},{"rt":1233,"stimulus":"\n        <div class=\"response-container\">\n          <div class=\"response-instruction\">\n            <p>rotate the bar by using the left and right arrow keys.</p>\n            <p>when you are determined, press the Enter key.</p>\n          </div>\n          <div class=\"response-circle\">\n            <div class=\"response-fixation\"></div>\n            <div id=\"bar\" class=\"rotating-bar\"></div>\n          </div>\n        </div>\n      ","response":"Enter","trial_type":"html-keyboard-response","trial_index":41,"plugin_version":"2.1.0","time_elapsed":270968,"response_angle_css":243,"response_angle_rdk":207,"angular_error_target":-22,"angular_error_distractor":-120,"target_direction":229,"target_group":"black","reward_points":5},{"rt":null,"stimulus":"\n          <p style=\"color: #00FF00;\">Your reward: 5 points</p>\n        ","response":null,"trial_type":"html-keyboard-response","trial_index":42,"plugin_version":"2.1.0","time_elapsed":272972},{"rt":null,"stimulus":"<div class=\"fixation\" style=\"font-size: 60px;\">+</div>","response":null,"trial_type":"html-keyboard-response","trial_index":43,"plugin_version":"2.1.0","time_elapsed":273989},{"target_group":"black","condition_label":"B_H_vs_W_L_rep2","target_direction":230,"distractor_direction":327,"session_rotation":120,"rt":-1,"response":"","correct":false,"choices":"ALL_KEYS","correct_choice":["a"],"trial_duration":2000,"flip_timestamps":[],"response_ends_trial":false,"number_of_apertures":200,"number_of_dots":[1,1,1,1,1,1,1,1,1,1,1,1,1,1,1,1,1,1,1,1,1,1,1,1,1,1,1,1,1,1,1,1,1,1,1,1,1,1,1,1,1,1,1,1,1,1,1,1,1,1,1,1,1,1,1,1,1,1,1,1,1,1,1,1,1,1,1,1,1,1,1,1,1,1,1,1,1,1,1,1,1,1,1,1,1,1,1,1,1,1,1,1,1,1,1,1,1,1,1,1,1,1,1,1,1,1,1,1,1,1,1,1,1,1,1,1,1,1,1,1,1,1,1,1,1,1,1,1,1,1,1,1,1,1,1,1,1,1,1,1,1,1,1,1,1,1,1,1,1,1,1,1,1,1,1,1,1,1,1,1,1,1,1,1,1,1,1,1,1,1,1,1,1,1,1,1,1,1,1,1,1,1,1,1,1,1,1,1,1,1,1,1,1,1,1,1,1,1,1,1],"number_of_sets":1,"coherent_direction":[327,327,327,230,327,327,327,327,327,230,230,230,327,230,230,230,327,327,230,327,230,230,230,327,327,327,230,230,230,327,230,230,327,230,327,230,327,230,327,327,327,327,230,230,327,327,230,327,230,230,230,230,230,230,230,230,230,327,327,230,327,327,327,327,230,327,327,327,230,327,230,327,230,327,327,230,327,230,230,327,230,327,327,327,327,230,230,327,230,327,230,327,230,230,327,327,230,230,230,230,230,327,327,230,327,327,230,230,230,230,327,230,327,230,230,327,327,327,327,230,327,327,327,230,230,230,327,327,327,230,230,230,327,327,230,327,327,230,230,327,327,230,230,230,230,327,230,327,230,230,327,230,230,327,327,230,230,230,230,230,327,230,230,230,327,327,327,327,327,327,327,327,327,327,230,327,230,327,230,230,327,327,230,230,230,327,327,327,327,230,327,230,327,327,230,327,230,230,230,230],"coherence":1,"opposite_coherence":0,"dot_radius":2,"dot_side_length":1,"dot_life":-1,"move_distance":1,"aperture_width":300,"aperture_height":300,"dot_color":["white","white","white","black","white","white","white","white","white","black","black","black","white","black","black","black","white","white","black","white","black","black","black","white","white","white","black","black","black","white","black","black","white","black","white","black","white","black","white","white","white","white","black","black","white","white","black","white","black","black","black","black","black","black","black","black","black","white","white","black","white","white","white","white","black","white","white","white","black","white","black","white","black","white","white","black","white","black","black","white","black","white","white","white","white","black","black","white","black","white","black","white","black","black","white","white","black","black","black","black","black","white","white","black","white","white","black","black","black","black","white","black","white","black","black","white","white","white","white","black","white","white","white","black","black","black","white","white","white","black","black","black","white","white","black","white","white","black","black","white","white","black","black","black","black","white","black","white","black","black","white","black","black","white","white","black","black","black","black","black","white","black","black","black","white","white","white","white","white","white","white","white","white","white","black","white","black","white","black","black","white","white","black","black","black","white","white","white","white","black","white","black","white","white","black","white","black","black","black","black"],"dot_shape":"circle","background_color":"#AAA","RDK_type":3,"aperture_type":2,"reinsert_type":2,"frame_rate":16.884297520661157,"frame_rate_array":[10,17,17,17,17,17,17,17,17,17,17,17,17,17,17,17,17,17,17,17,17,17,16,17,17,17,17,17,17,17,17,17,17,17,17,17,17,17,17,17,17,17,17,17,17,17,17,17,17,17,17,17,16,17,16,17,17,17,16,16,19,15,17,17,17,17,17,17,16,17,17,17,17,17,17,17,17,17,17,17,17,17,17,17,17,17,17,17,17,17,17,17,17,17,17,17,16,17,17,17,17,17,17,17,17,17,17,17,17,17,17,17,17,17,17,17,17,17,17,17,17],"number_of_frames":121,"aperture_center_x":960,"aperture_center_y":540,"fixation_cross":true,"fixation_cross_width":15,"fixation_cross_height":15,"fixation_cross_color":"#111","fixation_cross_thickness":1,"border":true,"border_thickness":2,"border_color":"transparent","canvas_width":1920,"canvas_height":1080,"trial_type":"rdk","trial_index":44,"plugin_version":"2.0.0","time_elapsed":276001},{"rt":2829,"stimulus":"\n        <div class=\"response-container\">\n          <div class=\"response-instruction\">\n            <p>rotate the bar by using the left and right arrow keys.</p>\n            <p>when you are determined, press the Enter key.</p>\n          </div>\n          <div class=\"response-circle\">\n            <div class=\"response-fixation\"></div>\n            <div id=\"bar\" class=\"rotating-bar\"></div>\n          </div>\n        </div>\n      ","response":"Enter","trial_type":"html-keyboard-response","trial_index":45,"plugin_version":"2.1.0","time_elapsed":278831,"response_angle_css":225,"response_angle_rdk":225,"angular_error_target":-5,"angular_error_distractor":-102,"target_direction":230,"target_group":"black","reward_points":9},{"rt":null,"stimulus":"\n          <p style=\"color: #00FF00;\">Your reward: 9 points</p>\n        ","response":null,"trial_type":"html-keyboard-response","trial_index":46,"plugin_version":"2.1.0","time_elapsed":280844},{"rt":null,"stimulus":"<div class=\"fixation\" style=\"font-size: 60px;\">+</div>","response":null,"trial_type":"html-keyboard-response","trial_index":47,"plugin_version":"2.1.0","time_elapsed":281859},{"target_group":"white","condition_label":"W_H_vs_B_L_rep1","target_direction":131,"distractor_direction":41,"session_rotation":120,"rt":-1,"response":"","correct":false,"choices":"ALL_KEYS","correct_choice":["a"],"trial_duration":2000,"flip_timestamps":[],"response_ends_trial":false,"number_of_apertures":200,"number_of_dots":[1,1,1,1,1,1,1,1,1,1,1,1,1,1,1,1,1,1,1,1,1,1,1,1,1,1,1,1,1,1,1,1,1,1,1,1,1,1,1,1,1,1,1,1,1,1,1,1,1,1,1,1,1,1,1,1,1,1,1,1,1,1,1,1,1,1,1,1,1,1,1,1,1,1,1,1,1,1,1,1,1,1,1,1,1,1,1,1,1,1,1,1,1,1,1,1,1,1,1,1,1,1,1,1,1,1,1,1,1,1,1,1,1,1,1,1,1,1,1,1,1,1,1,1,1,1,1,1,1,1,1,1,1,1,1,1,1,1,1,1,1,1,1,1,1,1,1,1,1,1,1,1,1,1,1,1,1,1,1,1,1,1,1,1,1,1,1,1,1,1,1,1,1,1,1,1,1,1,1,1,1,1,1,1,1,1,1,1,1,1,1,1,1,1,1,1,1,1,1,1],"number_of_sets":1,"coherent_direction":[131,131,41,41,131,131,41,41,131,131,131,131,131,131,41,131,131,41,41,131,41,131,41,131,41,131,41,41,41,41,131,131,131,41,131,131,131,41,131,41,41,41,131,41,41,41,41,131,131,41,41,131,41,41,41,131,131,131,41,131,131,131,131,131,131,41,41,131,131,41,41,41,41,41,131,41,41,41,131,41,41,41,131,131,41,131,41,131,41,41,41,41,41,131,131,41,131,41,131,131,41,131,41,41,131,131,131,41,41,41,131,41,41,41,41,131,41,131,41,131,41,41,131,41,131,131,41,131,131,41,41,131,41,41,131,41,41,41,41,41,131,41,41,41,131,131,131,41,41,131,131,41,41,131,131,131,131,131,131,131,131,131,131,41,131,131,41,131,41,131,131,131,41,41,41,41,131,131,131,131,131,41,131,41,131,41,131,41,131,131,41,41,131,131,41,41,41,131,41,131],"coherence":1,"opposite_coherence":0,"dot_radius":2,"dot_side_length":1,"dot_life":-1,"move_distance":1,"aperture_width":300,"aperture_height":300,"dot_color":["white","white","black","black","white","white","black","black","white","white","white","white","white","white","black","white","white","black","black","white","black","white","black","white","black","white","black","black","black","black","white","white","white","black","white","white","white","black","white","black","black","black","white","black","black","black","black","white","white","black","black","white","black","black","black","white","white","white","black","white","white","white","white","white","white","black","black","white","white","black","black","black","black","black","white","black","black","black","white","black","black","black","white","white","black","white","black","white","black","black","black","black","black","white","white","black","white","black","white","white","black","white","black","black","white","white","white","black","black","black","white","black","black","black","black","white","black","white","black","white","black","black","white","black","white","white","black","white","white","black","black","white","black","black","white","black","black","black","black","black","white","black","black","black","white","white","white","black","black","white","white","black","black","white","white","white","white","white","white","white","white","white","white","black","white","white","black","white","black","white","white","white","black","black","black","black","white","white","white","white","white","black","white","black","white","black","white","black","white","white","black","black","white","white","black","black","black","white","black","white"],"dot_shape":"circle","background_color":"#AAA","RDK_type":3,"aperture_type":2,"reinsert_type":2,"frame_rate":16.867768595041323,"frame_rate_array":[7,17,17,17,17,17,17,17,17,17,17,17,17,17,17,17,17,17,17,17,17,17,16,17,17,17,17,17,17,17,16,17,17,17,17,17,17,17,17,17,17,17,17,17,17,17,17,17,17,17,17,17,17,17,17,17,17,17,17,17,17,17,17,17,17,17,17,17,16,16,17,17,17,17,17,16,17,17,17,17,17,17,17,17,17,17,17,17,17,17,17,17,16,17,17,17,17,17,17,17,17,17,17,17,17,17,17,17,17,17,17,17,17,17,17,17,17,17,17,17,17],"number_of_frames":121,"aperture_center_x":960,"aperture_center_y":540,"fixation_cross":true,"fixation_cross_width":15,"fixation_cross_height":15,"fixation_cross_color":"#111","fixation_cross_thickness":1,"border":true,"border_thickness":2,"border_color":"transparent","canvas_width":1920,"canvas_height":1080,"trial_type":"rdk","trial_index":48,"plugin_version":"2.0.0","time_elapsed":283868},{"rt":2927,"stimulus":"\n        <div class=\"response-container\">\n          <div class=\"response-instruction\">\n            <p>rotate the bar by using the left and right arrow keys.</p>\n            <p>when you are determined, press the Enter key.</p>\n          </div>\n          <div class=\"response-circle\">\n            <div class=\"response-fixation\"></div>\n            <div id=\"bar\" class=\"rotating-bar\"></div>\n          </div>\n        </div>\n      ","response":"Enter","trial_type":"html-keyboard-response","trial_index":49,"plugin_version":"2.1.0","time_elapsed":286796,"response_angle_css":426,"response_angle_rdk":24,"angular_error_target":-107,"angular_error_distractor":-17,"target_direction":131,"target_group":"white","reward_points":0},{"rt":null,"stimulus":"\n          <p style=\"color: #FF3333;\">Your reward: 0 points</p>\n        ","response":null,"trial_type":"html-keyboard-response","trial_index":50,"plugin_version":"2.1.0","time_elapsed":288799},{"rt":null,"stimulus":"<div class=\"fixation\" style=\"font-size: 60px;\">+</div>","response":null,"trial_type":"html-keyboard-response","trial_index":51,"plugin_version":"2.1.0","time_elapsed":289801},{"target_group":"white","condition_label":"W_H_vs_B_L_rep11","target_direction":132,"distractor_direction":34,"session_rotation":120,"rt":-1,"response":"","correct":false,"choices":"ALL_KEYS","correct_choice":["a"],"trial_duration":2000,"flip_timestamps":[],"response_ends_trial":false,"number_of_apertures":200,"number_of_dots":[1,1,1,1,1,1,1,1,1,1,1,1,1,1,1,1,1,1,1,1,1,1,1,1,1,1,1,1,1,1,1,1,1,1,1,1,1,1,1,1,1,1,1,1,1,1,1,1,1,1,1,1,1,1,1,1,1,1,1,1,1,1,1,1,1,1,1,1,1,1,1,1,1,1,1,1,1,1,1,1,1,1,1,1,1,1,1,1,1,1,1,1,1,1,1,1,1,1,1,1,1,1,1,1,1,1,1,1,1,1,1,1,1,1,1,1,1,1,1,1,1,1,1,1,1,1,1,1,1,1,1,1,1,1,1,1,1,1,1,1,1,1,1,1,1,1,1,1,1,1,1,1,1,1,1,1,1,1,1,1,1,1,1,1,1,1,1,1,1,1,1,1,1,1,1,1,1,1,1,1,1,1,1,1,1,1,1,1,1,1,1,1,1,1,1,1,1,1,1,1],"number_of_sets":1,"coherent_direction":[34,34,34,132,132,34,34,132,132,132,34,132,34,34,34,132,34,34,132,132,34,34,34,132,34,132,34,34,34,132,34,132,132,132,34,34,132,34,132,34,132,34,132,34,132,34,34,34,34,132,34,34,132,132,34,132,34,34,34,34,132,34,132,132,34,132,132,34,34,34,132,34,132,132,132,132,132,132,132,34,132,132,34,132,132,34,132,34,34,132,34,132,34,34,132,132,132,132,34,132,132,34,34,132,34,34,34,34,132,34,34,132,34,34,132,34,132,132,132,132,132,34,132,34,34,132,132,132,132,132,132,34,132,34,34,132,132,132,132,132,132,34,132,132,132,34,132,132,34,34,132,132,132,34,132,132,34,132,34,132,132,34,34,132,34,34,34,132,132,34,34,34,132,132,34,132,132,34,34,34,34,132,132,34,34,132,132,34,34,34,132,132,132,34,34,34,34,34,34,34],"coherence":1,"opposite_coherence":0,"dot_radius":2,"dot_side_length":1,"dot_life":-1,"move_distance":1,"aperture_width":300,"aperture_height":300,"dot_color":["black","black","black","white","white","black","black","white","white","white","black","white","black","black","black","white","black","black","white","white","black","black","black","white","black","white","black","black","black","white","black","white","white","white","black","black","white","black","white","black","white","black","white","black","white","black","black","black","black","white","black","black","white","white","black","white","black","black","black","black","white","black","white","white","black","white","white","black","black","black","white","black","white","white","white","white","white","white","white","black","white","white","black","white","white","black","white","black","black","white","black","white","black","black","white","white","white","white","black","white","white","black","black","white","black","black","black","black","white","black","black","white","black","black","white","black","white","white","white","white","white","black","white","black","black","white","white","white","white","white","white","black","white","black","black","white","white","white","white","white","white","black","white","white","white","black","white","white","black","black","white","white","white","black","white","white","black","white","black","white","white","black","black","white","black","black","black","white","white","black","black","black","white","white","black","white","white","black","black","black","black","white","white","black","black","white","white","black","black","black","white","white","white","black","black","black","black","black","black","black"],"dot_shape":"circle","background_color":"#AAA","RDK_type":3,"aperture_type":2,"reinsert_type":2,"frame_rate":16.883333333333333,"frame_rate_array":[13,17,17,17,17,17,17,17,17,17,17,17,17,17,17,17,17,17,17,17,17,17,17,17,16,17,17,17,16,17,17,17,17,16,17,17,17,17,16,17,17,17,17,17,16,17,17,16,17,17,17,17,17,17,17,17,17,17,17,17,17,17,16,16,17,17,17,17,17,17,17,17,17,17,16,17,17,17,17,17,17,17,17,17,17,17,17,17,17,17,17,17,17,16,17,17,17,17,17,17,17,17,17,17,17,17,17,17,17,17,17,17,17,17,17,17,17,17,17,17],"number_of_frames":120,"aperture_center_x":960,"aperture_center_y":540,"fixation_cross":true,"fixation_cross_width":15,"fixation_cross_height":15,"fixation_cross_color":"#111","fixation_cross_thickness":1,"border":true,"border_thickness":2,"border_color":"transparent","canvas_width":1920,"canvas_height":1080,"trial_type":"rdk","trial_index":52,"plugin_version":"2.0.0","time_elapsed":291809},{"rt":1916,"stimulus":"\n        <div class=\"response-container\">\n          <div class=\"response-instruction\">\n            <p>rotate the bar by using the left and right arrow keys.</p>\n            <p>when you are determined, press the Enter key.</p>\n          </div>\n          <div class=\"response-circle\">\n            <div class=\"response-fixation\"></div>\n            <div id=\"bar\" class=\"rotating-bar\"></div>\n          </div>\n        </div>\n      ","response":"Enter","trial_type":"html-keyboard-response","trial_index":53,"plugin_version":"2.1.0","time_elapsed":293726,"response_angle_css":59,"response_angle_rdk":31,"angular_error_target":-101,"angular_error_distractor":-3,"target_direction":132,"target_group":"white","reward_points":0},{"rt":null,"stimulus":"\n          <p style=\"color: #FF3333;\">Your reward: 0 points</p>\n        ","response":null,"trial_type":"html-keyboard-response","trial_index":54,"plugin_version":"2.1.0","time_elapsed":295732},{"rt":null,"stimulus":"<div class=\"fixation\" style=\"font-size: 60px;\">+</div>","response":null,"trial_type":"html-keyboard-response","trial_index":55,"plugin_version":"2.1.0","time_elapsed":296738},{"target_group":"black","condition_label":"B_H_vs_W_L_rep25","target_direction":229,"distractor_direction":343,"session_rotation":120,"rt":-1,"response":"","correct":false,"choices":"ALL_KEYS","correct_choice":["a"],"trial_duration":2000,"flip_timestamps":[],"response_ends_trial":false,"number_of_apertures":200,"number_of_dots":[1,1,1,1,1,1,1,1,1,1,1,1,1,1,1,1,1,1,1,1,1,1,1,1,1,1,1,1,1,1,1,1,1,1,1,1,1,1,1,1,1,1,1,1,1,1,1,1,1,1,1,1,1,1,1,1,1,1,1,1,1,1,1,1,1,1,1,1,1,1,1,1,1,1,1,1,1,1,1,1,1,1,1,1,1,1,1,1,1,1,1,1,1,1,1,1,1,1,1,1,1,1,1,1,1,1,1,1,1,1,1,1,1,1,1,1,1,1,1,1,1,1,1,1,1,1,1,1,1,1,1,1,1,1,1,1,1,1,1,1,1,1,1,1,1,1,1,1,1,1,1,1,1,1,1,1,1,1,1,1,1,1,1,1,1,1,1,1,1,1,1,1,1,1,1,1,1,1,1,1,1,1,1,1,1,1,1,1,1,1,1,1,1,1,1,1,1,1,1,1],"number_of_sets":1,"coherent_direction":[343,343,229,229,343,343,343,343,343,229,343,229,343,343,343,343,229,343,229,343,343,229,343,229,229,343,229,229,229,343,229,229,343,343,229,343,343,343,229,229,343,343,343,343,229,343,343,229,229,229,343,229,229,343,343,343,343,343,229,229,343,229,343,229,343,343,229,229,229,229,229,229,343,343,229,229,229,343,343,343,229,229,229,229,229,343,343,343,229,229,343,229,343,229,229,229,229,343,229,229,343,229,229,343,229,343,229,343,343,343,229,343,343,343,343,229,229,229,343,343,229,229,343,343,229,229,229,229,229,229,343,229,229,343,229,229,229,343,343,229,343,343,343,343,343,343,229,229,229,343,229,229,229,229,229,343,343,229,229,229,343,343,229,343,343,229,229,229,229,343,343,229,343,343,343,229,229,343,343,229,229,229,343,343,343,343,343,343,343,343,343,229,229,229,343,229,343,343,229,229],"coherence":1,"opposite_coherence":0,"dot_radius":2,"dot_side_length":1,"dot_life":-1,"move_distance":1,"aperture_width":300,"aperture_height":300,"dot_color":["white","white","black","black","white","white","white","white","white","black","white","black","white","white","white","white","black","white","black","white","white","black","white","black","black","white","black","black","black","white","black","black","white","white","black","white","white","white","black","black","white","white","white","white","black","white","white","black","black","black","white","black","black","white","white","white","white","white","black","black","white","black","white","black","white","white","black","black","black","black","black","black","white","white","black","black","black","white","white","white","black","black","black","black","black","white","white","white","black","black","white","black","white","black","black","black","black","white","black","black","white","black","black","white","black","white","black","white","white","white","black","white","white","white","white","black","black","black","white","white","black","black","white","white","black","black","black","black","black","black","white","black","black","white","black","black","black","white","white","black","white","white","white","white","white","white","black","black","black","white","black","black","black","black","black","white","white","black","black","black","white","white","black","white","white","black","black","black","black","white","white","black","white","white","white","black","black","white","white","black","black","black","white","white","white","white","white","white","white","white","white","black","black","black","white","black","white","white","black","black"],"dot_shape":"circle","background_color":"#AAA","RDK_type":3,"aperture_type":2,"reinsert_type":2,"frame_rate":16.891666666666666,"frame_rate_array":[13,17,17,17,17,17,17,17,17,17,17,17,16,17,17,17,17,17,16,17,17,17,17,17,17,17,17,17,16,17,17,17,17,17,17,17,17,16,17,16,17,17,17,17,17,17,17,17,17,17,17,17,16,17,17,17,17,17,17,17,17,17,17,17,17,17,17,17,17,17,17,16,17,17,17,17,17,17,17,17,17,17,17,17,17,17,17,16,17,17,17,17,17,17,17,17,17,17,17,17,16,17,17,17,17,17,17,17,17,17,17,17,17,17,17,17,17,17,17,17],"number_of_frames":120,"aperture_center_x":960,"aperture_center_y":540,"fixation_cross":true,"fixation_cross_width":15,"fixation_cross_height":15,"fixation_cross_color":"#111","fixation_cross_thickness":1,"border":true,"border_thickness":2,"border_color":"transparent","canvas_width":1920,"canvas_height":1080,"trial_type":"rdk","trial_index":56,"plugin_version":"2.0.0","time_elapsed":298749},{"rt":1172,"stimulus":"\n        <div class=\"response-container\">\n          <div class=\"response-instruction\">\n            <p>rotate the bar by using the left and right arrow keys.</p>\n            <p>when you are determined, press the Enter key.</p>\n          </div>\n          <div class=\"response-circle\">\n            <div class=\"response-fixation\"></div>\n            <div id=\"bar\" class=\"rotating-bar\"></div>\n          </div>\n        </div>\n      ","response":"Enter","trial_type":"html-keyboard-response","trial_index":57,"plugin_version":"2.1.0","time_elapsed":299921,"response_angle_css":234,"response_angle_rdk":216,"angular_error_target":-13,"angular_error_distractor":-127,"target_direction":229,"target_group":"black","reward_points":7},{"rt":null,"stimulus":"\n          <p style=\"color: #00FF00;\">Your reward: 7 points</p>\n        ","response":null,"trial_type":"html-keyboard-response","trial_index":58,"plugin_version":"2.1.0","time_elapsed":301930},{"rt":null,"stimulus":"<div class=\"fixation\" style=\"font-size: 60px;\">+</div>","response":null,"trial_type":"html-keyboard-response","trial_index":59,"plugin_version":"2.1.0","time_elapsed":302935},{"target_group":"black","condition_label":"B_H_vs_W_L_rep19","target_direction":246,"distractor_direction":338,"session_rotation":120,"rt":-1,"response":"","correct":false,"choices":"ALL_KEYS","correct_choice":["a"],"trial_duration":2000,"flip_timestamps":[],"response_ends_trial":false,"number_of_apertures":200,"number_of_dots":[1,1,1,1,1,1,1,1,1,1,1,1,1,1,1,1,1,1,1,1,1,1,1,1,1,1,1,1,1,1,1,1,1,1,1,1,1,1,1,1,1,1,1,1,1,1,1,1,1,1,1,1,1,1,1,1,1,1,1,1,1,1,1,1,1,1,1,1,1,1,1,1,1,1,1,1,1,1,1,1,1,1,1,1,1,1,1,1,1,1,1,1,1,1,1,1,1,1,1,1,1,1,1,1,1,1,1,1,1,1,1,1,1,1,1,1,1,1,1,1,1,1,1,1,1,1,1,1,1,1,1,1,1,1,1,1,1,1,1,1,1,1,1,1,1,1,1,1,1,1,1,1,1,1,1,1,1,1,1,1,1,1,1,1,1,1,1,1,1,1,1,1,1,1,1,1,1,1,1,1,1,1,1,1,1,1,1,1,1,1,1,1,1,1,1,1,1,1,1,1],"number_of_sets":1,"coherent_direction":[338,246,338,338,338,246,338,338,246,246,338,246,246,246,338,338,338,246,338,338,246,246,246,338,246,246,246,338,338,338,338,246,338,338,246,246,246,338,246,246,338,338,338,246,246,338,246,246,338,338,246,338,246,338,246,246,338,338,338,338,246,338,246,246,338,338,338,246,246,246,338,338,246,246,246,338,246,246,246,338,338,338,338,338,338,338,246,338,246,338,246,338,338,338,338,246,338,246,246,338,246,246,338,338,246,246,338,246,246,246,338,246,246,338,246,246,338,246,338,338,338,338,246,246,338,338,246,338,246,338,338,246,338,338,246,338,246,338,246,246,338,338,338,246,246,338,246,246,246,338,246,246,246,246,338,246,338,246,338,246,338,338,338,246,246,246,338,338,338,246,246,246,338,246,338,338,246,338,338,246,338,338,338,246,246,246,246,338,338,338,338,246,246,246,246,246,338,246,246,246],"coherence":1,"opposite_coherence":0,"dot_radius":2,"dot_side_length":1,"dot_life":-1,"move_distance":1,"aperture_width":300,"aperture_height":300,"dot_color":["white","black","white","white","white","black","white","white","black","black","white","black","black","black","white","white","white","black","white","white","black","black","black","white","black","black","black","white","white","white","white","black","white","white","black","black","black","white","black","black","white","white","white","black","black","white","black","black","white","white","black","white","black","white","black","black","white","white","white","white","black","white","black","black","white","white","white","black","black","black","white","white","black","black","black","white","black","black","black","white","white","white","white","white","white","white","black","white","black","white","black","white","white","white","white","black","white","black","black","white","black","black","white","white","black","black","white","black","black","black","white","black","black","white","black","black","white","black","white","white","white","white","black","black","white","white","black","white","black","white","white","black","white","white","black","white","black","white","black","black","white","white","white","black","black","white","black","black","black","white","black","black","black","black","white","black","white","black","white","black","white","white","white","black","black","black","white","white","white","black","black","black","white","black","white","white","black","white","white","black","white","white","white","black","black","black","black","white","white","white","white","black","black","black","black","black","white","black","black","black"],"dot_shape":"circle","background_color":"#AAA","RDK_type":3,"aperture_type":2,"reinsert_type":2,"frame_rate":16.933333333333334,"frame_rate_array":[16,17,17,17,17,17,17,17,17,17,17,17,17,17,16,17,17,17,17,17,17,17,17,17,17,16,17,17,17,17,17,16,17,17,17,17,17,17,17,17,17,17,17,17,17,17,17,17,17,17,17,17,17,17,17,17,17,17,17,17,17,17,17,16,17,17,17,17,17,17,17,17,17,17,17,17,17,17,17,17,17,16,17,17,17,17,17,17,17,17,17,17,16,17,17,17,17,17,17,17,17,17,17,17,17,17,17,17,17,17,17,17,16,17,17,17,17,17,17,17],"number_of_frames":120,"aperture_center_x":960,"aperture_center_y":540,"fixation_cross":true,"fixation_cross_width":15,"fixation_cross_height":15,"fixation_cross_color":"#111","fixation_cross_thickness":1,"border":true,"border_thickness":2,"border_color":"transparent","canvas_width":1920,"canvas_height":1080,"trial_type":"rdk","trial_index":60,"plugin_version":"2.0.0","time_elapsed":304938},{"rt":2650,"stimulus":"\n        <div class=\"response-container\">\n          <div class=\"response-instruction\">\n            <p>rotate the bar by using the left and right arrow keys.</p>\n            <p>when you are determined, press the Enter key.</p>\n          </div>\n          <div class=\"response-circle\">\n            <div class=\"response-fixation\"></div>\n            <div id=\"bar\" class=\"rotating-bar\"></div>\n          </div>\n        </div>\n      ","response":"Enter","trial_type":"html-keyboard-response","trial_index":61,"plugin_version":"2.1.0","time_elapsed":307588,"response_angle_css":201,"response_angle_rdk":249,"angular_error_target":3,"angular_error_distractor":-89,"target_direction":246,"target_group":"black","reward_points":9},{"rt":null,"stimulus":"\n          <p style=\"color: #00FF00;\">Your reward: 9 points</p>\n        ","response":null,"trial_type":"html-keyboard-response","trial_index":62,"plugin_version":"2.1.0","time_elapsed":309592},{"rt":null,"stimulus":"<div class=\"fixation\" style=\"font-size: 60px;\">+</div>","response":null,"trial_type":"html-keyboard-response","trial_index":63,"plugin_version":"2.1.0","time_elapsed":310608},{"target_group":"white","condition_label":"W_H_vs_B_L_rep19","target_direction":159,"distractor_direction":60,"session_rotation":120,"rt":1445,"response":"ArrowLeft","correct":false,"choices":"ALL_KEYS","correct_choice":["a"],"trial_duration":2000,"flip_timestamps":[],"response_ends_trial":false,"number_of_apertures":200,"number_of_dots":[1,1,1,1,1,1,1,1,1,1,1,1,1,1,1,1,1,1,1,1,1,1,1,1,1,1,1,1,1,1,1,1,1,1,1,1,1,1,1,1,1,1,1,1,1,1,1,1,1,1,1,1,1,1,1,1,1,1,1,1,1,1,1,1,1,1,1,1,1,1,1,1,1,1,1,1,1,1,1,1,1,1,1,1,1,1,1,1,1,1,1,1,1,1,1,1,1,1,1,1,1,1,1,1,1,1,1,1,1,1,1,1,1,1,1,1,1,1,1,1,1,1,1,1,1,1,1,1,1,1,1,1,1,1,1,1,1,1,1,1,1,1,1,1,1,1,1,1,1,1,1,1,1,1,1,1,1,1,1,1,1,1,1,1,1,1,1,1,1,1,1,1,1,1,1,1,1,1,1,1,1,1,1,1,1,1,1,1,1,1,1,1,1,1,1,1,1,1,1,1],"number_of_sets":1,"coherent_direction":[159,60,159,60,60,60,159,60,60,159,159,60,159,60,60,159,159,159,159,60,159,159,60,159,60,159,60,159,159,60,159,60,60,60,159,159,60,159,159,60,60,159,60,60,159,60,60,60,60,60,60,159,159,60,60,60,159,60,60,60,60,159,60,159,159,60,60,159,159,159,159,60,60,159,159,60,159,60,159,159,159,159,159,60,60,60,60,60,159,60,159,159,60,159,159,159,60,159,60,159,159,60,159,159,159,159,60,159,159,60,159,60,159,60,159,60,159,60,159,60,60,60,60,159,159,159,159,159,60,60,159,60,159,60,60,159,60,60,60,60,60,159,159,60,60,159,60,159,159,60,159,159,159,159,60,159,60,159,159,159,60,159,159,60,60,159,60,159,60,60,60,159,60,60,159,60,159,60,60,60,60,159,60,159,159,159,60,60,60,159,60,159,159,159,159,159,159,60,60,60],"coherence":1,"opposite_coherence":0,"dot_radius":2,"dot_side_length":1,"dot_life":-1,"move_distance":1,"aperture_width":300,"aperture_height":300,"dot_color":["white","black","white","black","black","black","white","black","black","white","white","black","white","black","black","white","white","white","white","black","white","white","black","white","black","white","black","white","white","black","white","black","black","black","white","white","black","white","white","black","black","white","black","black","white","black","black","black","black","black","black","white","white","black","black","black","white","black","black","black","black","white","black","white","white","black","black","white","white","white","white","black","black","white","white","black","white","black","white","white","white","white","white","black","black","black","black","black","white","black","white","white","black","white","white","white","black","white","black","white","white","black","white","white","white","white","black","white","white","black","white","black","white","black","white","black","white","black","white","black","black","black","black","white","white","white","white","white","black","black","white","black","white","black","black","white","black","black","black","black","black","white","white","black","black","white","black","white","white","black","white","white","white","white","black","white","black","white","white","white","black","white","white","black","black","white","black","white","black","black","black","white","black","black","white","black","white","black","black","black","black","white","black","white","white","white","black","black","black","white","black","white","white","white","white","white","white","black","black","black"],"dot_shape":"circle","background_color":"#AAA","RDK_type":3,"aperture_type":2,"reinsert_type":2,"frame_rate":16.866666666666667,"frame_rate_array":[9,17,17,16,17,17,17,17,17,17,17,17,17,17,17,17,17,17,17,17,17,17,16,17,17,17,17,17,17,17,17,17,17,17,17,17,17,17,17,17,17,17,17,17,17,19,15,17,17,17,17,17,17,17,17,17,17,17,17,17,17,17,17,17,17,17,17,17,17,17,16,17,17,17,17,17,17,17,17,17,17,17,16,17,17,17,16,17,17,17,17,17,17,17,17,16,17,16,17,17,17,16,17,17,17,17,17,17,17,17,17,17,17,17,17,17,17,17,17,17],"number_of_frames":120,"aperture_center_x":960,"aperture_center_y":540,"fixation_cross":true,"fixation_cross_width":15,"fixation_cross_height":15,"fixation_cross_color":"#111","fixation_cross_thickness":1,"border":true,"border_thickness":2,"border_color":"transparent","canvas_width":1920,"canvas_height":1080,"trial_type":"rdk","trial_index":64,"plugin_version":"2.0.0","time_elapsed":312614},{"rt":857,"stimulus":"\n        <div class=\"response-container\">\n          <div class=\"response-instruction\">\n            <p>rotate the bar by using the left and right arrow keys.</p>\n            <p>when you are determined, press the Enter key.</p>\n          </div>\n          <div class=\"response-circle\">\n            <div class=\"response-fixation\"></div>\n            <div id=\"bar\" class=\"rotating-bar\"></div>\n          </div>\n        </div>\n      ","response":"Enter","trial_type":"html-keyboard-response","trial_index":65,"plugin_version":"2.1.0","time_elapsed":313471,"response_angle_css":37,"response_angle_rdk":53,"angular_error_target":-106,"angular_error_distractor":-7,"target_direction":159,"target_group":"white","reward_points":0},{"rt":null,"stimulus":"\n          <p style=\"color: #FF3333;\">Your reward: 0 points</p>\n        ","response":null,"trial_type":"html-keyboard-response","trial_index":66,"plugin_version":"2.1.0","time_elapsed":315477},{"rt":null,"stimulus":"<div class=\"fixation\" style=\"font-size: 60px;\">+</div>","response":null,"trial_type":"html-keyboard-response","trial_index":67,"plugin_version":"2.1.0","time_elapsed":316482},{"target_group":"white","condition_label":"W_H_vs_B_L_rep24","target_direction":161,"distractor_direction":57,"session_rotation":120,"rt":-1,"response":"","correct":false,"choices":"ALL_KEYS","correct_choice":["a"],"trial_duration":2000,"flip_timestamps":[],"response_ends_trial":false,"number_of_apertures":200,"number_of_dots":[1,1,1,1,1,1,1,1,1,1,1,1,1,1,1,1,1,1,1,1,1,1,1,1,1,1,1,1,1,1,1,1,1,1,1,1,1,1,1,1,1,1,1,1,1,1,1,1,1,1,1,1,1,1,1,1,1,1,1,1,1,1,1,1,1,1,1,1,1,1,1,1,1,1,1,1,1,1,1,1,1,1,1,1,1,1,1,1,1,1,1,1,1,1,1,1,1,1,1,1,1,1,1,1,1,1,1,1,1,1,1,1,1,1,1,1,1,1,1,1,1,1,1,1,1,1,1,1,1,1,1,1,1,1,1,1,1,1,1,1,1,1,1,1,1,1,1,1,1,1,1,1,1,1,1,1,1,1,1,1,1,1,1,1,1,1,1,1,1,1,1,1,1,1,1,1,1,1,1,1,1,1,1,1,1,1,1,1,1,1,1,1,1,1,1,1,1,1,1,1],"number_of_sets":1,"coherent_direction":[57,161,57,161,57,57,161,161,57,161,161,161,57,57,161,161,57,57,161,57,57,57,57,57,161,57,57,161,161,57,57,57,161,161,57,57,161,161,161,57,161,161,57,161,161,57,161,161,57,57,161,161,57,161,161,161,57,161,57,57,57,161,161,161,161,57,161,161,161,161,57,57,57,57,57,57,161,57,161,161,57,161,57,57,57,57,161,57,161,161,161,161,161,161,57,57,57,161,57,57,57,161,161,57,57,161,161,161,57,161,57,57,57,57,161,161,161,161,161,161,161,161,161,57,161,57,57,57,57,57,161,161,161,57,57,57,57,57,161,57,57,57,57,57,161,57,57,161,161,161,57,161,57,161,161,161,57,161,161,57,57,161,161,57,161,57,57,161,57,57,161,57,161,57,57,57,161,57,161,161,161,161,161,161,57,161,57,57,57,57,161,57,57,57,161,161,161,161,161,57],"coherence":1,"opposite_coherence":0,"dot_radius":2,"dot_side_length":1,"dot_life":-1,"move_distance":1,"aperture_width":300,"aperture_height":300,"dot_color":["black","white","black","white","black","black","white","white","black","white","white","white","black","black","white","white","black","black","white","black","black","black","black","black","white","black","black","white","white","black","black","black","white","white","black","black","white","white","white","black","white","white","black","white","white","black","white","white","black","black","white","white","black","white","white","white","black","white","black","black","black","white","white","white","white","black","white","white","white","white","black","black","black","black","black","black","white","black","white","white","black","white","black","black","black","black","white","black","white","white","white","white","white","white","black","black","black","white","black","black","black","white","white","black","black","white","white","white","black","white","black","black","black","black","white","white","white","white","white","white","white","white","white","black","white","black","black","black","black","black","white","white","white","black","black","black","black","black","white","black","black","black","black","black","white","black","black","white","white","white","black","white","black","white","white","white","black","white","white","black","black","white","white","black","white","black","black","white","black","black","white","black","white","black","black","black","white","black","white","white","white","white","white","white","black","white","black","black","black","black","white","black","black","black","white","white","white","white","white","black"],"dot_shape":"circle","background_color":"#AAA","RDK_type":3,"aperture_type":2,"reinsert_type":2,"frame_rate":16.776859504132233,"frame_rate_array":[2,18,16,16,17,16,17,17,17,17,17,17,17,17,17,17,17,17,17,17,17,17,17,17,17,17,17,16,17,17,16,17,17,17,17,17,17,17,17,17,17,17,17,17,17,17,17,17,17,17,16,17,17,17,17,17,17,17,17,17,17,17,17,17,17,17,17,17,17,17,17,17,17,16,17,17,17,17,17,17,17,17,17,17,17,17,17,17,17,17,17,17,17,16,17,17,16,17,16,17,17,17,17,17,17,17,17,17,17,17,16,17,18,17,16,17,15,17,17,17,17],"number_of_frames":121,"aperture_center_x":960,"aperture_center_y":540,"fixation_cross":true,"fixation_cross_width":15,"fixation_cross_height":15,"fixation_cross_color":"#111","fixation_cross_thickness":1,"border":true,"border_thickness":2,"border_color":"transparent","canvas_width":1920,"canvas_height":1080,"trial_type":"rdk","trial_index":68,"plugin_version":"2.0.0","time_elapsed":318488},{"rt":1041,"stimulus":"\n        <div class=\"response-container\">\n          <div class=\"response-instruction\">\n            <p>rotate the bar by using the left and right arrow keys.</p>\n            <p>when you are determined, press the Enter key.</p>\n          </div>\n          <div class=\"response-circle\">\n            <div class=\"response-fixation\"></div>\n            <div id=\"bar\" class=\"rotating-bar\"></div>\n          </div>\n        </div>\n      ","response":"Enter","trial_type":"html-keyboard-response","trial_index":69,"plugin_version":"2.1.0","time_elapsed":319529,"response_angle_css":34,"response_angle_rdk":56,"angular_error_target":-105,"angular_error_distractor":-1,"target_direction":161,"target_group":"white","reward_points":0},{"rt":null,"stimulus":"\n          <p style=\"color: #FF3333;\">Your reward: 0 points</p>\n        ","response":null,"trial_type":"html-keyboard-response","trial_index":70,"plugin_version":"2.1.0","time_elapsed":321541},{"rt":null,"stimulus":"<div class=\"fixation\" style=\"font-size: 60px;\">+</div>","response":null,"trial_type":"html-keyboard-response","trial_index":71,"plugin_version":"2.1.0","time_elapsed":322549},{"target_group":"black","condition_label":"B_H_vs_W_L_rep9","target_direction":223,"distractor_direction":324,"session_rotation":120,"rt":-1,"response":"","correct":false,"choices":"ALL_KEYS","correct_choice":["a"],"trial_duration":2000,"flip_timestamps":[],"response_ends_trial":false,"number_of_apertures":200,"number_of_dots":[1,1,1,1,1,1,1,1,1,1,1,1,1,1,1,1,1,1,1,1,1,1,1,1,1,1,1,1,1,1,1,1,1,1,1,1,1,1,1,1,1,1,1,1,1,1,1,1,1,1,1,1,1,1,1,1,1,1,1,1,1,1,1,1,1,1,1,1,1,1,1,1,1,1,1,1,1,1,1,1,1,1,1,1,1,1,1,1,1,1,1,1,1,1,1,1,1,1,1,1,1,1,1,1,1,1,1,1,1,1,1,1,1,1,1,1,1,1,1,1,1,1,1,1,1,1,1,1,1,1,1,1,1,1,1,1,1,1,1,1,1,1,1,1,1,1,1,1,1,1,1,1,1,1,1,1,1,1,1,1,1,1,1,1,1,1,1,1,1,1,1,1,1,1,1,1,1,1,1,1,1,1,1,1,1,1,1,1,1,1,1,1,1,1,1,1,1,1,1,1],"number_of_sets":1,"coherent_direction":[324,324,223,324,223,223,324,324,324,324,324,223,324,324,223,223,223,324,324,324,324,223,223,223,324,324,324,324,324,324,324,223,223,223,324,223,223,324,324,223,324,223,223,324,324,324,324,324,324,223,223,324,223,223,324,223,223,324,324,223,223,324,324,223,223,223,223,324,324,223,223,324,223,223,324,324,324,223,223,223,223,324,324,324,223,223,223,324,223,324,324,324,324,324,324,223,223,223,324,324,223,223,223,324,223,223,324,223,324,324,223,324,223,223,324,324,324,324,324,324,223,223,223,223,324,324,223,223,223,223,223,223,324,324,324,324,223,223,223,324,223,324,223,324,324,223,324,223,223,223,223,324,324,223,223,324,324,324,223,223,223,324,324,324,223,223,324,324,324,223,324,223,324,223,223,324,324,324,324,223,324,223,223,223,223,223,223,223,324,324,223,324,223,223,223,324,324,223,223,223],"coherence":1,"opposite_coherence":0,"dot_radius":2,"dot_side_length":1,"dot_life":-1,"move_distance":1,"aperture_width":300,"aperture_height":300,"dot_color":["white","white","black","white","black","black","white","white","white","white","white","black","white","white","black","black","black","white","white","white","white","black","black","black","white","white","white","white","white","white","white","black","black","black","white","black","black","white","white","black","white","black","black","white","white","white","white","white","white","black","black","white","black","black","white","black","black","white","white","black","black","white","white","black","black","black","black","white","white","black","black","white","black","black","white","white","white","black","black","black","black","white","white","white","black","black","black","white","black","white","white","white","white","white","white","black","black","black","white","white","black","black","black","white","black","black","white","black","white","white","black","white","black","black","white","white","white","white","white","white","black","black","black","black","white","white","black","black","black","black","black","black","white","white","white","white","black","black","black","white","black","white","black","white","white","black","white","black","black","black","black","white","white","black","black","white","white","white","black","black","black","white","white","white","black","black","white","white","white","black","white","black","white","black","black","white","white","white","white","black","white","black","black","black","black","black","black","black","white","white","black","white","black","black","black","white","white","black","black","black"],"dot_shape":"circle","background_color":"#AAA","RDK_type":3,"aperture_type":2,"reinsert_type":2,"frame_rate":16.71900826446281,"frame_rate_array":[4,14,17,17,17,17,17,17,18,16,16,17,16,17,17,16,17,17,17,17,17,17,18,15,17,18,15,17,17,17,17,17,18,16,17,16,17,16,17,17,17,17,17,17,16,17,17,17,17,17,18,19,17,14,17,17,17,17,17,17,16,17,16,17,16,17,17,17,17,17,17,17,17,17,17,17,17,17,17,17,17,17,17,16,16,17,17,17,17,17,17,17,16,17,16,17,16,17,17,17,17,17,17,17,17,17,17,18,15,16,17,17,17,17,17,17,17,17,17,17,17],"number_of_frames":121,"aperture_center_x":960,"aperture_center_y":540,"fixation_cross":true,"fixation_cross_width":15,"fixation_cross_height":15,"fixation_cross_color":"#111","fixation_cross_thickness":1,"border":true,"border_thickness":2,"border_color":"transparent","canvas_width":1920,"canvas_height":1080,"trial_type":"rdk","trial_index":72,"plugin_version":"2.0.0","time_elapsed":324556},{"rt":2852,"stimulus":"\n        <div class=\"response-container\">\n          <div class=\"response-instruction\">\n            <p>rotate the bar by using the left and right arrow keys.</p>\n            <p>when you are determined, press the Enter key.</p>\n          </div>\n          <div class=\"response-circle\">\n            <div class=\"response-fixation\"></div>\n            <div id=\"bar\" class=\"rotating-bar\"></div>\n          </div>\n        </div>\n      ","response":"Enter","trial_type":"html-keyboard-response","trial_index":73,"plugin_version":"2.1.0","time_elapsed":327408,"response_angle_css":-134,"response_angle_rdk":224,"angular_error_target":1,"angular_error_distractor":-100,"target_direction":223,"target_group":"black","reward_points":9},{"rt":null,"stimulus":"\n          <p style=\"color: #00FF00;\">Your reward: 9 points</p>\n        ","response":null,"trial_type":"html-keyboard-response","trial_index":74,"plugin_version":"2.1.0","time_elapsed":329411},{"rt":null,"stimulus":"<div class=\"fixation\" style=\"font-size: 60px;\">+</div>","response":null,"trial_type":"html-keyboard-response","trial_index":75,"plugin_version":"2.1.0","time_elapsed":330416},{"target_group":"black","condition_label":"B_H_vs_W_L_rep18","target_direction":223,"distractor_direction":341,"session_rotation":120,"rt":-1,"response":"","correct":false,"choices":"ALL_KEYS","correct_choice":["a"],"trial_duration":2000,"flip_timestamps":[],"response_ends_trial":false,"number_of_apertures":200,"number_of_dots":[1,1,1,1,1,1,1,1,1,1,1,1,1,1,1,1,1,1,1,1,1,1,1,1,1,1,1,1,1,1,1,1,1,1,1,1,1,1,1,1,1,1,1,1,1,1,1,1,1,1,1,1,1,1,1,1,1,1,1,1,1,1,1,1,1,1,1,1,1,1,1,1,1,1,1,1,1,1,1,1,1,1,1,1,1,1,1,1,1,1,1,1,1,1,1,1,1,1,1,1,1,1,1,1,1,1,1,1,1,1,1,1,1,1,1,1,1,1,1,1,1,1,1,1,1,1,1,1,1,1,1,1,1,1,1,1,1,1,1,1,1,1,1,1,1,1,1,1,1,1,1,1,1,1,1,1,1,1,1,1,1,1,1,1,1,1,1,1,1,1,1,1,1,1,1,1,1,1,1,1,1,1,1,1,1,1,1,1,1,1,1,1,1,1,1,1,1,1,1,1],"number_of_sets":1,"coherent_direction":[223,223,223,223,341,223,223,341,223,341,223,341,223,341,341,341,341,341,341,223,223,341,223,223,223,341,223,223,341,223,223,341,223,223,223,341,223,341,223,341,223,223,223,341,341,223,341,223,341,223,223,341,341,223,223,341,341,341,341,341,223,223,341,223,223,341,223,341,223,223,341,223,341,223,223,341,341,223,341,223,341,341,223,341,223,341,341,223,223,341,223,341,341,341,223,341,223,341,341,341,341,223,341,341,341,341,341,341,341,223,341,341,223,341,223,223,223,341,341,223,223,341,341,223,341,223,223,341,341,341,223,341,223,341,223,223,341,223,223,341,341,223,341,223,223,223,223,223,341,223,341,341,341,223,223,341,341,223,341,341,223,223,223,341,223,341,223,223,223,223,341,341,223,341,341,341,341,341,341,223,223,223,223,223,223,223,341,341,341,223,341,223,341,341,223,341,341,223,223,223],"coherence":1,"opposite_coherence":0,"dot_radius":2,"dot_side_length":1,"dot_life":-1,"move_distance":1,"aperture_width":300,"aperture_height":300,"dot_color":["black","black","black","black","white","black","black","white","black","white","black","white","black","white","white","white","white","white","white","black","black","white","black","black","black","white","black","black","white","black","black","white","black","black","black","white","black","white","black","white","black","black","black","white","white","black","white","black","white","black","black","white","white","black","black","white","white","white","white","white","black","black","white","black","black","white","black","white","black","black","white","black","white","black","black","white","white","black","white","black","white","white","black","white","black","white","white","black","black","white","black","white","white","white","black","white","black","white","white","white","white","black","white","white","white","white","white","white","white","black","white","white","black","white","black","black","black","white","white","black","black","white","white","black","white","black","black","white","white","white","black","white","black","white","black","black","white","black","black","white","white","black","white","black","black","black","black","black","white","black","white","white","white","black","black","white","white","black","white","white","black","black","black","white","black","white","black","black","black","black","white","white","black","white","white","white","white","white","white","black","black","black","black","black","black","black","white","white","white","black","white","black","white","white","black","white","white","black","black","black"],"dot_shape":"circle","background_color":"#AAA","RDK_type":3,"aperture_type":2,"reinsert_type":2,"frame_rate":16.8,"frame_rate_array":[5,14,17,17,16,18,16,17,17,17,17,17,17,16,16,17,17,17,17,17,17,17,17,17,17,17,17,17,17,17,17,17,17,17,17,17,17,17,17,17,17,17,17,17,17,17,17,17,16,17,16,17,17,17,17,17,17,17,17,17,17,17,17,17,17,17,17,17,17,17,17,16,17,17,17,17,17,17,17,17,17,17,17,17,16,17,17,16,17,17,17,17,17,17,17,17,17,17,17,17,17,17,17,17,17,17,16,17,17,17,17,17,17,17,17,17,17,17,17,17],"number_of_frames":120,"aperture_center_x":960,"aperture_center_y":540,"fixation_cross":true,"fixation_cross_width":15,"fixation_cross_height":15,"fixation_cross_color":"#111","fixation_cross_thickness":1,"border":true,"border_thickness":2,"border_color":"transparent","canvas_width":1920,"canvas_height":1080,"trial_type":"rdk","trial_index":76,"plugin_version":"2.0.0","time_elapsed":332419},{"rt":1804,"stimulus":"\n        <div class=\"response-container\">\n          <div class=\"response-instruction\">\n            <p>rotate the bar by using the left and right arrow keys.</p>\n            <p>when you are determined, press the Enter key.</p>\n          </div>\n          <div class=\"response-circle\">\n            <div class=\"response-fixation\"></div>\n            <div id=\"bar\" class=\"rotating-bar\"></div>\n          </div>\n        </div>\n      ","response":"Enter","trial_type":"html-keyboard-response","trial_index":77,"plugin_version":"2.1.0","time_elapsed":334223,"response_angle_css":248,"response_angle_rdk":202,"angular_error_target":-21,"angular_error_distractor":-139,"target_direction":223,"target_group":"black","reward_points":5},{"rt":null,"stimulus":"\n          <p style=\"color: #00FF00;\">Your reward: 5 points</p>\n        ","response":null,"trial_type":"html-keyboard-response","trial_index":78,"plugin_version":"2.1.0","time_elapsed":336235},{"rt":null,"stimulus":"<div class=\"fixation\" style=\"font-size: 60px;\">+</div>","response":null,"trial_type":"html-keyboard-response","trial_index":79,"plugin_version":"2.1.0","time_elapsed":337248},{"target_group":"black","condition_label":"B_H_vs_W_L_rep24","target_direction":224,"distractor_direction":315,"session_rotation":120,"rt":-1,"response":"","correct":false,"choices":"ALL_KEYS","correct_choice":["a"],"trial_duration":2000,"flip_timestamps":[],"response_ends_trial":false,"number_of_apertures":200,"number_of_dots":[1,1,1,1,1,1,1,1,1,1,1,1,1,1,1,1,1,1,1,1,1,1,1,1,1,1,1,1,1,1,1,1,1,1,1,1,1,1,1,1,1,1,1,1,1,1,1,1,1,1,1,1,1,1,1,1,1,1,1,1,1,1,1,1,1,1,1,1,1,1,1,1,1,1,1,1,1,1,1,1,1,1,1,1,1,1,1,1,1,1,1,1,1,1,1,1,1,1,1,1,1,1,1,1,1,1,1,1,1,1,1,1,1,1,1,1,1,1,1,1,1,1,1,1,1,1,1,1,1,1,1,1,1,1,1,1,1,1,1,1,1,1,1,1,1,1,1,1,1,1,1,1,1,1,1,1,1,1,1,1,1,1,1,1,1,1,1,1,1,1,1,1,1,1,1,1,1,1,1,1,1,1,1,1,1,1,1,1,1,1,1,1,1,1,1,1,1,1,1,1],"number_of_sets":1,"coherent_direction":[315,315,224,224,224,224,315,315,315,224,315,315,224,224,315,315,224,315,224,224,315,315,224,224,224,315,224,224,224,224,224,315,315,315,315,224,315,315,315,315,315,315,224,224,224,224,315,315,315,315,224,224,224,315,224,315,315,315,224,224,224,315,224,224,315,224,315,224,315,315,224,224,224,224,315,315,224,315,315,224,315,224,224,224,224,315,315,224,315,315,224,315,315,315,224,224,315,224,315,315,315,315,224,224,315,224,315,315,224,224,224,315,315,224,224,315,224,224,315,315,315,224,224,224,224,315,315,315,315,224,315,315,315,224,315,224,224,315,315,315,224,315,315,224,224,224,224,315,224,224,315,224,315,224,224,224,315,315,224,224,224,224,315,315,315,224,315,224,315,224,315,315,224,315,224,224,315,224,315,224,315,315,315,224,224,315,224,224,224,315,224,224,224,315,224,224,315,315,315,315],"coherence":1,"opposite_coherence":0,"dot_radius":2,"dot_side_length":1,"dot_life":-1,"move_distance":1,"aperture_width":300,"aperture_height":300,"dot_color":["white","white","black","black","black","black","white","white","white","black","white","white","black","black","white","white","black","white","black","black","white","white","black","black","black","white","black","black","black","black","black","white","white","white","white","black","white","white","white","white","white","white","black","black","black","black","white","white","white","white","black","black","black","white","black","white","white","white","black","black","black","white","black","black","white","black","white","black","white","white","black","black","black","black","white","white","black","white","white","black","white","black","black","black","black","white","white","black","white","white","black","white","white","white","black","black","white","black","white","white","white","white","black","black","white","black","white","white","black","black","black","white","white","black","black","white","black","black","white","white","white","black","black","black","black","white","white","white","white","black","white","white","white","black","white","black","black","white","white","white","black","white","white","black","black","black","black","white","black","black","white","black","white","black","black","black","white","white","black","black","black","black","white","white","white","black","white","