[{"rt":732524,"stimulus":"Welcome to the experiment. Press any key to begin.","response":" ","trial_type":"html-keyboard-response","trial_index":0,"plugin_version":"2.1.0","time_elapsed":732528},{"rt":19865,"stimulus":"\n        <div class=\"instructions-container\">\n          <h2>Instructions</h2>\n\n          <p>\n          In this experiment, you will see <strong>two Random Dot Kinematograms (RDKs)</strong> displayed simultaneously.\n          </p>\n\n          <p>\n          An RDK is a visual stimulus consisting of many small dots that move coherently in a single direction. \n          In this experiment, the dots will be either <strong>white</strong> or <strong>black</strong> \n          (see the short demo below for an example of an RDK stimulus).\n          </p>\n\n          <p>\n          On each trial, the two RDKs will move in different directions. \n          Your task is to decide <strong>which RDK appears to contain more dots</strong>.\n          </p>\n\n          <p>\n          The RDK that you judge to have more dots is called the <strong>target RDK</strong>. \n          For example, if the white RDK appears to have more dots than the black RDK, \n          you should report the motion direction of the white RDK.\n          </p>\n\n          <p>\n          After viewing the RDKs, you will rotate a bar to indicate the perceived direction of the target RDK \n          using the <strong>left</strong> and <strong>right arrow keys</strong>. \n          Press <strong>Enter</strong> when you are satisfied with your response.\n          </p>\n\n          <p>\n          You will receive points based on the <strong>accuracy of your response</strong>, \n          and your final <strong>bonus reward</strong> may depend on your overall performance. \n          Please try to respond as accurately as possible.\n          </p>\n\n          <p>\n          You will first complete <strong>three practice trials</strong>. \n          Press the <strong>Enter</strong> key to start the practice phase.\n          </p>\n\n          <canvas id=\"instruction-demo-rdk\" width=\"300\" height=\"300\"style=\"display:block;margin:12px auto; border-radius: 50%;\"></canvas>\n        </div>\n      ","response":"Enter","trial_type":"html-keyboard-response","trial_index":1,"plugin_version":"2.1.0","time_elapsed":752396},{"rt":null,"stimulus":"<div class=\"fixation\" style=\"font-size: 60px;\">+</div>","response":null,"trial_type":"html-keyboard-response","trial_index":2,"plugin_version":"2.1.0","time_elapsed":753402},{"target_group":"black","target_index":1,"condition_label":"B_H_vs_W_L","rt":-1,"response":"","correct":false,"choices":"ALL_KEYS","correct_choice":["a"],"trial_duration":2000,"flip_timestamps":[],"response_ends_trial":false,"number_of_apertures":2,"number_of_dots":[50,100],"number_of_sets":1,"coherent_direction":[10,100],"coherence":1,"opposite_coherence":0,"dot_radius":2,"dot_side_length":1,"dot_life":-1,"move_distance":1,"aperture_width":300,"aperture_height":300,"dot_color":["white","black"],"dot_shape":"circle","background_color":"#AAA","RDK_type":3,"aperture_type":2,"reinsert_type":2,"frame_rate":16.75206611570248,"frame_rate_array":[1,17,19,15,17,17,17,17,17,17,17,17,17,17,17,17,17,17,17,17,17,17,16,17,17,16,16,17,17,17,17,17,17,17,17,17,17,17,17,17,17,17,17,17,17,16,17,17,17,17,17,17,16,17,16,17,17,17,17,17,17,16,17,17,17,17,17,17,17,16,17,17,17,16,17,17,17,17,17,17,17,17,17,17,16,17,17,17,17,17,17,17,17,17,17,17,16,17,17,17,17,17,16,17,17,17,17,17,17,17,17,17,16,17,17,16,17,17,17,17,17],"number_of_frames":121,"aperture_center_x":960,"aperture_center_y":540,"fixation_cross":true,"fixation_cross_width":15,"fixation_cross_height":15,"fixation_cross_color":"#111","fixation_cross_thickness":1,"border":true,"border_thickness":2,"border_color":"transparent","canvas_width":1920,"canvas_height":1080,"trial_type":"rdk","trial_index":3,"plugin_version":"2.0.0","time_elapsed":755410,"target_direction":100,"distractor_direction":10},{"rt":4962,"stimulus":"\n        <div class=\"response-container\">\n          <div class=\"response-instruction\">\n            <p>rotate the bar by using the left and right arrow keys.</p>\n            <p>when you are determined, press the Enter key.</p>\n          </div>\n          <div class=\"response-circle\">\n            <div class=\"response-fixation\"></div>\n            <div id=\"bar\" class=\"rotating-bar\"></div>\n          </div>\n        </div>\n      ","response":"Enter","trial_type":"html-keyboard-response","trial_index":4,"plugin_version":"2.1.0","time_elapsed":760373,"response_angle_css":-47,"response_angle_rdk":137,"angular_error_target":37,"angular_error_distractor":127,"target_direction":100,"target_group":"black","reward_points":2},{"rt":null,"stimulus":"\n          <p style=\"color: #FF3333;\">Your reward: 2 points</p>\n        ","response":null,"trial_type":"html-keyboard-response","trial_index":5,"plugin_version":"2.1.0","time_elapsed":762375},{"rt":null,"stimulus":"<div class=\"fixation\" style=\"font-size: 60px;\">+</div>","response":null,"trial_type":"html-keyboard-response","trial_index":6,"plugin_version":"2.1.0","time_elapsed":763390},{"target_group":"white","target_index":0,"condition_label":"W_H_vs_B_L","rt":-1,"response":"","correct":false,"choices":"ALL_KEYS","correct_choice":["a"],"trial_duration":2000,"flip_timestamps":[],"response_ends_trial":false,"number_of_apertures":2,"number_of_dots":[100,50],"number_of_sets":1,"coherent_direction":[150,30],"coherence":1,"opposite_coherence":0,"dot_radius":2,"dot_side_length":1,"dot_life":-1,"move_distance":1,"aperture_width":300,"aperture_height":300,"dot_color":["white","black"],"dot_shape":"circle","background_color":"#AAA","RDK_type":3,"aperture_type":2,"reinsert_type":2,"frame_rate":16.710743801652892,"frame_rate_array":[0,14,17,19,15,17,17,17,16,17,17,17,17,17,17,16,17,17,17,17,17,17,17,17,17,17,17,17,17,17,16,17,17,16,17,17,17,17,16,17,17,17,17,17,16,17,17,16,17,17,17,17,17,17,17,17,17,17,17,17,17,16,17,17,16,17,17,17,17,17,17,17,17,17,16,16,17,17,17,17,17,17,17,17,17,16,17,17,17,17,17,17,16,17,17,17,17,17,16,16,17,17,17,17,17,17,17,17,17,17,17,17,17,17,17,17,17,17,17,17,17],"number_of_frames":121,"aperture_center_x":960,"aperture_center_y":540,"fixation_cross":true,"fixation_cross_width":15,"fixation_cross_height":15,"fixation_cross_color":"#111","fixation_cross_thickness":1,"border":true,"border_thickness":2,"border_color":"transparent","canvas_width":1920,"canvas_height":1080,"trial_type":"rdk","trial_index":7,"plugin_version":"2.0.0","time_elapsed":765394,"target_direction":150,"distractor_direction":30},{"rt":3685,"stimulus":"\n        <div class=\"response-container\">\n          <div class=\"response-instruction\">\n            <p>rotate the bar by using the left and right arrow keys.</p>\n            <p>when you are determined, press the Enter key.</p>\n          </div>\n          <div class=\"response-circle\">\n            <div class=\"response-fixation\"></div>\n            <div id=\"bar\" class=\"rotating-bar\"></div>\n          </div>\n        </div>\n      ","response":"Enter","trial_type":"html-keyboard-response","trial_index":8,"plugin_version":"2.1.0","time_elapsed":769080,"response_angle_css":-54,"response_angle_rdk":144,"angular_error_target":-6,"angular_error_distractor":114,"target_direction":150,"target_group":"white","reward_points":8},{"rt":null,"stimulus":"\n          <p style=\"color: #00FF00;\">Your reward: 8 points</p>\n        ","response":null,"trial_type":"html-keyboard-response","trial_index":9,"plugin_version":"2.1.0","time_elapsed":771084},{"rt":null,"stimulus":"<div class=\"fixation\" style=\"font-size: 60px;\">+</div>","response":null,"trial_type":"html-keyboard-response","trial_index":10,"plugin_version":"2.1.0","time_elapsed":772087},{"target_group":"black","target_index":1,"condition_label":"B_H_vs_W_L","rt":-1,"response":"","correct":false,"choices":"ALL_KEYS","correct_choice":["a"],"trial_duration":2000,"flip_timestamps":[],"response_ends_trial":false,"number_of_apertures":2,"number_of_dots":[50,100],"number_of_sets":1,"coherent_direction":[270,180],"coherence":1,"opposite_coherence":0,"dot_radius":2,"dot_side_length":1,"dot_life":-1,"move_distance":1,"aperture_width":300,"aperture_height":300,"dot_color":["white","black"],"dot_shape":"circle","background_color":"#AAA","RDK_type":3,"aperture_type":2,"reinsert_type":2,"frame_rate":16.785123966942148,"frame_rate_array":[5,17,17,17,18,16,17,17,17,17,17,17,17,17,17,17,17,17,16,17,17,16,17,17,17,17,17,17,16,17,17,17,16,17,17,17,17,17,17,17,17,17,17,17,17,16,17,17,17,17,17,16,17,17,17,17,17,17,17,17,17,17,17,17,17,17,17,17,17,17,17,16,17,17,17,17,16,17,17,17,17,17,17,17,16,17,17,17,17,17,16,17,17,17,16,17,17,17,17,17,17,16,17,17,17,17,17,16,17,17,17,16,17,17,17,17,17,17,17,17,17],"number_of_frames":121,"aperture_center_x":960,"aperture_center_y":540,"fixation_cross":true,"fixation_cross_width":15,"fixation_cross_height":15,"fixation_cross_color":"#111","fixation_cross_thickness":1,"border":true,"border_thickness":2,"border_color":"transparent","canvas_width":1920,"canvas_height":1080,"trial_type":"rdk","trial_index":11,"plugin_version":"2.0.0","time_elapsed":774095,"target_direction":180,"distractor_direction":270},{"rt":1929,"stimulus":"\n        <div class=\"response-container\">\n          <div class=\"response-instruction\">\n            <p>rotate the bar by using the left and right arrow keys.</p>\n            <p>when you are determined, press the Enter key.</p>\n          </div>\n          <div class=\"response-circle\">\n            <div class=\"response-fixation\"></div>\n            <div id=\"bar\" class=\"rotating-bar\"></div>\n          </div>\n        </div>\n      ","response":"Enter","trial_type":"html-keyboard-response","trial_index":12,"plugin_version":"2.1.0","time_elapsed":776024,"response_angle_css":-51,"response_angle_rdk":141,"angular_error_target":-39,"angular_error_distractor":-129,"target_direction":180,"target_group":"black","reward_points":2},{"rt":null,"stimulus":"\n          <p style=\"color: #FF3333;\">Your reward: 2 points</p>\n        ","response":null,"trial_type":"html-keyboard-response","trial_index":13,"plugin_version":"2.1.0","time_elapsed":778031},{"rt":1398,"stimulus":"\n        <div class=\"instructions-container\">\n          <h2>End of Practice</h2>\n          <p>You have completed the practice trials.</p>\n          <p>Press <strong>Enter</strong> key to begin the main experiment.</p>\n        </div>\n      ","response":"Enter","trial_type":"html-keyboard-response","trial_index":14,"plugin_version":"2.1.0","time_elapsed":779429},{"rt":null,"stimulus":"<div class=\"fixation\" style=\"font-size: 60px;\">+</div>","response":null,"trial_type":"html-keyboard-response","trial_index":15,"plugin_version":"2.1.0","time_elapsed":780447},{"target_group":"white","condition_label":"W_H_vs_B_L_rep2","target_direction":233,"distractor_direction":121,"session_rotation":190,"rt":-1,"response":"","correct":false,"choices":"ALL_KEYS","correct_choice":["a"],"trial_duration":2000,"flip_timestamps":[],"response_ends_trial":false,"number_of_apertures":200,"number_of_dots":[1,1,1,1,1,1,1,1,1,1,1,1,1,1,1,1,1,1,1,1,1,1,1,1,1,1,1,1,1,1,1,1,1,1,1,1,1,1,1,1,1,1,1,1,1,1,1,1,1,1,1,1,1,1,1,1,1,1,1,1,1,1,1,1,1,1,1,1,1,1,1,1,1,1,1,1,1,1,1,1,1,1,1,1,1,1,1,1,1,1,1,1,1,1,1,1,1,1,1,1,1,1,1,1,1,1,1,1,1,1,1,1,1,1,1,1,1,1,1,1,1,1,1,1,1,1,1,1,1,1,1,1,1,1,1,1,1,1,1,1,1,1,1,1,1,1,1,1,1,1,1,1,1,1,1,1,1,1,1,1,1,1,1,1,1,1,1,1,1,1,1,1,1,1,1,1,1,1,1,1,1,1,1,1,1,1,1,1,1,1,1,1,1,1,1,1,1,1,1,1],"number_of_sets":1,"coherent_direction":[233,121,233,121,121,121,233,121,233,233,121,121,121,121,121,121,121,233,233,233,233,121,233,233,233,233,233,233,121,233,233,121,233,121,121,233,233,121,121,233,233,233,121,233,233,121,121,121,233,121,233,233,233,121,121,121,233,233,233,121,233,233,233,121,121,121,233,121,121,233,121,233,121,233,121,121,233,121,233,121,233,121,121,121,233,233,233,233,121,121,121,121,233,121,121,233,233,233,121,233,233,233,121,121,121,233,233,121,121,233,233,233,121,121,233,233,121,233,121,121,233,121,233,121,121,121,121,121,121,121,121,233,233,121,233,121,233,121,121,121,121,233,233,233,121,233,121,121,121,233,121,233,121,121,233,121,121,233,233,121,121,121,233,233,233,233,233,233,121,233,121,233,233,233,233,121,121,121,233,233,121,121,233,233,233,233,233,121,121,233,233,233,121,121,121,121,233,233,233,121],"coherence":1,"opposite_coherence":0,"dot_radius":2,"dot_side_length":1,"dot_life":-1,"move_distance":1,"aperture_width":300,"aperture_height":300,"dot_color":["white","black","white","black","black","black","white","black","white","white","black","black","black","black","black","black","black","white","white","white","white","black","white","white","white","white","white","white","black","white","white","black","white","black","black","white","white","black","black","white","white","white","black","white","white","black","black","black","white","black","white","white","white","black","black","black","white","white","white","black","white","white","white","black","black","black","white","black","black","white","black","white","black","white","black","black","white","black","white","black","white","black","black","black","white","white","white","white","black","black","black","black","white","black","black","white","white","white","black","white","white","white","black","black","black","white","white","black","black","white","white","white","black","black","white","white","black","white","black","black","white","black","white","black","black","black","black","black","black","black","black","white","white","black","white","black","white","black","black","black","black","white","white","white","black","white","black","black","black","white","black","white","black","black","white","black","black","white","white","black","black","black","white","white","white","white","white","white","black","white","black","white","white","white","white","black","black","black","white","white","black","black","white","white","white","white","white","black","black","white","white","white","black","black","black","black","white","white","white","black"],"dot_shape":"circle","background_color":"#AAA","RDK_type":3,"aperture_type":2,"reinsert_type":2,"frame_rate":16.834710743801654,"frame_rate_array":[7,16,17,17,17,17,17,17,17,17,16,17,16,17,17,17,17,17,17,17,17,17,17,17,17,17,17,17,17,17,17,17,17,17,16,17,17,17,17,17,17,17,17,17,17,17,17,17,17,17,17,17,17,17,17,16,17,17,17,17,17,17,17,17,17,16,16,17,17,17,17,17,17,17,17,17,17,17,17,17,17,17,17,17,17,17,17,17,17,17,17,17,17,16,17,17,17,17,17,17,17,17,17,17,17,17,17,17,16,17,17,17,17,17,17,17,17,17,17,16,17],"number_of_frames":121,"aperture_center_x":960,"aperture_center_y":540,"fixation_cross":true,"fixation_cross_width":15,"fixation_cross_height":15,"fixation_cross_color":"#111","fixation_cross_thickness":1,"border":true,"border_thickness":2,"border_color":"transparent","canvas_width":1920,"canvas_height":1080,"trial_type":"rdk","trial_index":16,"plugin_version":"2.0.0","time_elapsed":782462},{"rt":1115,"stimulus":"\n        <div class=\"response-container\">\n          <div class=\"response-instruction\">\n            <p>rotate the bar by using the left and right arrow keys.</p>\n            <p>when you are determined, press the Enter key.</p>\n          </div>\n          <div class=\"response-circle\">\n            <div class=\"response-fixation\"></div>\n            <div id=\"bar\" class=\"rotating-bar\"></div>\n          </div>\n        </div>\n      ","response":"Enter","trial_type":"html-keyboard-response","trial_index":17,"plugin_version":"2.1.0","time_elapsed":783578,"response_angle_css":236,"response_angle_rdk":214,"angular_error_target":-19,"angular_error_distractor":93,"target_direction":233,"target_group":"white","reward_points":6},{"rt":null,"stimulus":"\n          <p style=\"color: #00FF00;\">Your reward: 6 points</p>\n        ","response":null,"trial_type":"html-keyboard-response","trial_index":18,"plugin_version":"2.1.0","time_elapsed":785587},{"rt":null,"stimulus":"<div class=\"fixation\" style=\"font-size: 60px;\">+</div>","response":null,"trial_type":"html-keyboard-response","trial_index":19,"plugin_version":"2.1.0","time_elapsed":786601},{"target_group":"white","condition_label":"W_H_vs_B_L_rep21","target_direction":228,"distractor_direction":132,"session_rotation":190,"rt":-1,"response":"","correct":false,"choices":"ALL_KEYS","correct_choice":["a"],"trial_duration":2000,"flip_timestamps":[],"response_ends_trial":false,"number_of_apertures":200,"number_of_dots":[1,1,1,1,1,1,1,1,1,1,1,1,1,1,1,1,1,1,1,1,1,1,1,1,1,1,1,1,1,1,1,1,1,1,1,1,1,1,1,1,1,1,1,1,1,1,1,1,1,1,1,1,1,1,1,1,1,1,1,1,1,1,1,1,1,1,1,1,1,1,1,1,1,1,1,1,1,1,1,1,1,1,1,1,1,1,1,1,1,1,1,1,1,1,1,1,1,1,1,1,1,1,1,1,1,1,1,1,1,1,1,1,1,1,1,1,1,1,1,1,1,1,1,1,1,1,1,1,1,1,1,1,1,1,1,1,1,1,1,1,1,1,1,1,1,1,1,1,1,1,1,1,1,1,1,1,1,1,1,1,1,1,1,1,1,1,1,1,1,1,1,1,1,1,1,1,1,1,1,1,1,1,1,1,1,1,1,1,1,1,1,1,1,1,1,1,1,1,1,1],"number_of_sets":1,"coherent_direction":[228,132,228,228,132,132,132,228,132,228,228,132,132,132,132,228,228,132,132,132,228,132,228,132,132,228,228,228,228,132,228,228,228,228,228,132,228,228,228,228,228,132,132,228,132,228,228,228,228,132,132,228,228,132,132,132,132,132,132,228,228,228,132,132,228,132,132,228,228,132,132,132,132,132,132,228,228,132,228,228,132,228,132,228,228,228,132,132,132,132,132,132,228,228,228,228,132,228,228,132,132,132,132,228,228,228,228,132,228,132,228,132,228,132,132,132,132,228,132,132,228,228,132,132,228,132,228,132,132,132,132,132,228,132,132,228,228,132,228,228,132,228,228,132,132,132,132,228,132,228,132,228,228,132,132,132,132,228,228,132,228,132,132,132,228,228,228,132,228,228,228,132,228,228,132,132,132,228,132,228,228,228,228,132,228,132,228,132,132,228,132,228,228,132,228,228,228,132,228,228],"coherence":1,"opposite_coherence":0,"dot_radius":2,"dot_side_length":1,"dot_life":-1,"move_distance":1,"aperture_width":300,"aperture_height":300,"dot_color":["white","black","white","white","black","black","black","white","black","white","white","black","black","black","black","white","white","black","black","black","white","black","white","black","black","white","white","white","white","black","white","white","white","white","white","black","white","white","white","white","white","black","black","white","black","white","white","white","white","black","black","white","white","black","black","black","black","black","black","white","white","white","black","black","white","black","black","white","white","black","black","black","black","black","black","white","white","black","white","white","black","white","black","white","white","white","black","black","black","black","black","black","white","white","white","white","black","white","white","black","black","black","black","white","white","white","white","black","white","black","white","black","white","black","black","black","black","white","black","black","white","white","black","black","white","black","white","black","black","black","black","black","white","black","black","white","white","black","white","white","black","white","white","black","black","black","black","white","black","white","black","white","white","black","black","black","black","white","white","black","white","black","black","black","white","white","white","black","white","white","white","black","white","white","black","black","black","white","black","white","white","white","white","black","white","black","white","black","black","white","black","white","white","black","white","white","white","black","white","white"],"dot_shape":"circle","background_color":"#AAA","RDK_type":3,"aperture_type":2,"reinsert_type":2,"frame_rate":16.816666666666666,"frame_rate_array":[4,15,16,17,17,17,17,17,17,16,17,17,17,17,17,17,17,17,17,17,17,17,17,17,17,17,17,17,17,17,17,17,17,17,17,17,17,17,17,17,17,17,17,17,17,17,17,17,16,17,17,17,17,17,17,17,17,17,17,17,17,16,17,17,17,17,17,17,17,17,17,17,17,17,17,17,17,17,17,17,17,17,17,17,17,17,17,17,17,17,17,17,17,17,17,17,16,17,17,17,17,17,17,17,17,17,17,16,17,17,17,17,17,17,17,17,17,16,17,17],"number_of_frames":120,"aperture_center_x":960,"aperture_center_y":540,"fixation_cross":true,"fixation_cross_width":15,"fixation_cross_height":15,"fixation_cross_color":"#111","fixation_cross_thickness":1,"border":true,"border_thickness":2,"border_color":"transparent","canvas_width":1920,"canvas_height":1080,"trial_type":"rdk","trial_index":20,"plugin_version":"2.0.0","time_elapsed":788606},{"rt":1269,"stimulus":"\n        <div class=\"response-container\">\n          <div class=\"response-instruction\">\n            <p>rotate the bar by using the left and right arrow keys.</p>\n            <p>when you are determined, press the Enter key.</p>\n          </div>\n          <div class=\"response-circle\">\n            <div class=\"response-fixation\"></div>\n            <div id=\"bar\" class=\"rotating-bar\"></div>\n          </div>\n        </div>\n      ","response":"Enter","trial_type":"html-keyboard-response","trial_index":21,"plugin_version":"2.1.0","time_elapsed":789878,"response_angle_css":326,"response_angle_rdk":124,"angular_error_target":-104,"angular_error_distractor":-8,"target_direction":228,"target_group":"white","reward_points":0},{"rt":null,"stimulus":"\n          <p style=\"color: #FF3333;\">Your reward: 0 points</p>\n        ","response":null,"trial_type":"html-keyboard-response","trial_index":22,"plugin_version":"2.1.0","time_elapsed":791891},{"rt":null,"stimulus":"<div class=\"fixation\" style=\"font-size: 60px;\">+</div>","response":null,"trial_type":"html-keyboard-response","trial_index":23,"plugin_version":"2.1.0","time_elapsed":792894},{"target_group":"white","condition_label":"W_H_vs_B_L_rep17","target_direction":222,"distractor_direction":119,"session_rotation":190,"rt":-1,"response":"","correct":false,"choices":"ALL_KEYS","correct_choice":["a"],"trial_duration":2000,"flip_timestamps":[],"response_ends_trial":false,"number_of_apertures":200,"number_of_dots":[1,1,1,1,1,1,1,1,1,1,1,1,1,1,1,1,1,1,1,1,1,1,1,1,1,1,1,1,1,1,1,1,1,1,1,1,1,1,1,1,1,1,1,1,1,1,1,1,1,1,1,1,1,1,1,1,1,1,1,1,1,1,1,1,1,1,1,1,1,1,1,1,1,1,1,1,1,1,1,1,1,1,1,1,1,1,1,1,1,1,1,1,1,1,1,1,1,1,1,1,1,1,1,1,1,1,1,1,1,1,1,1,1,1,1,1,1,1,1,1,1,1,1,1,1,1,1,1,1,1,1,1,1,1,1,1,1,1,1,1,1,1,1,1,1,1,1,1,1,1,1,1,1,1,1,1,1,1,1,1,1,1,1,1,1,1,1,1,1,1,1,1,1,1,1,1,1,1,1,1,1,1,1,1,1,1,1,1,1,1,1,1,1,1,1,1,1,1,1,1],"number_of_sets":1,"coherent_direction":[119,222,222,222,119,222,222,222,222,119,119,119,119,119,222,222,222,222,222,222,119,119,119,119,119,222,119,222,119,222,119,119,222,222,119,119,222,119,119,222,119,222,119,119,222,222,119,222,222,222,222,222,222,119,222,222,119,119,119,119,222,119,222,222,222,119,119,222,119,119,119,119,222,222,222,119,222,119,119,222,222,119,222,119,222,222,222,222,222,119,119,119,119,119,222,119,119,119,119,222,119,222,222,222,222,119,119,222,119,119,222,119,119,119,222,222,119,119,222,222,222,222,222,222,119,119,119,119,222,222,222,222,222,119,119,222,119,119,119,119,222,222,222,119,222,222,222,222,119,119,119,119,119,222,119,222,222,222,119,119,119,222,119,222,222,119,222,119,222,222,222,119,222,119,222,119,222,119,222,119,222,119,222,119,222,119,119,119,222,119,119,222,119,119,119,119,222,222,119,222],"coherence":1,"opposite_coherence":0,"dot_radius":2,"dot_side_length":1,"dot_life":-1,"move_distance":1,"aperture_width":300,"aperture_height":300,"dot_color":["black","white","white","white","black","white","white","white","white","black","black","black","black","black","white","white","white","white","white","white","black","black","black","black","black","white","black","white","black","white","black","black","white","white","black","black","white","black","black","white","black","white","black","black","white","white","black","white","white","white","white","white","white","black","white","white","black","black","black","black","white","black","white","white","white","black","black","white","black","black","black","black","white","white","white","black","white","black","black","white","white","black","white","black","white","white","white","white","white","black","black","black","black","black","white","black","black","black","black","white","black","white","white","white","white","black","black","white","black","black","white","black","black","black","white","white","black","black","white","white","white","white","white","white","black","black","black","black","white","white","white","white","white","black","black","white","black","black","black","black","white","white","white","black","white","white","white","white","black","black","black","black","black","white","black","white","white","white","black","black","black","white","black","white","white","black","white","black","white","white","white","black","white","black","white","black","white","black","white","black","white","black","white","black","white","black","black","black","white","black","black","white","black","black","black","black","white","white","black","white"],"dot_shape":"circle","background_color":"#AAA","RDK_type":3,"aperture_type":2,"reinsert_type":2,"frame_rate":16.866666666666667,"frame_rate_array":[17,16,17,16,17,17,17,17,17,17,16,17,17,17,17,17,17,17,17,17,17,17,17,17,17,17,17,17,17,17,17,16,16,17,17,17,17,17,17,17,17,16,17,17,16,17,17,17,17,17,16,17,16,18,16,16,17,17,17,17,17,17,17,17,17,17,16,16,17,17,17,17,17,18,15,17,17,17,17,17,17,17,17,17,17,17,17,17,17,17,17,16,17,17,17,17,17,17,17,17,17,17,16,17,17,17,17,17,17,17,17,17,17,17,17,17,16,17,17,17],"number_of_frames":120,"aperture_center_x":960,"aperture_center_y":540,"fixation_cross":true,"fixation_cross_width":15,"fixation_cross_height":15,"fixation_cross_color":"#111","fixation_cross_thickness":1,"border":true,"border_thickness":2,"border_color":"transparent","canvas_width":1920,"canvas_height":1080,"trial_type":"rdk","trial_index":24,"plugin_version":"2.0.0","time_elapsed":794897},{"rt":3252,"stimulus":"\n        <div class=\"response-container\">\n          <div class=\"response-instruction\">\n            <p>rotate the bar by using the left and right arrow keys.</p>\n            <p>when you are determined, press the Enter key.</p>\n          </div>\n          <div class=\"response-circle\">\n            <div class=\"response-fixation\"></div>\n            <div id=\"bar\" class=\"rotating-bar\"></div>\n          </div>\n        </div>\n      ","response":"Enter","trial_type":"html-keyboard-response","trial_index":25,"plugin_version":"2.1.0","time_elapsed":798149,"response_angle_css":227,"response_angle_rdk":223,"angular_error_target":1,"angular_error_distractor":104,"target_direction":222,"target_group":"white","reward_points":9},{"rt":null,"stimulus":"\n          <p style=\"color: #00FF00;\">Your reward: 9 points</p>\n        ","response":null,"trial_type":"html-keyboard-response","trial_index":26,"plugin_version":"2.1.0","time_elapsed":800153},{"rt":null,"stimulus":"<div class=\"fixation\" style=\"font-size: 60px;\">+</div>","response":null,"trial_type":"html-keyboard-response","trial_index":27,"plugin_version":"2.1.0","time_elapsed":801169},{"target_group":"white","condition_label":"W_H_vs_B_L_rep8","target_direction":225,"distractor_direction":120,"session_rotation":190,"rt":-1,"response":"","correct":false,"choices":"ALL_KEYS","correct_choice":["a"],"trial_duration":2000,"flip_timestamps":[],"response_ends_trial":false,"number_of_apertures":200,"number_of_dots":[1,1,1,1,1,1,1,1,1,1,1,1,1,1,1,1,1,1,1,1,1,1,1,1,1,1,1,1,1,1,1,1,1,1,1,1,1,1,1,1,1,1,1,1,1,1,1,1,1,1,1,1,1,1,1,1,1,1,1,1,1,1,1,1,1,1,1,1,1,1,1,1,1,1,1,1,1,1,1,1,1,1,1,1,1,1,1,1,1,1,1,1,1,1,1,1,1,1,1,1,1,1,1,1,1,1,1,1,1,1,1,1,1,1,1,1,1,1,1,1,1,1,1,1,1,1,1,1,1,1,1,1,1,1,1,1,1,1,1,1,1,1,1,1,1,1,1,1,1,1,1,1,1,1,1,1,1,1,1,1,1,1,1,1,1,1,1,1,1,1,1,1,1,1,1,1,1,1,1,1,1,1,1,1,1,1,1,1,1,1,1,1,1,1,1,1,1,1,1,1],"number_of_sets":1,"coherent_direction":[120,120,225,120,225,225,120,225,120,120,225,120,225,120,225,225,225,120,225,225,120,120,120,225,120,225,225,225,225,225,225,225,225,225,225,120,120,225,120,120,120,120,225,225,225,120,225,225,225,225,120,120,225,120,120,120,120,225,120,225,225,225,120,225,120,120,120,120,120,120,120,225,225,120,225,225,120,120,120,120,225,120,120,225,225,120,225,120,120,120,225,120,225,225,120,225,120,120,120,225,225,225,225,225,120,120,225,120,225,225,225,225,120,120,225,120,225,225,225,225,120,225,120,120,120,120,120,225,120,225,120,120,225,225,120,120,225,120,225,120,225,225,225,225,120,225,225,225,225,225,120,120,120,120,225,120,225,225,120,225,120,120,120,120,120,225,120,120,225,120,225,120,225,120,225,120,120,225,120,120,225,225,120,120,225,225,120,225,120,225,120,120,120,120,120,225,225,225,225,225],"coherence":1,"opposite_coherence":0,"dot_radius":2,"dot_side_length":1,"dot_life":-1,"move_distance":1,"aperture_width":300,"aperture_height":300,"dot_color":["black","black","white","black","white","white","black","white","black","black","white","black","white","black","white","white","white","black","white","white","black","black","black","white","black","white","white","white","white","white","white","white","white","white","white","black","black","white","black","black","black","black","white","white","white","black","white","white","white","white","black","black","white","black","black","black","black","white","black","white","white","white","black","white","black","black","black","black","black","black","black","white","white","black","white","white","black","black","black","black","white","black","black","white","white","black","white","black","black","black","white","black","white","white","black","white","black","black","black","white","white","white","white","white","black","black","white","black","white","white","white","white","black","black","white","black","white","white","white","white","black","white","black","black","black","black","black","white","black","white","black","black","white","white","black","black","white","black","white","black","white","white","white","white","black","white","white","white","white","white","black","black","black","black","white","black","white","white","black","white","black","black","black","black","black","white","black","black","white","black","white","black","white","black","white","black","black","white","black","black","white","white","black","black","white","white","black","white","black","white","black","black","black","black","black","white","white","white","white","white"],"dot_shape":"circle","background_color":"#AAA","RDK_type":3,"aperture_type":2,"reinsert_type":2,"frame_rate":16.858333333333334,"frame_rate_array":[8,17,17,17,17,17,17,17,17,17,17,17,17,17,17,17,17,17,17,17,17,16,17,17,17,17,17,17,17,17,17,17,17,17,17,17,17,17,17,17,17,16,17,17,17,17,17,17,17,17,17,17,17,16,17,17,17,17,17,17,17,17,17,17,17,17,17,17,17,17,17,17,17,17,17,17,17,16,16,17,16,17,17,17,16,17,17,17,17,17,17,17,17,17,17,17,17,17,17,17,17,17,17,17,17,17,17,16,17,17,17,17,17,17,17,17,17,17,17,17],"number_of_frames":120,"aperture_center_x":960,"aperture_center_y":540,"fixation_cross":true,"fixation_cross_width":15,"fixation_cross_height":15,"fixation_cross_color":"#111","fixation_cross_thickness":1,"border":true,"border_thickness":2,"border_color":"transparent","canvas_width":1920,"canvas_height":1080,"trial_type":"rdk","trial_index":28,"plugin_version":"2.0.0","time_elapsed":803178},{"rt":1832,"stimulus":"\n        <div class=\"response-container\">\n          <div class=\"response-instruction\">\n            <p>rotate the bar by using the left and right arrow keys.</p>\n            <p>when you are determined, press the Enter key.</p>\n          </div>\n          <div class=\"response-circle\">\n            <div class=\"response-fixation\"></div>\n            <div id=\"bar\" class=\"rotating-bar\"></div>\n          </div>\n        </div>\n      ","response":"Enter","trial_type":"html-keyboard-response","trial_index":29,"plugin_version":"2.1.0","time_elapsed":805010,"response_angle_css":-11,"response_angle_rdk":101,"angular_error_target":-124,"angular_error_distractor":-19,"target_direction":225,"target_group":"white","reward_points":0},{"rt":null,"stimulus":"\n          <p style=\"color: #FF3333;\">Your reward: 0 points</p>\n        ","response":null,"trial_type":"html-keyboard-response","trial_index":30,"plugin_version":"2.1.0","time_elapsed":807018},{"rt":null,"stimulus":"<div class=\"fixation\" style=\"font-size: 60px;\">+</div>","response":null,"trial_type":"html-keyboard-response","trial_index":31,"plugin_version":"2.1.0","time_elapsed":808024},{"target_group":"white","condition_label":"W_H_vs_B_L_rep7","target_direction":232,"distractor_direction":135,"session_rotation":190,"rt":-1,"response":"","correct":false,"choices":"ALL_KEYS","correct_choice":["a"],"trial_duration":2000,"flip_timestamps":[],"response_ends_trial":false,"number_of_apertures":200,"number_of_dots":[1,1,1,1,1,1,1,1,1,1,1,1,1,1,1,1,1,1,1,1,1,1,1,1,1,1,1,1,1,1,1,1,1,1,1,1,1,1,1,1,1,1,1,1,1,1,1,1,1,1,1,1,1,1,1,1,1,1,1,1,1,1,1,1,1,1,1,1,1,1,1,1,1,1,1,1,1,1,1,1,1,1,1,1,1,1,1,1,1,1,1,1,1,1,1,1,1,1,1,1,1,1,1,1,1,1,1,1,1,1,1,1,1,1,1,1,1,1,1,1,1,1,1,1,1,1,1,1,1,1,1,1,1,1,1,1,1,1,1,1,1,1,1,1,1,1,1,1,1,1,1,1,1,1,1,1,1,1,1,1,1,1,1,1,1,1,1,1,1,1,1,1,1,1,1,1,1,1,1,1,1,1,1,1,1,1,1,1,1,1,1,1,1,1,1,1,1,1,1,1],"number_of_sets":1,"coherent_direction":[232,232,135,135,232,135,232,135,232,232,135,135,135,135,135,135,232,135,232,232,135,135,232,135,232,232,232,232,232,232,135,135,135,232,135,232,135,135,232,232,232,232,232,232,232,232,232,232,135,135,135,135,232,135,232,135,232,135,135,135,232,135,135,135,135,135,232,232,135,232,232,135,135,232,232,232,232,232,135,232,232,232,232,135,135,232,232,135,232,232,232,135,135,135,232,135,232,232,232,135,232,135,135,135,232,135,232,232,232,135,135,135,232,135,232,135,232,232,135,135,135,135,232,232,232,232,135,232,135,232,135,232,135,232,232,232,232,135,232,135,232,135,232,232,135,232,232,232,135,232,135,232,232,232,135,135,135,232,135,135,232,135,135,232,135,232,135,135,232,135,135,232,232,135,135,232,135,135,135,135,232,135,135,135,135,232,232,135,232,135,232,135,135,232,135,232,135,135,135,135],"coherence":1,"opposite_coherence":0,"dot_radius":2,"dot_side_length":1,"dot_life":-1,"move_distance":1,"aperture_width":300,"aperture_height":300,"dot_color":["white","white","black","black","white","black","white","black","white","white","black","black","black","black","black","black","white","black","white","white","black","black","white","black","white","white","white","white","white","white","black","black","black","white","black","white","black","black","white","white","white","white","white","white","white","white","white","white","black","black","black","black","white","black","white","black","white","black","black","black","white","black","black","black","black","black","white","white","black","white","white","black","black","white","white","white","white","white","black","white","white","white","white","black","black","white","white","black","white","white","white","black","black","black","white","black","white","white","white","black","white","black","black","black","white","black","white","white","white","black","black","black","white","black","white","black","white","white","black","black","black","black","white","white","white","white","black","white","black","white","black","white","black","white","white","white","white","black","white","black","white","black","white","white","black","white","white","white","black","white","black","white","white","white","black","black","black","white","black","black","white","black","black","white","black","white","black","black","white","black","black","white","white","black","black","white","black","black","black","black","white","black","black","black","black","white","white","black","white","black","white","black","black","white","black","white","black","black","black","black"],"dot_shape":"circle","background_color":"#AAA","RDK_type":3,"aperture_type":2,"reinsert_type":2,"frame_rate":16.834710743801654,"frame_rate_array":[5,17,17,17,17,17,17,17,17,17,17,17,17,17,17,17,17,17,17,17,17,17,17,17,17,17,17,17,17,17,17,17,17,16,17,17,17,16,17,17,17,17,17,17,17,17,17,17,17,17,17,17,17,17,17,16,17,17,17,17,17,16,17,17,17,17,17,17,17,17,17,17,17,16,17,17,17,17,17,17,17,17,17,16,17,17,17,17,17,17,17,17,17,17,17,17,17,17,16,17,17,17,17,17,17,17,17,17,17,17,17,17,16,17,17,17,17,17,17,17,17],"number_of_frames":121,"aperture_center_x":960,"aperture_center_y":540,"fixation_cross":true,"fixation_cross_width":15,"fixation_cross_height":15,"fixation_cross_color":"#111","fixation_cross_thickness":1,"border":true,"border_thickness":2,"border_color":"transparent","canvas_width":1920,"canvas_height":1080,"trial_type":"rdk","trial_index":32,"plugin_version":"2.0.0","time_elapsed":810031},{"rt":3143,"stimulus":"\n        <div class=\"response-container\">\n          <div class=\"response-instruction\">\n            <p>rotate the bar by using the left and right arrow keys.</p>\n            <p>when you are determined, press the Enter key.</p>\n          </div>\n          <div class=\"response-circle\">\n            <div class=\"response-fixation\"></div>\n            <div id=\"bar\" class=\"rotating-bar\"></div>\n          </div>\n        </div>\n      ","response":"Enter","trial_type":"html-keyboard-response","trial_index":33,"plugin_version":"2.1.0","time_elapsed":813175,"response_angle_css":-142,"response_angle_rdk":232,"angular_error_target":0,"angular_error_distractor":97,"target_direction":232,"target_group":"white","reward_points":10},{"rt":null,"stimulus":"\n          <p style=\"color: #00FF00;\">Your reward: 10 points</p>\n        ","response":null,"trial_type":"html-keyboard-response","trial_index":34,"plugin_version":"2.1.0","time_elapsed":815179},{"rt":null,"stimulus":"<div class=\"fixation\" style=\"font-size: 60px;\">+</div>","response":null,"trial_type":"html-keyboard-response","trial_index":35,"plugin_version":"2.1.0","time_elapsed":816195},{"target_group":"white","condition_label":"W_H_vs_B_L_rep22","target_direction":210,"distractor_direction":117,"session_rotation":190,"rt":-1,"response":"","correct":false,"choices":"ALL_KEYS","correct_choice":["a"],"trial_duration":2000,"flip_timestamps":[],"response_ends_trial":false,"number_of_apertures":200,"number_of_dots":[1,1,1,1,1,1,1,1,1,1,1,1,1,1,1,1,1,1,1,1,1,1,1,1,1,1,1,1,1,1,1,1,1,1,1,1,1,1,1,1,1,1,1,1,1,1,1,1,1,1,1,1,1,1,1,1,1,1,1,1,1,1,1,1,1,1,1,1,1,1,1,1,1,1,1,1,1,1,1,1,1,1,1,1,1,1,1,1,1,1,1,1,1,1,1,1,1,1,1,1,1,1,1,1,1,1,1,1,1,1,1,1,1,1,1,1,1,1,1,1,1,1,1,1,1,1,1,1,1,1,1,1,1,1,1,1,1,1,1,1,1,1,1,1,1,1,1,1,1,1,1,1,1,1,1,1,1,1,1,1,1,1,1,1,1,1,1,1,1,1,1,1,1,1,1,1,1,1,1,1,1,1,1,1,1,1,1,1,1,1,1,1,1,1,1,1,1,1,1,1],"number_of_sets":1,"coherent_direction":[117,117,117,210,210,210,117,117,117,210,117,210,117,210,117,117,117,210,210,210,210,210,210,117,210,210,210,210,117,210,210,210,117,210,117,210,210,117,117,117,117,210,210,117,117,117,117,117,210,117,210,210,210,210,117,117,210,210,210,210,117,117,117,210,117,210,117,210,210,210,210,117,210,210,117,210,117,210,117,117,210,210,117,117,117,117,210,117,117,117,210,117,117,117,117,117,210,117,117,210,210,117,210,117,117,210,117,210,210,117,210,210,117,117,210,117,210,210,117,117,210,117,117,210,210,210,117,210,117,210,117,210,210,210,117,117,210,210,117,210,210,210,117,210,117,117,117,117,210,210,117,210,210,117,117,117,210,210,117,210,210,117,210,210,210,117,210,117,210,210,210,117,117,117,117,210,210,210,210,117,117,117,210,210,117,117,117,117,210,117,117,117,117,210,210,117,117,117,210,210],"coherence":1,"opposite_coherence":0,"dot_radius":2,"dot_side_length":1,"dot_life":-1,"move_distance":1,"aperture_width":300,"aperture_height":300,"dot_color":["black","black","black","white","white","white","black","black","black","white","black","white","black","white","black","black","black","white","white","white","white","white","white","black","white","white","white","white","black","white","white","white","black","white","black","white","white","black","black","black","black","white","white","black","black","black","black","black","white","black","white","white","white","white","black","black","white","white","white","white","black","black","black","white","black","white","black","white","white","white","white","black","white","white","black","white","black","white","black","black","white","white","black","black","black","black","white","black","black","black","white","black","black","black","black","black","white","black","black","white","white","black","white","black","black","white","black","white","white","black","white","white","black","black","white","black","white","white","black","black","white","black","black","white","white","white","black","white","black","white","black","white","white","white","black","black","white","white","black","white","white","white","black","white","black","black","black","black","white","white","black","white","white","black","black","black","white","white","black","white","white","black","white","white","white","black","white","black","white","white","white","black","black","black","black","white","white","white","white","black","black","black","white","white","black","black","black","black","white","black","black","black","black","white","white","black","black","black","white","white"],"dot_shape":"circle","background_color":"#AAA","RDK_type":3,"aperture_type":2,"reinsert_type":2,"frame_rate":16.785123966942148,"frame_rate_array":[1,16,17,17,17,17,17,17,17,17,17,17,17,17,16,17,17,17,17,17,17,17,17,17,17,17,17,16,17,17,17,17,17,17,17,17,17,17,17,17,17,17,17,17,17,17,17,17,17,16,17,17,17,17,17,17,17,17,17,17,17,17,17,17,17,16,17,17,17,17,17,17,17,16,17,17,17,17,17,17,17,17,17,17,17,17,17,16,17,17,17,17,17,17,17,17,17,17,17,17,17,17,17,17,17,16,17,17,16,16,17,17,17,17,17,17,17,17,17,17,17],"number_of_frames":121,"aperture_center_x":960,"aperture_center_y":540,"fixation_cross":true,"fixation_cross_width":15,"fixation_cross_height":15,"fixation_cross_color":"#111","fixation_cross_thickness":1,"border":true,"border_thickness":2,"border_color":"transparent","canvas_width":1920,"canvas_height":1080,"trial_type":"rdk","trial_index":36,"plugin_version":"2.0.0","time_elapsed":818199},{"rt":990,"stimulus":"\n        <div class=\"response-container\">\n          <div class=\"response-instruction\">\n            <p>rotate the bar by using the left and right arrow keys.</p>\n            <p>when you are determined, press the Enter key.</p>\n          </div>\n          <div class=\"response-circle\">\n            <div class=\"response-fixation\"></div>\n            <div id=\"bar\" class=\"rotating-bar\"></div>\n          </div>\n        </div>\n      ","response":"Enter","trial_type":"html-keyboard-response","trial_index":37,"plugin_version":"2.1.0","time_elapsed":819189,"response_angle_css":236,"response_angle_rdk":214,"angular_error_target":4,"angular_error_distractor":97,"target_direction":210,"target_group":"white","reward_points":9},{"rt":null,"stimulus":"\n          <p style=\"color: #00FF00;\">Your reward: 9 points</p>\n        ","response":null,"trial_type":"html-keyboard-response","trial_index":38,"plugin_version":"2.1.0","time_elapsed":821199},{"rt":null,"stimulus":"<div class=\"fixation\" style=\"font-size: 60px;\">+</div>","response":null,"trial_type":"html-keyboard-response","trial_index":39,"plugin_version":"2.1.0","time_elapsed":822213},{"target_group":"black","condition_label":"B_H_vs_W_L_rep23","target_direction":299,"distractor_direction":30,"session_rotation":190,"rt":-1,"response":"","correct":false,"choices":"ALL_KEYS","correct_choice":["a"],"trial_duration":2000,"flip_timestamps":[],"response_ends_trial":false,"number_of_apertures":200,"number_of_dots":[1,1,1,1,1,1,1,1,1,1,1,1,1,1,1,1,1,1,1,1,1,1,1,1,1,1,1,1,1,1,1,1,1,1,1,1,1,1,1,1,1,1,1,1,1,1,1,1,1,1,1,1,1,1,1,1,1,1,1,1,1,1,1,1,1,1,1,1,1,1,1,1,1,1,1,1,1,1,1,1,1,1,1,1,1,1,1,1,1,1,1,1,1,1,1,1,1,1,1,1,1,1,1,1,1,1,1,1,1,1,1,1,1,1,1,1,1,1,1,1,1,1,1,1,1,1,1,1,1,1,1,1,1,1,1,1,1,1,1,1,1,1,1,1,1,1,1,1,1,1,1,1,1,1,1,1,1,1,1,1,1,1,1,1,1,1,1,1,1,1,1,1,1,1,1,1,1,1,1,1,1,1,1,1,1,1,1,1,1,1,1,1,1,1,1,1,1,1,1,1],"number_of_sets":1,"coherent_direction":[30,299,299,299,299,30,299,299,30,30,30,299,30,30,30,299,299,299,30,30,30,30,30,299,299,30,30,299,299,30,30,299,30,30,30,299,299,299,30,30,30,299,30,299,30,30,30,30,299,299,30,30,299,30,299,30,30,299,299,299,299,30,299,30,30,299,299,299,299,30,299,299,30,299,299,299,30,30,299,299,30,299,299,30,299,30,30,30,30,299,30,30,30,30,299,30,30,299,299,299,30,299,299,30,299,30,30,299,299,299,30,30,30,30,30,299,299,30,299,299,299,30,299,299,30,30,30,299,30,30,299,30,30,299,299,299,299,30,299,299,299,30,299,30,299,30,299,30,30,299,30,299,30,30,299,30,30,299,30,299,299,30,30,299,299,30,30,299,30,299,30,30,299,299,299,30,30,299,299,299,30,299,299,30,30,30,299,299,30,299,299,30,299,30,299,30,30,299,299,299],"coherence":1,"opposite_coherence":0,"dot_radius":2,"dot_side_length":1,"dot_life":-1,"move_distance":1,"aperture_width":300,"aperture_height":300,"dot_color":["white","black","black","black","black","white","black","black","white","white","white","black","white","white","white","black","black","black","white","white","white","white","white","black","black","white","white","black","black","white","white","black","white","white","white","black","black","black","white","white","white","black","white","black","white","white","white","white","black","black","white","white","black","white","black","white","white","black","black","black","black","white","black","white","white","black","black","black","black","white","black","black","white","black","black","black","white","white","black","black","white","black","black","white","black","white","white","white","white","black","white","white","white","white","black","white","white","black","black","black","white","black","black","white","black","white","white","black","black","black","white","white","white","white","white","black","black","white","black","black","black","white","black","black","white","white","white","black","white","white","black","white","white","black","black","black","black","white","black","black","black","white","black","white","black","white","black","white","white","black","white","black","white","white","black","white","white","black","white","black","black","white","white","black","black","white","white","black","white","black","white","white","black","black","black","white","white","black","black","black","white","black","black","white","white","white","black","black","white","black","black","white","black","white","black","white","white","black","black","black"],"dot_shape":"circle","background_color":"#AAA","RDK_type":3,"aperture_type":2,"reinsert_type":2,"frame_rate":16.71900826446281,"frame_rate_array":[2,12,17,17,17,17,17,17,17,17,17,17,17,17,17,17,17,17,17,16,17,17,17,17,17,16,17,17,17,17,17,16,17,17,16,17,17,17,17,17,17,17,17,16,17,16,17,17,16,17,17,17,17,17,17,17,17,17,17,17,17,17,16,17,17,17,17,17,17,17,16,17,17,17,17,17,17,17,16,17,16,17,16,17,17,17,16,17,17,17,17,17,17,17,17,17,17,17,17,17,17,17,17,17,17,17,17,17,16,17,17,17,17,17,17,17,17,17,17,17,17],"number_of_frames":121,"aperture_center_x":960,"aperture_center_y":540,"fixation_cross":true,"fixation_cross_width":15,"fixation_cross_height":15,"fixation_cross_color":"#111","fixation_cross_thickness":1,"border":true,"border_thickness":2,"border_color":"transparent","canvas_width":1920,"canvas_height":1080,"trial_type":"rdk","trial_index":40,"plugin_version":"2.0.0","time_elapsed":824217},{"rt":3329,"stimulus":"\n        <div class=\"response-container\">\n          <div class=\"response-instruction\">\n            <p>rotate the bar by using the left and right arrow keys.</p>\n            <p>when you are determined, press the Enter key.</p>\n          </div>\n          <div class=\"response-circle\">\n            <div class=\"response-fixation\"></div>\n            <div id=\"bar\" class=\"rotating-bar\"></div>\n          </div>\n        </div>\n      ","response":"Enter","trial_type":"html-keyboard-response","trial_index":41,"plugin_version":"2.1.0","time_elapsed":827546,"response_angle_css":49,"response_angle_rdk":41,"angular_error_target":102,"angular_error_distractor":11,"target_direction":299,"target_group":"black","reward_points":0},{"rt":null,"stimulus":"\n          <p style=\"color: #FF3333;\">Your reward: 0 points</p>\n        ","response":null,"trial_type":"html-keyboard-response","trial_index":42,"plugin_version":"2.1.0","time_elapsed":829562},{"rt":null,"stimulus":"<div class=\"fixation\" style=\"font-size: 60px;\">+</div>","response":null,"trial_type":"html-keyboard-response","trial_index":43,"plugin_version":"2.1.0","time_elapsed":830565},{"target_group":"black","condition_label":"B_H_vs_W_L_rep3","target_direction":302,"distractor_direction":49,"session_rotation":190,"rt":-1,"response":"","correct":false,"choices":"ALL_KEYS","correct_choice":["a"],"trial_duration":2000,"flip_timestamps":[],"response_ends_trial":false,"number_of_apertures":200,"number_of_dots":[1,1,1,1,1,1,1,1,1,1,1,1,1,1,1,1,1,1,1,1,1,1,1,1,1,1,1,1,1,1,1,1,1,1,1,1,1,1,1,1,1,1,1,1,1,1,1,1,1,1,1,1,1,1,1,1,1,1,1,1,1,1,1,1,1,1,1,1,1,1,1,1,1,1,1,1,1,1,1,1,1,1,1,1,1,1,1,1,1,1,1,1,1,1,1,1,1,1,1,1,1,1,1,1,1,1,1,1,1,1,1,1,1,1,1,1,1,1,1,1,1,1,1,1,1,1,1,1,1,1,1,1,1,1,1,1,1,1,1,1,1,1,1,1,1,1,1,1,1,1,1,1,1,1,1,1,1,1,1,1,1,1,1,1,1,1,1,1,1,1,1,1,1,1,1,1,1,1,1,1,1,1,1,1,1,1,1,1,1,1,1,1,1,1,1,1,1,1,1,1],"number_of_sets":1,"coherent_direction":[49,302,302,302,49,49,302,302,49,302,49,49,302,302,49,49,302,302,49,302,49,49,302,49,49,49,302,49,49,49,49,49,49,302,302,302,302,49,49,302,302,302,49,302,302,302,302,302,302,302,302,49,49,302,49,49,302,302,302,49,49,302,49,302,302,302,49,302,302,49,302,49,49,302,302,49,302,302,49,302,49,49,302,302,49,302,302,49,49,302,302,49,302,49,49,49,302,49,302,302,49,49,49,302,49,302,49,302,49,302,302,49,302,302,302,49,49,49,302,49,302,302,302,302,49,302,49,49,49,49,49,49,49,49,302,302,302,49,302,49,49,302,302,49,49,49,302,49,302,49,302,49,49,49,49,49,302,49,302,302,302,49,49,49,49,49,49,302,49,49,302,302,302,49,49,302,302,302,302,302,302,302,49,49,49,49,49,302,49,302,302,302,302,302,302,49,49,302,49,49],"coherence":1,"opposite_coherence":0,"dot_radius":2,"dot_side_length":1,"dot_life":-1,"move_distance":1,"aperture_width":300,"aperture_height":300,"dot_color":["white","black","black","black","white","white","black","black","white","black","white","white","black","black","white","white","black","black","white","black","white","white","black","white","white","white","black","white","white","white","white","white","white","black","black","black","black","white","white","black","black","black","white","black","black","black","black","black","black","black","black","white","white","black","white","white","black","black","black","white","white","black","white","black","black","black","white","black","black","white","black","white","white","black","black","white","black","black","white","black","white","white","black","black","white","black","black","white","white","black","black","white","black","white","white","white","black","white","black","black","white","white","white","black","white","black","white","black","white","black","black","white","black","black","black","white","white","white","black","white","black","black","black","black","white","black","white","white","white","white","white","white","white","white","black","black","black","white","black","white","white","black","black","white","white","white","black","white","black","white","black","white","white","white","white","white","black","white","black","black","black","white","white","white","white","white","white","black","white","white","black","black","black","white","white","black","black","black","black","black","black","black","white","white","white","white","white","black","white","black","black","black","black","black","black","white","white","black","white","white"],"dot_shape":"circle","background_color":"#AAA","RDK_type":3,"aperture_type":2,"reinsert_type":2,"frame_rate":16.84297520661157,"frame_rate_array":[10,17,17,16,17,17,17,17,17,17,17,17,17,17,17,17,17,17,16,17,17,17,17,17,17,17,16,17,17,16,17,17,17,17,17,17,17,17,17,16,17,17,17,17,17,17,17,17,17,17,16,17,17,17,17,17,17,17,17,17,17,17,17,17,17,16,17,16,17,17,17,17,17,17,17,17,17,17,17,17,17,17,17,16,17,17,17,17,16,17,17,17,17,17,17,17,17,17,17,17,17,17,17,17,17,16,17,17,16,17,17,17,17,17,17,17,17,17,17,17,17],"number_of_frames":121,"aperture_center_x":960,"aperture_center_y":540,"fixation_cross":true,"fixation_cross_width":15,"fixation_cross_height":15,"fixation_cross_color":"#111","fixation_cross_thickness":1,"border":true,"border_thickness":2,"border_color":"transparent","canvas_width":1920,"canvas_height":1080,"trial_type":"rdk","trial_index":44,"plugin_version":"2.0.0","time_elapsed":832583},{"rt":809,"stimulus":"\n        <div class=\"response-container\">\n          <div class=\"response-instruction\">\n            <p>rotate the bar by using the left and right arrow keys.</p>\n            <p>when you are determined, press the Enter key.</p>\n          </div>\n          <div class=\"response-circle\">\n            <div class=\"response-fixation\"></div>\n            <div id=\"bar\" class=\"rotating-bar\"></div>\n          </div>\n        </div>\n      ","response":"Enter","trial_type":"html-keyboard-response","trial_index":45,"plugin_version":"2.1.0","time_elapsed":833393,"response_angle_css":38,"response_angle_rdk":52,"angular_error_target":110,"angular_error_distractor":3,"target_direction":302,"target_group":"black","reward_points":0},{"rt":null,"stimulus":"\n          <p style=\"color: #FF3333;\">Your reward: 0 points</p>\n        ","response":null,"trial_type":"html-keyboard-response","trial_index":46,"plugin_version":"2.1.0","time_elapsed":835403},{"rt":null,"stimulus":"<div class=\"fixation\" style=\"font-size: 60px;\">+</div>","response":null,"trial_type":"html-keyboard-response","trial_index":47,"plugin_version":"2.1.0","time_elapsed":836419},{"target_group":"white","condition_label":"W_H_vs_B_L_rep18","target_direction":228,"distractor_direction":129,"session_rotation":190,"rt":-1,"response":"","correct":false,"choices":"ALL_KEYS","correct_choice":["a"],"trial_duration":2000,"flip_timestamps":[],"response_ends_trial":false,"number_of_apertures":200,"number_of_dots":[1,1,1,1,1,1,1,1,1,1,1,1,1,1,1,1,1,1,1,1,1,1,1,1,1,1,1,1,1,1,1,1,1,1,1,1,1,1,1,1,1,1,1,1,1,1,1,1,1,1,1,1,1,1,1,1,1,1,1,1,1,1,1,1,1,1,1,1,1,1,1,1,1,1,1,1,1,1,1,1,1,1,1,1,1,1,1,1,1,1,1,1,1,1,1,1,1,1,1,1,1,1,1,1,1,1,1,1,1,1,1,1,1,1,1,1,1,1,1,1,1,1,1,1,1,1,1,1,1,1,1,1,1,1,1,1,1,1,1,1,1,1,1,1,1,1,1,1,1,1,1,1,1,1,1,1,1,1,1,1,1,1,1,1,1,1,1,1,1,1,1,1,1,1,1,1,1,1,1,1,1,1,1,1,1,1,1,1,1,1,1,1,1,1,1,1,1,1,1,1],"number_of_sets":1,"coherent_direction":[129,129,129,129,228,228,129,228,228,228,228,228,228,228,129,228,129,228,228,129,228,228,129,228,129,129,129,129,129,228,129,129,228,228,129,228,228,228,228,228,129,129,129,228,228,129,129,228,129,228,129,228,129,129,228,129,129,228,129,228,129,228,228,129,228,129,228,129,129,129,228,228,228,228,129,228,129,228,129,228,228,129,129,228,228,228,228,129,129,129,129,129,129,129,228,228,129,228,129,228,228,129,228,129,129,228,228,228,129,228,129,129,129,228,129,228,228,129,129,228,228,129,129,129,129,129,228,228,228,129,129,129,228,129,228,129,228,228,228,228,129,129,228,129,129,228,228,129,129,129,228,228,228,228,228,129,129,228,129,228,129,129,129,129,129,129,228,129,129,228,129,228,129,129,228,129,228,228,129,129,228,129,228,228,228,129,129,228,228,228,129,228,129,228,228,129,129,228,228,228],"coherence":1,"opposite_coherence":0,"dot_radius":2,"dot_side_length":1,"dot_life":-1,"move_distance":1,"aperture_width":300,"aperture_height":300,"dot_color":["black","black","black","black","white","white","black","white","white","white","white","white","white","white","black","white","black","white","white","black","white","white","black","white","black","black","black","black","black","white","black","black","white","white","black","white","white","white","white","white","black","black","black","white","white","black","black","white","black","white","black","white","black","black","white","black","black","white","black","white","black","white","white","black","white","black","white","black","black","black","white","white","white","white","black","white","black","white","black","white","white","black","black","white","white","white","white","black","black","black","black","black","black","black","white","white","black","white","black","white","white","black","white","black","black","white","white","white","black","white","black","black","black","white","black","white","white","black","black","white","white","black","black","black","black","black","white","white","white","black","black","black","white","black","white","black","white","white","white","white","black","black","white","black","black","white","white","black","black","black","white","white","white","white","white","black","black","white","black","white","black","black","black","black","black","black","white","black","black","white","black","white","black","black","white","black","white","white","black","black","white","black","white","white","white","black","black","white","white","white","black","white","black","white","white","black","black","white","white","white"],"dot_shape":"circle","background_color":"#AAA","RDK_type":3,"aperture_type":2,"reinsert_type":2,"frame_rate":16.884297520661157,"frame_rate_array":[10,16,17,17,17,17,17,17,17,17,17,17,17,17,17,17,17,17,17,17,17,17,17,17,17,17,17,17,17,17,17,17,17,17,17,16,17,17,17,17,17,17,17,17,17,17,17,17,17,17,17,17,17,17,17,17,17,17,17,17,16,17,17,17,17,17,17,17,17,17,17,17,17,17,17,17,17,17,17,17,17,17,17,17,17,17,17,17,17,17,17,17,17,17,17,16,17,17,17,16,17,17,17,17,17,17,17,17,17,17,17,16,17,17,17,17,17,17,17,16,17],"number_of_frames":121,"aperture_center_x":960,"aperture_center_y":540,"fixation_cross":true,"fixation_cross_width":15,"fixation_cross_height":15,"fixation_cross_color":"#111","fixation_cross_thickness":1,"border":true,"border_thickness":2,"border_color":"transparent","canvas_width":1920,"canvas_height":1080,"trial_type":"rdk","trial_index":48,"plugin_version":"2.0.0","time_elapsed":838434},{"rt":3552,"stimulus":"\n        <div class=\"response-container\">\n          <div class=\"response-instruction\">\n            <p>rotate the bar by using the left and right arrow keys.</p>\n            <p>when you are determined, press the Enter key.</p>\n          </div>\n          <div class=\"response-circle\">\n            <div class=\"response-fixation\"></div>\n            <div id=\"bar\" class=\"rotating-bar\"></div>\n          </div>\n        </div>\n      ","response":"Enter","trial_type":"html-keyboard-response","trial_index":49,"plugin_version":"2.1.0","time_elapsed":841986,"response_angle_css":221,"response_angle_rdk":229,"angular_error_target":1,"angular_error_distractor":100,"target_direction":228,"target_group":"white","reward_points":9},{"rt":null,"stimulus":"\n          <p style=\"color: #00FF00;\">Your reward: 9 points</p>\n        ","response":null,"trial_type":"html-keyboard-response","trial_index":50,"plugin_version":"2.1.0","time_elapsed":843999},{"rt":null,"stimulus":"<div class=\"fixation\" style=\"font-size: 60px;\">+</div>","response":null,"trial_type":"html-keyboard-response","trial_index":51,"plugin_version":"2.1.0","time_elapsed":845004},{"target_group":"black","condition_label":"B_H_vs_W_L_rep10","target_direction":294,"distractor_direction":37,"session_rotation":190,"rt":-1,"response":"","correct":false,"choices":"ALL_KEYS","correct_choice":["a"],"trial_duration":2000,"flip_timestamps":[],"response_ends_trial":false,"number_of_apertures":200,"number_of_dots":[1,1,1,1,1,1,1,1,1,1,1,1,1,1,1,1,1,1,1,1,1,1,1,1,1,1,1,1,1,1,1,1,1,1,1,1,1,1,1,1,1,1,1,1,1,1,1,1,1,1,1,1,1,1,1,1,1,1,1,1,1,1,1,1,1,1,1,1,1,1,1,1,1,1,1,1,1,1,1,1,1,1,1,1,1,1,1,1,1,1,1,1,1,1,1,1,1,1,1,1,1,1,1,1,1,1,1,1,1,1,1,1,1,1,1,1,1,1,1,1,1,1,1,1,1,1,1,1,1,1,1,1,1,1,1,1,1,1,1,1,1,1,1,1,1,1,1,1,1,1,1,1,1,1,1,1,1,1,1,1,1,1,1,1,1,1,1,1,1,1,1,1,1,1,1,1,1,1,1,1,1,1,1,1,1,1,1,1,1,1,1,1,1,1,1,1,1,1,1,1],"number_of_sets":1,"coherent_direction":[37,37,294,37,37,294,294,37,37,294,294,37,294,37,37,37,37,37,294,294,294,294,294,294,294,294,37,294,37,294,37,37,37,294,37,37,37,294,37,294,294,294,37,37,294,294,294,37,294,37,294,294,37,294,294,294,294,37,294,37,37,294,294,37,37,37,294,294,37,37,294,294,37,294,37,294,37,294,294,294,294,294,37,37,37,37,294,294,294,37,294,294,37,37,37,294,294,294,37,37,37,37,37,37,37,37,37,294,294,37,37,37,37,294,37,294,294,294,37,294,294,37,294,37,294,294,294,37,294,294,294,37,37,37,37,294,294,294,37,294,37,37,294,37,294,294,294,294,37,37,37,37,37,294,37,294,294,37,37,294,294,294,37,37,294,37,37,37,294,37,294,294,294,294,294,294,294,37,294,37,37,294,294,294,37,37,37,37,37,37,294,37,37,294,37,37,294,294,37,37],"coherence":1,"opposite_coherence":0,"dot_radius":2,"dot_side_length":1,"dot_life":-1,"move_distance":1,"aperture_width":300,"aperture_height":300,"dot_color":["white","white","black","white","white","black","black","white","white","black","black","white","black","white","white","white","white","white","black","black","black","black","black","black","black","black","white","black","white","black","white","white","white","black","white","white","white","black","white","black","black","black","white","white","black","black","black","white","black","white","black","black","white","black","black","black","black","white","black","white","white","black","black","white","white","white","black","black","white","white","black","black","white","black","white","black","white","black","black","black","black","black","white","white","white","white","black","black","black","white","black","black","white","white","white","black","black","black","white","white","white","white","white","white","white","white","white","black","black","white","white","white","white","black","white","black","black","black","white","black","black","white","black","white","black","black","black","white","black","black","black","white","white","white","white","black","black","black","white","black","white","white","black","white","black","black","black","black","white","white","white","white","white","black","white","black","black","white","white","black","black","black","white","white","black","white","white","white","black","white","black","black","black","black","black","black","black","white","black","white","white","black","black","black","white","white","white","white","white","white","black","white","white","black","white","white","black","black","white","white"],"dot_shape":"circle","background_color":"#AAA","RDK_type":3,"aperture_type":2,"reinsert_type":2,"frame_rate":16.892561983471076,"frame_rate_array":[9,17,17,17,17,17,17,17,17,17,17,17,17,17,17,17,17,17,17,17,17,17,17,17,17,17,17,17,16,17,17,17,17,17,17,17,17,17,17,17,17,17,17,17,17,17,17,16,17,17,17,17,17,17,17,17,17,17,17,17,17,17,16,17,17,17,17,17,17,17,17,17,17,17,17,17,17,17,17,17,17,17,17,17,17,17,17,17,17,17,17,17,17,16,17,17,17,16,17,17,17,17,17,17,17,17,17,17,17,17,17,17,17,17,17,17,17,17,17,17,17],"number_of_frames":121,"aperture_center_x":960,"aperture_center_y":540,"fixation_cross":true,"fixation_cross_width":15,"fixation_cross_height":15,"fixation_cross_color":"#111","fixation_cross_thickness":1,"border":true,"border_thickness":2,"border_color":"transparent","canvas_width":1920,"canvas_height":1080,"trial_type":"rdk","trial_index":52,"plugin_version":"2.0.0","time_elapsed":847018},{"rt":2518,"stimulus":"\n        <div class=\"response-container\">\n          <div class=\"response-instruction\">\n            <p>rotate the bar by using the left and right arrow keys.</p>\n            <p>when you are determined, press the Enter key.</p>\n          </div>\n          <div class=\"response-circle\">\n            <div class=\"response-fixation\"></div>\n            <div id=\"bar\" class=\"rotating-bar\"></div>\n          </div>\n        </div>\n      ","response":"Enter","trial_type":"html-keyboard-response","trial_index":53,"plugin_version":"2.1.0","time_elapsed":849536,"response_angle_css":398,"response_angle_rdk":52,"angular_error_target":118,"angular_error_distractor":15,"target_direction":294,"target_group":"black","reward_points":0},{"rt":null,"stimulus":"\n          <p style=\"color: #FF3333;\">Your reward: 0 points</p>\n        ","response":null,"trial_type":"html-keyboard-response","trial_index":54,"plugin_version":"2.1.0","time_elapsed":851539},{"rt":null,"stimulus":"<div class=\"fixation\" style=\"font-size: 60px;\">+</div>","response":null,"trial_type":"html-keyboard-response","trial_index":55,"plugin_version":"2.1.0","time_elapsed":852554},{"target_group":"white","condition_label":"W_H_vs_B_L_rep4","target_direction":229,"distractor_direction":115,"session_rotation":190,"rt":-1,"response":"","correct":false,"choices":"ALL_KEYS","correct_choice":["a"],"trial_duration":2000,"flip_timestamps":[],"response_ends_trial":false,"number_of_apertures":200,"number_of_dots":[1,1,1,1,1,1,1,1,1,1,1,1,1,1,1,1,1,1,1,1,1,1,1,1,1,1,1,1,1,1,1,1,1,1,1,1,1,1,1,1,1,1,1,1,1,1,1,1,1,1,1,1,1,1,1,1,1,1,1,1,1,1,1,1,1,1,1,1,1,1,1,1,1,1,1,1,1,1,1,1,1,1,1,1,1,1,1,1,1,1,1,1,1,1,1,1,1,1,1,1,1,1,1,1,1,1,1,1,1,1,1,1,1,1,1,1,1,1,1,1,1,1,1,1,1,1,1,1,1,1,1,1,1,1,1,1,1,1,1,1,1,1,1,1,1,1,1,1,1,1,1,1,1,1,1,1,1,1,1,1,1,1,1,1,1,1,1,1,1,1,1,1,1,1,1,1,1,1,1,1,1,1,1,1,1,1,1,1,1,1,1,1,1,1,1,1,1,1,1,1],"number_of_sets":1,"coherent_direction":[229,229,115,229,229,115,115,115,115,115,229,229,229,229,115,229,229,115,115,229,229,115,229,229,229,115,229,115,115,115,115,229,229,229,229,229,229,229,115,115,115,115,115,229,229,115,115,229,115,229,229,115,229,229,229,115,229,115,115,115,115,229,115,229,229,115,229,229,115,229,229,115,229,115,115,115,229,229,115,229,229,229,115,229,115,115,115,229,115,229,115,115,229,115,115,229,229,229,229,229,115,115,115,229,115,229,115,115,229,229,229,229,229,115,115,229,115,115,115,229,115,229,229,115,229,115,229,115,229,229,229,229,229,229,229,229,229,229,115,115,115,115,115,115,115,115,115,115,115,229,115,115,229,115,229,115,115,229,115,229,229,115,229,229,115,115,229,229,115,115,115,115,229,115,229,229,229,229,115,229,229,115,229,115,115,115,229,115,115,115,115,115,115,229,115,115,115,229,229,229],"coherence":1,"opposite_coherence":0,"dot_radius":2,"dot_side_length":1,"dot_life":-1,"move_distance":1,"aperture_width":300,"aperture_height":300,"dot_color":["white","white","black","white","white","black","black","black","black","black","white","white","white","white","black","white","white","black","black","white","white","black","white","white","white","black","white","black","black","black","black","white","white","white","white","white","white","white","black","black","black","black","black","white","white","black","black","white","black","white","white","black","white","white","white","black","white","black","black","black","black","white","black","white","white","black","white","white","black","white","white","black","white","black","black","black","white","white","black","white","white","white","black","white","black","black","black","white","black","white","black","black","white","black","black","white","white","white","white","white","black","black","black","white","black","white","black","black","white","white","white","white","white","black","black","white","black","black","black","white","black","white","white","black","white","black","white","black","white","white","white","white","white","white","white","white","white","white","black","black","black","black","black","black","black","black","black","black","black","white","black","black","white","black","white","black","black","white","black","white","white","black","white","white","black","black","white","white","black","black","black","black","white","black","white","white","white","white","black","white","white","black","white","black","black","black","white","black","black","black","black","black","black","white","black","black","black","white","white","white"],"dot_shape":"circle","background_color":"#AAA","RDK_type":3,"aperture_type":2,"reinsert_type":2,"frame_rate":16.883333333333333,"frame_rate_array":[11,17,17,17,17,17,17,17,17,17,17,17,16,17,17,17,17,17,17,17,17,17,17,17,17,17,17,16,17,17,17,17,17,17,17,17,17,17,17,17,17,17,17,17,17,17,17,17,17,17,17,17,17,17,17,17,17,17,17,17,17,17,17,17,16,17,16,17,17,17,17,17,17,17,17,17,17,17,17,17,17,17,17,17,17,17,17,17,16,17,17,17,17,17,17,17,17,17,16,17,17,17,17,17,16,17,17,17,17,17,17,17,16,17,17,17,17,17,17,17],"number_of_frames":120,"aperture_center_x":960,"aperture_center_y":540,"fixation_cross":true,"fixation_cross_width":15,"fixation_cross_height":15,"fixation_cross_color":"#111","fixation_cross_thickness":1,"border":true,"border_thickness":2,"border_color":"transparent","canvas_width":1920,"canvas_height":1080,"trial_type":"rdk","trial_index":56,"plugin_version":"2.0.0","time_elapsed":854559},{"rt":2467,"stimulus":"\n        <div class=\"response-container\">\n          <div class=\"response-instruction\">\n            <p>rotate the bar by using the left and right arrow keys.</p>\n            <p>when you are determined, press the Enter key.</p>\n          </div>\n          <div class=\"response-circle\">\n            <div class=\"response-fixation\"></div>\n            <div id=\"bar\" class=\"rotating-bar\"></div>\n          </div>\n        </div>\n      ","response":"Enter","trial_type":"html-keyboard-response","trial_index":57,"plugin_version":"2.1.0","time_elapsed":857026,"response_angle_css":228,"response_angle_rdk":222,"angular_error_target":-7,"angular_error_distractor":107,"target_direction":229,"target_group":"white","reward_points":8},{"rt":null,"stimulus":"\n          <p style=\"color: #00FF00;\">Your reward: 8 points</p>\n        ","response":null,"trial_type":"html-keyboard-response","trial_index":58,"plugin_version":"2.1.0","time_elapsed":859037},{"rt":null,"stimulus":"<div class=\"fixation\" style=\"font-size: 60px;\">+</div>","response":null,"trial_type":"html-keyboard-response","trial_index":59,"plugin_version":"2.1.0","time_elapsed":860052},{"target_group":"white","condition_label":"W_H_vs_B_L_rep6","target_direction":210,"distractor_direction":100,"session_rotation":190,"rt":-1,"response":"","correct":false,"choices":"ALL_KEYS","correct_choice":["a"],"trial_duration":2000,"flip_timestamps":[],"response_ends_trial":false,"number_of_apertures":200,"number_of_dots":[1,1,1,1,1,1,1,1,1,1,1,1,1,1,1,1,1,1,1,1,1,1,1,1,1,1,1,1,1,1,1,1,1,1,1,1,1,1,1,1,1,1,1,1,1,1,1,1,1,1,1,1,1,1,1,1,1,1,1,1,1,1,1,1,1,1,1,1,1,1,1,1,1,1,1,1,1,1,1,1,1,1,1,1,1,1,1,1,1,1,1,1,1,1,1,1,1,1,1,1,1,1,1,1,1,1,1,1,1,1,1,1,1,1,1,1,1,1,1,1,1,1,1,1,1,1,1,1,1,1,1,1,1,1,1,1,1,1,1,1,1,1,1,1,1,1,1,1,1,1,1,1,1,1,1,1,1,1,1,1,1,1,1,1,1,1,1,1,1,1,1,1,1,1,1,1,1,1,1,1,1,1,1,1,1,1,1,1,1,1,1,1,1,1,1,1,1,1,1,1],"number_of_sets":1,"coherent_direction":[210,210,210,100,100,210,210,210,100,210,100,210,210,100,210,210,100,210,210,100,100,210,210,100,100,100,100,210,210,100,210,100,100,210,210,100,210,100,100,100,210,100,100,100,210,210,210,210,210,100,100,210,210,210,210,100,210,210,100,100,100,100,100,100,210,100,100,210,210,210,100,210,210,100,100,210,210,100,100,100,100,210,100,100,100,210,210,100,100,210,100,100,210,100,210,210,100,210,100,210,210,100,210,210,210,210,100,210,100,100,100,210,100,210,100,210,100,210,210,100,210,100,100,100,210,210,100,100,100,210,100,100,210,210,210,210,100,100,210,210,210,210,100,100,100,210,100,100,100,210,210,100,210,100,100,100,210,100,100,100,100,100,210,210,100,100,100,210,100,210,210,210,100,100,210,100,210,210,210,210,210,210,210,100,100,210,210,210,100,100,100,100,210,100,210,210,210,210,100,100],"coherence":1,"opposite_coherence":0,"dot_radius":2,"dot_side_length":1,"dot_life":-1,"move_distance":1,"aperture_width":300,"aperture_height":300,"dot_color":["white","white","white","black","black","white","white","white","black","white","black","white","white","black","white","white","black","white","white","black","black","white","white","black","black","black","black","white","white","black","white","black","black","white","white","black","white","black","black","black","white","black","black","black","white","white","white","white","white","black","black","white","white","white","white","black","white","white","black","black","black","black","black","black","white","black","black","white","white","white","black","white","white","black","black","white","white","black","black","black","black","white","black","black","black","white","white","black","black","white","black","black","white","black","white","white","black","white","black","white","white","black","white","white","white","white","black","white","black","black","black","white","black","white","black","white","black","white","white","black","white","black","black","black","white","white","black","black","black","white","black","black","white","white","white","white","black","black","white","white","white","white","black","black","black","white","black","black","black","white","white","black","white","black","black","black","white","black","black","black","black","black","white","white","black","black","black","white","black","white","white","white","black","black","white","black","white","white","white","white","white","white","white","black","black","white","white","white","black","black","black","black","white","black","white","white","white","white","black","black"],"dot_shape":"circle","background_color":"#AAA","RDK_type":3,"aperture_type":2,"reinsert_type":2,"frame_rate":16.9,"frame_rate_array":[14,17,17,17,17,17,17,17,16,17,17,17,17,17,17,17,17,17,17,17,17,17,16,17,17,17,17,17,17,17,17,17,17,16,17,17,17,17,17,17,17,16,17,17,17,17,17,17,17,16,17,17,17,17,17,17,17,17,17,17,17,17,17,17,17,17,17,17,17,17,17,17,17,17,16,17,17,17,17,17,17,17,17,17,17,17,17,17,17,17,17,17,17,17,17,17,16,17,17,17,16,17,16,17,17,17,17,17,17,17,17,17,17,17,17,17,17,17,17,17],"number_of_frames":120,"aperture_center_x":960,"aperture_center_y":540,"fixation_cross":true,"fixation_cross_width":15,"fixation_cross_height":15,"fixation_cross_color":"#111","fixation_cross_thickness":1,"border":true,"border_thickness":2,"border_color":"transparent","canvas_width":1920,"canvas_height":1080,"trial_type":"rdk","trial_index":60,"plugin_version":"2.0.0","time_elapsed":862058},{"rt":4354,"stimulus":"\n        <div class=\"response-container\">\n          <div class=\"response-instruction\">\n            <p>rotate the bar by using the left and right arrow keys.</p>\n            <p>when you are determined, press the Enter key.</p>\n          </div>\n          <div class=\"response-circle\">\n            <div class=\"response-fixation\"></div>\n            <div id=\"bar\" class=\"rotating-bar\"></div>\n          </div>\n        </div>\n      ","response":"Enter","trial_type":"html-keyboard-response","trial_index":61,"plugin_version":"2.1.0","time_elapsed":866413,"response_angle_css":-138,"response_angle_rdk":228,"angular_error_target":18,"angular_error_distractor":128,"target_direction":210,"target_group":"white","reward_points":6},{"rt":null,"stimulus":"\n          <p style=\"color: #00FF00;\">Your reward: 6 points</p>\n        ","response":null,"trial_type":"html-keyboard-response","trial_index":62,"plugin_version":"2.1.0","time_elapsed":868428},{"rt":null,"stimulus":"<div class=\"fixation\" style=\"font-size: 60px;\">+</div>","response":null,"trial_type":"html-keyboard-response","trial_index":63,"plugin_version":"2.1.0","time_elapsed":869430},{"target_group":"black","condition_label":"B_H_vs_W_L_rep22","target_direction":299,"distractor_direction":34,"session_rotation":190,"rt":-1,"response":"","correct":false,"choices":"ALL_KEYS","correct_choice":["a"],"trial_duration":2000,"flip_timestamps":[],"response_ends_trial":false,"number_of_apertures":200,"number_of_dots":[1,1,1,1,1,1,1,1,1,1,1,1,1,1,1,1,1,1,1,1,1,1,1,1,1,1,1,1,1,1,1,1,1,1,1,1,1,1,1,1,1,1,1,1,1,1,1,1,1,1,1,1,1,1,1,1,1,1,1,1,1,1,1,1,1,1,1,1,1,1,1,1,1,1,1,1,1,1,1,1,1,1,1,1,1,1,1,1,1,1,1,1,1,1,1,1,1,1,1,1,1,1,1,1,1,1,1,1,1,1,1,1,1,1,1,1,1,1,1,1,1,1,1,1,1,1,1,1,1,1,1,1,1,1,1,1,1,1,1,1,1,1,1,1,1,1,1,1,1,1,1,1,1,1,1,1,1,1,1,1,1,1,1,1,1,1,1,1,1,1,1,1,1,1,1,1,1,1,1,1,1,1,1,1,1,1,1,1,1,1,1,1,1,1,1,1,1,1,1,1],"number_of_sets":1,"coherent_direction":[34,34,299,34,299,34,34,34,299,299,299,34,34,299,34,299,299,299,34,299,34,299,299,299,299,34,299,34,299,34,299,299,299,34,34,299,299,34,34,34,34,299,34,299,34,34,299,299,299,34,299,299,299,34,299,299,34,34,299,34,299,34,299,34,299,299,34,299,299,299,34,34,34,299,34,34,299,299,299,299,299,34,299,299,34,299,34,299,34,299,299,34,299,34,34,299,34,34,299,299,299,34,34,34,34,34,34,34,299,34,34,299,299,299,34,299,34,34,34,34,34,299,34,299,299,34,34,34,299,299,34,299,299,34,34,34,34,34,299,34,34,34,299,34,299,34,34,34,34,299,299,299,34,34,299,299,299,299,299,299,299,299,299,299,299,299,299,34,299,34,34,34,299,34,34,299,34,34,299,299,299,299,299,34,299,34,34,34,299,299,34,34,34,299,299,34,34,34,34,34],"coherence":1,"opposite_coherence":0,"dot_radius":2,"dot_side_length":1,"dot_life":-1,"move_distance":1,"aperture_width":300,"aperture_height":300,"dot_color":["white","white","black","white","black","white","white","white","black","black","black","white","white","black","white","black","black","black","white","black","white","black","black","black","black","white","black","white","black","white","black","black","black","white","white","black","black","white","white","white","white","black","white","black","white","white","black","black","black","white","black","black","black","white","black","black","white","white","black","white","black","white","black","white","black","black","white","black","black","black","white","white","white","black","white","white","black","black","black","black","black","white","black","black","white","black","white","black","white","black","black","white","black","white","white","black","white","white","black","black","black","white","white","white","white","white","white","white","black","white","white","black","black","black","white","black","white","white","white","white","white","black","white","black","black","white","white","white","black","black","white","black","black","white","white","white","white","white","black","white","white","white","black","white","black","white","white","white","white","black","black","black","white","white","black","black","black","black","black","black","black","black","black","black","black","black","black","white","black","white","white","white","black","white","white","black","white","white","black","black","black","black","black","white","black","white","white","white","black","black","white","white","white","black","black","white","white","white","white","white"],"dot_shape":"circle","background_color":"#AAA","RDK_type":3,"aperture_type":2,"reinsert_type":2,"frame_rate":16.818181818181817,"frame_rate_array":[1,16,17,17,17,17,17,17,17,17,17,17,17,17,17,17,17,17,17,17,17,17,17,17,17,16,17,17,17,17,17,17,17,17,17,17,17,17,17,17,17,17,17,17,16,17,17,17,17,17,17,17,17,17,17,17,17,17,17,17,17,17,17,17,17,17,17,17,17,17,17,17,17,17,17,17,17,17,17,17,17,17,17,17,16,17,16,17,17,17,17,17,17,17,17,17,17,17,17,17,17,17,17,17,17,17,17,17,17,17,17,17,17,17,16,17,17,17,17,17,17],"number_of_frames":121,"aperture_center_x":960,"aperture_center_y":540,"fixation_cross":true,"fixation_cross_width":15,"fixation_cross_height":15,"fixation_cross_color":"#111","fixation_cross_thickness":1,"border":true,"border_thickness":2,"border_color":"transparent","canvas_width":1920,"canvas_height":1080,"trial_type":"rdk","trial_index":64,"plugin_version":"2.0.0","time_elapsed":871437},{"rt":2667,"stimulus":"\n        <div class=\"response-container\">\n          <div class=\"response-instruction\">\n            <p>rotate the bar by using the left and right arrow keys.</p>\n            <p>when you are determined, press the Enter key.</p>\n          </div>\n          <div class=\"response-circle\">\n            <div class=\"response-fixation\"></div>\n            <div id=\"bar\" class=\"rotating-bar\"></div>\n          </div>\n        </div>\n      ","response":"Enter","trial_type":"html-keyboard-response","trial_index":65,"plugin_version":"2.1.0","time_elapsed":874104,"response_angle_css":406,"response_angle_rdk":44,"angular_error_target":105,"angular_error_distractor":10,"target_direction":299,"target_group":"black","reward_points":0},{"rt":null,"stimulus":"\n          <p style=\"color: #FF3333;\">Your reward: 0 points</p>\n        ","response":null,"trial_type":"html-keyboard-response","trial_index":66,"plugin_version":"2.1.0","time_elapsed":876120},{"rt":null,"stimulus":"<div class=\"fixation\" style=\"font-size: 60px;\">+</div>","response":null,"trial_type":"html-keyboard-response","trial_index":67,"plugin_version":"2.1.0","time_elapsed":877132},{"target_group":"white","condition_label":"W_H_vs_B_L_rep5","target_direction":231,"distractor_direction":103,"session_rotation":190,"rt":-1,"response":"","correct":false,"choices":"ALL_KEYS","correct_choice":["a"],"trial_duration":2000,"flip_timestamps":[],"response_ends_trial":false,"number_of_apertures":200,"number_of_dots":[1,1,1,1,1,1,1,1,1,1,1,1,1,1,1,1,1,1,1,1,1,1,1,1,1,1,1,1,1,1,1,1,1,1,1,1,1,1,1,1,1,1,1,1,1,1,1,1,1,1,1,1,1,1,1,1,1,1,1,1,1,1,1,1,1,1,1,1,1,1,1,1,1,1,1,1,1,1,1,1,1,1,1,1,1,1,1,1,1,1,1,1,1,1,1,1,1,1,1,1,1,1,1,1,1,1,1,1,1,1,1,1,1,1,1,1,1,1,1,1,1,1,1,1,1,1,1,1,1,1,1,1,1,1,1,1,1,1,1,1,1,1,1,1,1,1,1,1,1,1,1,1,1,1,1,1,1,1,1,1,1,1,1,1,1,1,1,1,1,1,1,1,1,1,1,1,1,1,1,1,1,1,1,1,1,1,1,1,1,1,1,1,1,1,1,1,1,1,1,1],"number_of_sets":1,"coherent_direction":[231,103,103,103,231,231,231,231,231,231,231,231,231,103,103,103,231,103,231,103,231,103,231,231,231,231,103,103,103,231,103,103,231,103,103,231,231,103,103,103,103,231,231,231,103,103,103,103,231,231,231,103,231,103,103,103,103,231,231,103,103,103,103,103,103,103,103,103,231,231,231,103,103,231,231,231,231,103,231,231,103,231,103,103,103,231,103,103,103,231,231,103,103,231,231,103,103,231,103,103,103,231,103,231,231,103,103,231,103,231,103,231,231,103,103,103,103,103,231,231,103,103,103,231,103,103,103,231,103,103,103,231,103,103,231,231,231,231,231,103,231,103,231,231,231,103,231,103,231,103,103,231,231,103,231,231,103,231,103,103,231,231,231,231,231,231,103,103,231,103,231,231,103,103,231,231,231,231,231,231,103,231,231,103,231,231,103,103,231,103,103,231,103,231,103,231,231,231,103,231],"coherence":1,"opposite_coherence":0,"dot_radius":2,"dot_side_length":1,"dot_life":-1,"move_distance":1,"aperture_width":300,"aperture_height":300,"dot_color":["white","black","black","black","white","white","white","white","white","white","white","white","white","black","black","black","white","black","white","black","white","black","white","white","white","white","black","black","black","white","black","black","white","black","black","white","white","black","black","black","black","white","white","white","black","black","black","black","white","white","white","black","white","black","black","black","black","white","white","black","black","black","black","black","black","black","black","black","white","white","white","black","black","white","white","white","white","black","white","white","black","white","black","black","black","white","black","black","black","white","white","black","black","white","white","black","black","white","black","black","black","white","black","white","white","black","black","white","black","white","black","white","white","black","black","black","black","black","white","white","black","black","black","white","black","black","black","white","black","black","black","white","black","black","white","white","white","white","white","black","white","black","white","white","white","black","white","black","white","black","black","white","white","black","white","white","black","white","black","black","white","white","white","white","white","white","black","black","white","black","white","white","black","black","white","white","white","white","white","white","black","white","white","black","white","white","black","black","white","black","black","white","black","white","black","white","white","white","black","white"],"dot_shape":"circle","background_color":"#AAA","RDK_type":3,"aperture_type":2,"reinsert_type":2,"frame_rate":16.75206611570248,"frame_rate_array":[3,13,17,17,17,17,17,17,17,17,17,17,17,17,17,17,17,17,17,17,17,17,17,17,17,17,16,17,17,17,17,17,16,17,17,17,17,17,17,17,16,17,17,17,16,17,17,17,17,17,17,17,17,17,17,17,16,16,17,17,17,16,17,17,17,17,17,17,17,17,17,17,17,17,17,17,17,17,17,17,17,17,17,17,17,17,16,17,17,17,17,17,17,17,17,17,17,17,16,17,17,17,17,17,16,17,17,17,17,17,17,17,17,16,16,17,17,17,17,17,17],"number_of_frames":121,"aperture_center_x":960,"aperture_center_y":540,"fixation_cross":true,"fixation_cross_width":15,"fixation_cross_height":15,"fixation_cross_color":"#111","fixation_cross_thickness":1,"border":true,"border_thickness":2,"border_color":"transparent","canvas_width":1920,"canvas_height":1080,"trial_type":"rdk","trial_index":68,"plugin_version":"2.0.0","time_elapsed":879138},{"rt":3444,"stimulus":"\n        <div class=\"response-container\">\n          <div class=\"response-instruction\">\n            <p>rotate the bar by using the left and right arrow keys.</p>\n            <p>when you are determined, press the Enter key.</p>\n          </div>\n          <div class=\"response-circle\">\n            <div class=\"response-fixation\"></div>\n            <div id=\"bar\" class=\"rotating-bar\"></div>\n          </div>\n        </div>\n      ","response":"Enter","trial_type":"html-keyboard-response","trial_index":69,"plugin_version":"2.1.0","time_elapsed":882582,"response_angle_css":349,"response_angle_rdk":101,"angular_error_target":-130,"angular_error_distractor":-2,"target_direction":231,"target_group":"white","reward_points":0},{"rt":null,"stimulus":"\n          <p style=\"color: #FF3333;\">Your reward: 0 points</p>\n        ","response":null,"trial_type":"html-keyboard-response","trial_index":70,"plugin_version":"2.1.0","time_elapsed":884586},{"rt":null,"stimulus":"<div class=\"fixation\" style=\"font-size: 60px;\">+</div>","response":null,"trial_type":"html-keyboard-response","trial_index":71,"plugin_version":"2.1.0","time_elapsed":885594},{"target_group":"black","condition_label":"B_H_vs_W_L_rep2","target_direction":300,"distractor_direction":37,"session_rotation":190,"rt":-1,"response":"","correct":false,"choices":"ALL_KEYS","correct_choice":["a"],"trial_duration":2000,"flip_timestamps":[],"response_ends_trial":false,"number_of_apertures":200,"number_of_dots":[1,1,1,1,1,1,1,1,1,1,1,1,1,1,1,1,1,1,1,1,1,1,1,1,1,1,1,1,1,1,1,1,1,1,1,1,1,1,1,1,1,1,1,1,1,1,1,1,1,1,1,1,1,1,1,1,1,1,1,1,1,1,1,1,1,1,1,1,1,1,1,1,1,1,1,1,1,1,1,1,1,1,1,1,1,1,1,1,1,1,1,1,1,1,1,1,1,1,1,1,1,1,1,1,1,1,1,1,1,1,1,1,1,1,1,1,1,1,1,1,1,1,1,1,1,1,1,1,1,1,1,1,1,1,1,1,1,1,1,1,1,1,1,1,1,1,1,1,1,1,1,1,1,1,1,1,1,1,1,1,1,1,1,1,1,1,1,1,1,1,1,1,1,1,1,1,1,1,1,1,1,1,1,1,1,1,1,1,1,1,1,1,1,1,1,1,1,1,1,1],"number_of_sets":1,"coherent_direction":[300,37,300,300,37,300,300,37,37,300,37,300,37,37,300,300,37,300,300,300,300,37,37,300,37,300,37,300,300,300,37,37,37,37,300,37,37,300,300,300,37,37,37,300,300,300,37,300,37,300,37,37,300,37,37,37,37,37,300,37,300,300,300,37,37,37,300,37,37,300,37,37,37,300,37,300,300,37,37,37,37,37,300,300,37,300,37,37,37,300,37,300,300,300,37,37,300,300,300,37,300,37,37,300,300,37,300,37,300,300,37,37,300,37,300,300,300,37,300,37,37,37,300,37,37,300,37,37,300,37,37,37,300,37,37,300,300,300,37,300,37,300,37,300,300,37,300,37,300,300,300,300,37,37,300,300,300,300,37,37,300,300,300,300,300,37,300,300,37,300,300,37,37,300,37,300,300,300,37,300,300,37,300,37,37,300,300,37,37,300,37,37,300,37,300,37,300,37,37,37],"coherence":1,"opposite_coherence":0,"dot_radius":2,"dot_side_length":1,"dot_life":-1,"move_distance":1,"aperture_width":300,"aperture_height":300,"dot_color":["black","white","black","black","white","black","black","white","white","black","white","black","white","white","black","black","white","black","black","black","black","white","white","black","white","black","white","black","black","black","white","white","white","white","black","white","white","black","black","black","white","white","white","black","black","black","white","black","white","black","white","white","black","white","white","white","white","white","black","white","black","black","black","white","white","white","black","white","white","black","white","white","white","black","white","black","black","white","white","white","white","white","black","black","white","black","white","white","white","black","white","black","black","black","white","white","black","black","black","white","black","white","white","black","black","white","black","white","black","black","white","white","black","white","black","black","black","white","black","white","white","white","black","white","white","black","white","white","black","white","white","white","black","white","white","black","black","black","white","black","white","black","white","black","black","white","black","white","black","black","black","black","white","white","black","black","black","black","white","white","black","black","black","black","black","white","black","black","white","black","black","white","white","black","white","black","black","black","white","black","black","white","black","white","white","black","black","white","white","black","white","white","black","white","black","white","black","white","white","white"],"dot_shape":"circle","background_color":"#AAA","RDK_type":3,"aperture_type":2,"reinsert_type":2,"frame_rate":16.884297520661157,"frame_rate_array":[5,19,15,17,17,17,17,17,17,17,17,17,17,17,17,17,17,17,17,17,17,17,17,17,17,17,17,17,17,17,17,17,17,17,17,17,17,17,17,17,17,17,17,17,17,17,17,17,17,17,17,17,17,17,17,17,17,17,17,17,17,17,16,17,17,17,17,17,17,17,17,17,17,17,16,17,17,17,17,17,17,17,17,17,17,17,17,17,17,17,17,17,17,17,17,17,17,17,17,17,17,17,17,17,17,17,17,17,17,17,17,17,17,17,17,17,17,17,17,17,17],"number_of_frames":121,"aperture_center_x":960,"aperture_center_y":540,"fixation_cross":true,"fixation_cross_width":15,"fixation_cross_height":15,"fixation_cross_color":"#111","fixation_cross_thickness":1,"border":true,"border_thickness":2,"border_color":"transparent","canvas_width":1920,"canvas_height":1080,"trial_type":"rdk","trial_index":72,"plugin_version":"2.0.0","time_elapsed":887605},{"rt":1285,"stimulus":"\n        <div class=\"response-container\">\n          <div class=\"response-instruction\">\n            <p>rotate the bar by using the left and right arrow keys.</p>\n            <p>when you are determined, press the Enter key.</p>\n          </div>\n          <div class=\"response-circle\">\n            <div class=\"response-fixation\"></div>\n            <div id=\"bar\" class=\"rotating-bar\"></div>\n          </div>\n        </div>\n      ","response":"Enter","trial_type":"html-keyboard-response","trial_index":73,"plugin_version":"2.1.0","time_elapsed":888891,"response_angle_css":12,"response_angle_rdk":78,"angular_error_target":138,"angular_error_distractor":41,"target_direction":300,"target_group":"black","reward_points":0},{"rt":null,"stimulus":"\n          <p style=\"color: #FF3333;\">Your reward: 0 points</p>\n        ","response":null,"trial_type":"html-keyboard-response","trial_index":74,"plugin_version":"2.1.0","time_elapsed":890894},{"rt":null,"stimulus":"<div class=\"fixation\" style=\"font-size: 60px;\">+</div>","response":null,"trial_type":"html-keyboard-response","trial_index":75,"plugin_version":"2.1.0","time_elapsed":891901},{"target_group":"white","condition_label":"W_H_vs_B_L_rep20","target_direction":232,"distractor_direction":124,"session_rotation":190,"rt":-1,"response":"","correct":false,"choices":"ALL_KEYS","correct_choice":["a"],"trial_duration":2000,"flip_timestamps":[],"response_ends_trial":false,"number_of_apertures":200,"number_of_dots":[1,1,1,1,1,1,1,1,1,1,1,1,1,1,1,1,1,1,1,1,1,1,1,1,1,1,1,1,1,1,1,1,1,1,1,1,1,1,1,1,1,1,1,1,1,1,1,1,1,1,1,1,1,1,1,1,1,1,1,1,1,1,1,1,1,1,1,1,1,1,1,1,1,1,1,1,1,1,1,1,1,1,1,1,1,1,1,1,1,1,1,1,1,1,1,1,1,1,1,1,1,1,1,1,1,1,1,1,1,1,1,1,1,1,1,1,1,1,1,1,1,1,1,1,1,1,1,1,1,1,1,1,1,1,1,1,1,1,1,1,1,1,1,1,1,1,1,1,1,1,1,1,1,1,1,1,1,1,1,1,1,1,1,1,1,1,1,1,1,1,1,1,1,1,1,1,1,1,1,1,1,1,1,1,1,1,1,1,1,1,1,1,1,1,1,1,1,1,1,1],"number_of_sets":1,"coherent_direction":[232,124,124,232,232,232,124,232,124,232,232,232,232,124,124,232,232,124,124,124,232,232,232,124,124,124,124,124,124,232,124,232,124,232,232,124,232,124,124,232,232,124,232,124,124,232,232,232,232,232,232,232,124,232,232,232,232,232,124,124,124,124,124,124,232,232,232,124,124,232,232,232,124,124,124,232,232,124,124,232,124,232,232,232,232,232,124,232,124,232,124,124,232,124,124,124,124,232,124,232,232,232,124,124,232,124,124,124,124,232,232,232,232,232,124,124,124,232,124,124,124,124,124,232,124,124,232,232,232,232,232,232,232,232,232,124,124,124,124,232,232,124,124,232,124,232,232,124,232,232,124,124,124,124,124,124,124,124,232,232,124,124,124,232,232,124,124,232,124,232,124,124,232,232,124,232,232,232,232,124,124,124,232,232,124,232,232,124,232,232,124,232,124,124,124,124,124,124,232,232],"coherence":1,"opposite_coherence":0,"dot_radius":2,"dot_side_length":1,"dot_life":-1,"move_distance":1,"aperture_width":300,"aperture_height":300,"dot_color":["white","black","black","white","white","white","black","white","black","white","white","white","white","black","black","white","white","black","black","black","white","white","white","black","black","black","black","black","black","white","black","white","black","white","white","black","white","black","black","white","white","black","white","black","black","white","white","white","white","white","white","white","black","white","white","white","white","white","black","black","black","black","black","black","white","white","white","black","black","white","white","white","black","black","black","white","white","black","black","white","black","white","white","white","white","white","black","white","black","white","black","black","white","black","black","black","black","white","black","white","white","white","black","black","white","black","black","black","black","white","white","white","white","white","black","black","black","white","black","black","black","black","black","white","black","black","white","white","white","white","white","white","white","white","white","black","black","black","black","white","white","black","black","white","black","white","white","black","white","white","black","black","black","black","black","black","black","black","white","white","black","black","black","white","white","black","black","white","black","white","black","black","white","white","black","white","white","white","white","black","black","black","white","white","black","white","white","black","white","white","black","white","black","black","black","black","black","black","white","white"],"dot_shape":"circle","background_color":"#AAA","RDK_type":3,"aperture_type":2,"reinsert_type":2,"frame_rate":16.826446280991735,"frame_rate_array":[1,16,17,17,17,17,17,17,17,17,17,17,17,17,17,17,17,17,17,17,17,17,17,17,17,17,17,17,17,17,17,17,16,17,17,17,17,17,17,17,17,17,17,17,16,17,17,17,17,17,17,17,17,17,17,17,17,16,17,17,17,17,17,17,17,17,17,17,17,17,17,17,17,17,17,17,17,17,17,17,17,17,17,17,17,17,17,17,17,17,17,17,17,17,17,17,17,17,17,17,17,17,17,17,17,17,17,17,17,19,15,17,17,17,17,17,16,17,17,17,17],"number_of_frames":121,"aperture_center_x":960,"aperture_center_y":540,"fixation_cross":true,"fixation_cross_width":15,"fixation_cross_height":15,"fixation_cross_color":"#111","fixation_cross_thickness":1,"border":true,"border_thickness":2,"border_color":"transparent","canvas_width":1920,"canvas_height":1080,"trial_type":"rdk","trial_index":76,"plugin_version":"2.0.0","time_elapsed":893906},{"rt":899,"stimulus":"\n        <div class=\"response-container\">\n          <div class=\"response-instruction\">\n            <p>rotate the bar by using the left and right arrow keys.</p>\n            <p>when you are determined, press the Enter key.</p>\n          </div>\n          <div class=\"response-circle\">\n            <div class=\"response-fixation\"></div>\n            <div id=\"bar\" class=\"rotating-bar\"></div>\n          </div>\n        </div>\n      ","response":"Enter","trial_type":"html-keyboard-response","trial_index":77,"plugin_version":"2.1.0","time_elapsed":894805,"response_angle_css":344,"response_angle_rdk":106,"angular_error_target":-126,"angular_error_distractor":-18,"target_direction":232,"target_group":"white","reward_points":0},{"rt":null,"stimulus":"\n          <p style=\"color: #FF3333;\">Your reward: 0 points</p>\n        ","response":null,"trial_type":"html-keyboard-response","trial_index":78,"plugin_version":"2.1.0","time_elapsed":896809},{"rt":null,"stimulus":"<div class=\"fixation\" style=\"font-size: 60px;\">+</div>","response":null,"trial_type":"html-keyboard-response","trial_index":79,"plugin_version":"2.1.0","time_elapsed":897825},{"target_group":"black","condition_label":"B_H_vs_W_L_rep9","target_direction":300,"distractor_direction":52,"session_rotation":190,"rt":-1,"response":"","correct":false,"choices":"ALL_KEYS","correct_choice":["a"],"trial_duration":2000,"flip_timestamps":[],"response_ends_trial":false,"number_of_apertures":200,"number_of_dots":[1,1,1,1,1,1,1,1,1,1,1,1,1,1,1,1,1,1,1,1,1,1,1,1,1,1,1,1,1,1,1,1,1,1,1,1,1,1,1,1,1,1,1,1,1,1,1,1,1,1,1,1,1,1,1,1,1,1,1,1,1,1,1,1,1,1,1,1,1,1,1,1,1,1,1,1,1,1,1,1,1,1,1,1,1,1,1,1,1,1,1,1,1,1,1,1,1,1,1,1,1,1,1,1,1,1,1,1,1,1,1,1,1,1,1,1,1,1,1,1,1,1,1,1,1,1,1,1,1,1,1,1,1,1,1,1,1,1,1,1,1,1,1,1,1,1,1,1,1,1,1,1,1,1,1,1,1,1,1,1,1,1,1,1,1,1,1,1,1,1,1,1,1,1,1,1,1,1,1,1,1,1,1,1,1,1,1,1,1,1,1,1,1,1,1,1,1,1,1,1],"number_of_sets":1,"coherent_direction":[300,52,52,52,52,52,300,52,52,52,300,300,300,52,52,52,300,52,300,300,52,300,52,300,300,52,52,300,52,300,300,300,52,52,300,300,52,52,52,52,52,300,52,300,300,52,300,300,52,300,300,52,300,300,300,300,300,52,300,52,300,300,52,52,52,52,300,300,300,52,52,52,300,300,52,300,52,300,52,300,52,300,52,300,300,300,300,52,52,300,52,300,300,52,300,52,300,300,300,52,52,300,300,52,300,52,52,300,52,52,52,52,52,52,52,300,52,300,300,52,300,52,52,300,300,300,52,52,52,300,300,300,300,300,52,52,52,300,52,52,300,52,300,300,300,300,52,52,300,300,52,300,52,300,52,300,52,52,52,52,52,52,52,300,300,52,300,300,300,52,52,300,300,300,300,52,300,52,52,300,300,52,52,52,52,300,300,52,52,52,300,52,52,300,300,52,300,300,300,300],"coherence":1,"opposite_coherence":0,"dot_radius":2,"dot_side_length":1,"dot_life":-1,"move_distance":1,"aperture_width":300,"aperture_height":300,"dot_color":["black","white","white","white","white","white","black","white","white","white","black","black","black","white","white","white","black","white","black","black","white","black","white","black","black","white","white","black","white","black","black","black","white","white","black","black","white","white","white","white","white","black","white","black","black","white","black","black","white","black","black","white","black","black","black","black","black","white","black","white","black","black","white","white","white","white","black","black","black","white","white","white","black","black","white","black","white","black","white","black","white","black","white","black","black","black","black","white","white","black","white","black","black","white","black","white","black","black","black","white","white","black","black","white","black","white","white","black","white","white","white","white","white","white","white","black","white","black","black","white","black","white","white","black","black","black","white","white","white","black","black","black","black","black","white","white","white","black","white","white","black","white","black","black","black","black","white","white","black","black","white"