[{"rt":4009,"stimulus":"Welcome to the experiment. Press any key to begin.","response":" ","trial_type":"html-keyboard-response","trial_index":0,"plugin_version":"2.1.0","time_elapsed":4015},{"rt":9816,"stimulus":"\n        <div class=\"instructions-container\">\n          <h2>Instructions</h2>\n\n          <p>\n          In this experiment, you will see <strong>two Random Dot Kinematograms (RDKs)</strong> displayed simultaneously.\n          </p>\n\n          <p>\n          An RDK is a visual stimulus consisting of many small dots that move coherently in a single direction. \n          In this experiment, the dots will be either <strong>white</strong> or <strong>black</strong> \n          (see the short demo below for an example of an RDK stimulus).\n          </p>\n\n          <p>\n          On each trial, the two RDKs will move in different directions. \n          Your task is to decide <strong>which RDK appears to contain more dots</strong>.\n          </p>\n\n          <p>\n          The RDK that you judge to have more dots is called the <strong>target RDK</strong>. \n          For example, if the white RDK appears to have more dots than the black RDK, \n          you should report the motion direction of the white RDK.\n          </p>\n\n          <p>\n          After viewing the RDKs, you will rotate a bar to indicate the perceived direction of the target RDK \n          using the <strong>left</strong> and <strong>right arrow keys</strong>. \n          Press <strong>Enter</strong> when you are satisfied with your response.\n          When the bar is held down, the rotation speed increases.\n          </p>\n\n          <p>\n          You will receive points based on the <strong>accuracy of your response</strong>, \n          and your final <strong>bonus reward</strong> may depend on your overall performance. \n          Please try to respond as accurately as possible.\n          </p>\n\n          <p>\n          You will first complete <strong>16 practice trials</strong>. \n          Press the <strong>Enter</strong> key to start the practice phase.\n          </p>\n\n          <canvas id=\"instruction-demo-rdk\" width=\"200\" height=\"200\"style=\"display:block;margin:12px auto; border-radius: 50%;\"></canvas>\n        </div>\n      ","response":"Enter","trial_type":"html-keyboard-response","trial_index":1,"plugin_version":"2.1.0","time_elapsed":13834},{"rt":null,"stimulus":"<div class=\"fixation\" style=\"font-size: 60px;\">+</div>","response":null,"trial_type":"html-keyboard-response","trial_index":2,"plugin_version":"2.1.0","time_elapsed":14838},{"target_group":"black","target_index":1,"condition_label":"practice","rt":-1,"response":"","correct":false,"choices":"ALL_KEYS","correct_choice":["a"],"trial_duration":2000,"flip_timestamps":[],"response_ends_trial":false,"number_of_apertures":2,"number_of_dots":[93,100],"number_of_sets":1,"coherent_direction":[281,115],"coherence":1,"opposite_coherence":0,"dot_radius":2,"dot_side_length":1,"dot_life":-1,"move_distance":1,"aperture_width":300,"aperture_height":300,"dot_color":["white","black"],"dot_shape":"circle","background_color":"#AAA","RDK_type":3,"aperture_type":2,"reinsert_type":2,"frame_rate":16.619834710743802,"frame_rate_array":[3,14,15,21,12,17,16,17,18,15,17,17,16,17,17,19,15,17,17,17,17,17,19,39,4,24,5,15,12,18,15,18,16,19,14,17,16,17,17,18,16,16,17,17,17,17,17,17,17,17,17,17,17,17,17,17,17,17,17,17,17,17,17,17,20,13,16,17,17,17,16,17,17,16,18,16,17,20,13,17,16,17,23,15,17,17,17,16,17,17,12,18,22,10,16,20,16,17,17,20,14,17,16,13,19,21,10,19,16,15,17,17,19,15,18,18,16,14,19,15,16],"number_of_frames":121,"aperture_center_x":616.5,"aperture_center_y":348,"fixation_cross":true,"fixation_cross_width":15,"fixation_cross_height":15,"fixation_cross_color":"#111","fixation_cross_thickness":1,"border":true,"border_thickness":2,"border_color":"transparent","canvas_width":1233,"canvas_height":696,"trial_type":"rdk","trial_index":3,"plugin_version":"2.0.0","time_elapsed":16848,"phase":"practice","target_direction":115,"distractor_direction":281},{"rt":12114,"stimulus":"\n        <div class=\"response-container\">\n          <div class=\"response-instruction\">\n            <p>rotate the bar by using the left and right arrow keys.</p>\n            <p>when you are determined, press the Enter key.</p>\n          </div>\n          <div class=\"response-circle\">\n            <div class=\"response-fixation\"></div>\n            <div id=\"bar\" class=\"rotating-bar\"></div>\n          </div>\n        </div>\n      ","response":"Enter","trial_type":"html-keyboard-response","trial_index":4,"plugin_version":"2.1.0","time_elapsed":28964,"random_initial_angle":15,"response_angle_css":-56,"response_angle_rdk":146,"angular_error_target":31,"angular_error_distractor":-135,"target_direction":115,"target_group":"black","reward_points":3},{"rt":null,"stimulus":"\n          <p style=\"color: #00FF00;\">Your reward: 3 points</p>\n        ","response":null,"trial_type":"html-keyboard-response","trial_index":5,"plugin_version":"2.1.0","time_elapsed":30982},{"rt":null,"stimulus":"<div class=\"fixation\" style=\"font-size: 60px;\">+</div>","response":null,"trial_type":"html-keyboard-response","trial_index":6,"plugin_version":"2.1.0","time_elapsed":31995},{"target_group":"black","target_index":1,"condition_label":"practice","rt":-1,"response":"","correct":false,"choices":"ALL_KEYS","correct_choice":["a"],"trial_duration":2000,"flip_timestamps":[],"response_ends_trial":false,"number_of_apertures":2,"number_of_dots":[58,100],"number_of_sets":1,"coherent_direction":[269,24],"coherence":1,"opposite_coherence":0,"dot_radius":2,"dot_side_length":1,"dot_life":-1,"move_distance":1,"aperture_width":300,"aperture_height":300,"dot_color":["white","black"],"dot_shape":"circle","background_color":"#AAA","RDK_type":3,"aperture_type":2,"reinsert_type":2,"frame_rate":16.775,"frame_rate_array":[10,13,17,16,17,16,17,17,17,17,17,17,17,16,17,17,17,17,16,17,17,17,17,16,17,17,17,17,17,17,17,17,16,17,17,17,17,17,17,17,16,17,17,17,17,16,17,17,17,17,17,17,17,17,17,17,17,16,17,17,17,17,17,17,17,17,16,17,17,17,17,17,17,17,17,17,17,17,17,17,17,17,17,16,17,17,17,17,17,17,17,17,16,17,17,17,17,17,17,17,17,16,17,17,17,17,17,16,17,17,17,17,17,17,24,10,15,17,17,17],"number_of_frames":120,"aperture_center_x":616.5,"aperture_center_y":348,"fixation_cross":true,"fixation_cross_width":15,"fixation_cross_height":15,"fixation_cross_color":"#111","fixation_cross_thickness":1,"border":true,"border_thickness":2,"border_color":"transparent","canvas_width":1233,"canvas_height":696,"trial_type":"rdk","trial_index":7,"plugin_version":"2.0.0","time_elapsed":34003,"phase":"practice","target_direction":24,"distractor_direction":269},{"rt":8744,"stimulus":"\n        <div class=\"response-container\">\n          <div class=\"response-instruction\">\n            <p>rotate the bar by using the left and right arrow keys.</p>\n            <p>when you are determined, press the Enter key.</p>\n          </div>\n          <div class=\"response-circle\">\n            <div class=\"response-fixation\"></div>\n            <div id=\"bar\" class=\"rotating-bar\"></div>\n          </div>\n        </div>\n      ","response":"Enter","trial_type":"html-keyboard-response","trial_index":8,"plugin_version":"2.1.0","time_elapsed":42749,"random_initial_angle":139,"response_angle_css":427,"response_angle_rdk":23,"angular_error_target":-1,"angular_error_distractor":114,"target_direction":24,"target_group":"black","reward_points":9},{"rt":null,"stimulus":"\n          <p style=\"color: #00FF00;\">Your reward: 9 points</p>\n        ","response":null,"trial_type":"html-keyboard-response","trial_index":9,"plugin_version":"2.1.0","time_elapsed":44757},{"rt":null,"stimulus":"<div class=\"fixation\" style=\"font-size: 60px;\">+</div>","response":null,"trial_type":"html-keyboard-response","trial_index":10,"plugin_version":"2.1.0","time_elapsed":45770},{"target_group":"white","target_index":0,"condition_label":"practice","rt":-1,"response":"","correct":false,"choices":"ALL_KEYS","correct_choice":["a"],"trial_duration":2000,"flip_timestamps":[],"response_ends_trial":false,"number_of_apertures":2,"number_of_dots":[100,69],"number_of_sets":1,"coherent_direction":[149,44],"coherence":1,"opposite_coherence":0,"dot_radius":2,"dot_side_length":1,"dot_life":-1,"move_distance":1,"aperture_width":300,"aperture_height":300,"dot_color":["white","black"],"dot_shape":"circle","background_color":"#AAA","RDK_type":3,"aperture_type":2,"reinsert_type":2,"frame_rate":16.783333333333335,"frame_rate_array":[5,14,17,17,16,17,17,17,17,17,17,17,17,17,17,17,17,16,17,17,17,17,17,16,17,17,18,15,17,16,17,17,17,17,17,17,17,17,17,17,17,17,17,17,17,17,17,17,17,17,17,17,17,17,17,17,17,17,17,17,16,17,17,17,16,17,17,17,17,17,17,17,17,17,17,17,16,17,17,17,17,17,17,17,17,17,17,17,17,16,17,17,17,17,17,16,17,17,17,17,17,17,17,17,17,17,17,17,17,17,17,17,17,17,17,16,17,17,17,17],"number_of_frames":120,"aperture_center_x":616.5,"aperture_center_y":348,"fixation_cross":true,"fixation_cross_width":15,"fixation_cross_height":15,"fixation_cross_color":"#111","fixation_cross_thickness":1,"border":true,"border_thickness":2,"border_color":"transparent","canvas_width":1233,"canvas_height":696,"trial_type":"rdk","trial_index":11,"plugin_version":"2.0.0","time_elapsed":47775,"phase":"practice","target_direction":149,"distractor_direction":44},{"rt":8091,"stimulus":"\n        <div class=\"response-container\">\n          <div class=\"response-instruction\">\n            <p>rotate the bar by using the left and right arrow keys.</p>\n            <p>when you are determined, press the Enter key.</p>\n          </div>\n          <div class=\"response-circle\">\n            <div class=\"response-fixation\"></div>\n            <div id=\"bar\" class=\"rotating-bar\"></div>\n          </div>\n        </div>\n      ","response":"Enter","trial_type":"html-keyboard-response","trial_index":12,"plugin_version":"2.1.0","time_elapsed":55868,"random_initial_angle":219,"response_angle_css":433,"response_angle_rdk":17,"angular_error_target":-132,"angular_error_distractor":-27,"target_direction":149,"target_group":"white","reward_points":0},{"rt":null,"stimulus":"\n          <p style=\"color: #FF3333;\">Your reward: 0 points</p>\n        ","response":null,"trial_type":"html-keyboard-response","trial_index":13,"plugin_version":"2.1.0","time_elapsed":57874},{"rt":null,"stimulus":"<div class=\"fixation\" style=\"font-size: 60px;\">+</div>","response":null,"trial_type":"html-keyboard-response","trial_index":14,"plugin_version":"2.1.0","time_elapsed":58882},{"target_group":"black","target_index":1,"condition_label":"practice","rt":-1,"response":"","correct":false,"choices":"ALL_KEYS","correct_choice":["a"],"trial_duration":2000,"flip_timestamps":[],"response_ends_trial":false,"number_of_apertures":2,"number_of_dots":[68,100],"number_of_sets":1,"coherent_direction":[5,257],"coherence":1,"opposite_coherence":0,"dot_radius":2,"dot_side_length":1,"dot_life":-1,"move_distance":1,"aperture_width":300,"aperture_height":300,"dot_color":["white","black"],"dot_shape":"circle","background_color":"#AAA","RDK_type":3,"aperture_type":2,"reinsert_type":2,"frame_rate":16.791666666666668,"frame_rate_array":[9,15,17,17,17,16,17,17,17,17,17,17,17,17,17,17,16,17,16,17,17,17,17,17,16,16,21,12,17,17,17,17,17,17,17,17,17,17,17,17,17,17,17,16,17,17,17,17,17,17,17,17,17,17,17,17,17,17,17,17,17,17,17,17,17,16,17,17,17,17,17,17,16,17,17,17,17,17,17,17,17,19,15,17,16,17,17,17,17,17,16,17,17,17,17,16,17,17,17,17,16,17,16,17,17,17,17,17,17,17,17,17,17,17,17,17,17,16,17,17],"number_of_frames":120,"aperture_center_x":616.5,"aperture_center_y":348,"fixation_cross":true,"fixation_cross_width":15,"fixation_cross_height":15,"fixation_cross_color":"#111","fixation_cross_thickness":1,"border":true,"border_thickness":2,"border_color":"transparent","canvas_width":1233,"canvas_height":696,"trial_type":"rdk","trial_index":15,"plugin_version":"2.0.0","time_elapsed":60889,"phase":"practice","target_direction":257,"distractor_direction":5},{"rt":4197,"stimulus":"\n        <div class=\"response-container\">\n          <div class=\"response-instruction\">\n            <p>rotate the bar by using the left and right arrow keys.</p>\n            <p>when you are determined, press the Enter key.</p>\n          </div>\n          <div class=\"response-circle\">\n            <div class=\"response-fixation\"></div>\n            <div id=\"bar\" class=\"rotating-bar\"></div>\n          </div>\n        </div>\n      ","response":"Enter","trial_type":"html-keyboard-response","trial_index":16,"plugin_version":"2.1.0","time_elapsed":65089,"random_initial_angle":176,"response_angle_css":239,"response_angle_rdk":211,"angular_error_target":-46,"angular_error_distractor":-154,"target_direction":257,"target_group":"black","reward_points":0},{"rt":null,"stimulus":"\n          <p style=\"color: #FF3333;\">Your reward: 0 points</p>\n        ","response":null,"trial_type":"html-keyboard-response","trial_index":17,"plugin_version":"2.1.0","time_elapsed":67097},{"rt":null,"stimulus":"<div class=\"fixation\" style=\"font-size: 60px;\">+</div>","response":null,"trial_type":"html-keyboard-response","trial_index":18,"plugin_version":"2.1.0","time_elapsed":68113},{"target_group":"white","target_index":0,"condition_label":"practice","rt":-1,"response":"","correct":false,"choices":"ALL_KEYS","correct_choice":["a"],"trial_duration":2000,"flip_timestamps":[],"response_ends_trial":false,"number_of_apertures":2,"number_of_dots":[100,51],"number_of_sets":1,"coherent_direction":[269,64],"coherence":1,"opposite_coherence":0,"dot_radius":2,"dot_side_length":1,"dot_life":-1,"move_distance":1,"aperture_width":300,"aperture_height":300,"dot_color":["white","black"],"dot_shape":"circle","background_color":"#AAA","RDK_type":3,"aperture_type":2,"reinsert_type":2,"frame_rate":16.710743801652892,"frame_rate_array":[7,6,17,17,17,17,17,18,16,17,17,17,17,17,17,18,16,17,20,14,17,17,17,17,17,16,17,17,17,17,16,17,17,17,17,17,17,17,17,17,17,17,16,17,17,17,21,12,17,17,17,17,16,17,17,17,17,17,19,15,17,16,17,17,17,17,25,8,17,17,17,17,17,17,17,17,17,17,17,17,17,17,17,17,16,17,17,17,18,15,16,17,17,18,17,17,16,17,17,17,17,17,16,17,16,17,17,18,17,15,16,17,17,17,17,17,17,17,17,17,17],"number_of_frames":121,"aperture_center_x":616.5,"aperture_center_y":348,"fixation_cross":true,"fixation_cross_width":15,"fixation_cross_height":15,"fixation_cross_color":"#111","fixation_cross_thickness":1,"border":true,"border_thickness":2,"border_color":"transparent","canvas_width":1233,"canvas_height":696,"trial_type":"rdk","trial_index":19,"plugin_version":"2.0.0","time_elapsed":70131,"phase":"practice","target_direction":269,"distractor_direction":64},{"rt":3018,"stimulus":"\n        <div class=\"response-container\">\n          <div class=\"response-instruction\">\n            <p>rotate the bar by using the left and right arrow keys.</p>\n            <p>when you are determined, press the Enter key.</p>\n          </div>\n          <div class=\"response-circle\">\n            <div class=\"response-fixation\"></div>\n            <div id=\"bar\" class=\"rotating-bar\"></div>\n          </div>\n        </div>\n      ","response":"Enter","trial_type":"html-keyboard-response","trial_index":20,"plugin_version":"2.1.0","time_elapsed":73151,"random_initial_angle":97,"response_angle_css":35,"response_angle_rdk":55,"angular_error_target":146,"angular_error_distractor":-9,"target_direction":269,"target_group":"white","reward_points":0},{"rt":null,"stimulus":"\n          <p style=\"color: #FF3333;\">Your reward: 0 points</p>\n        ","response":null,"trial_type":"html-keyboard-response","trial_index":21,"plugin_version":"2.1.0","time_elapsed":75170},{"rt":null,"stimulus":"<div class=\"fixation\" style=\"font-size: 60px;\">+</div>","response":null,"trial_type":"html-keyboard-response","trial_index":22,"plugin_version":"2.1.0","time_elapsed":76177},{"target_group":"white","target_index":0,"condition_label":"practice","rt":-1,"response":"","correct":false,"choices":"ALL_KEYS","correct_choice":["a"],"trial_duration":2000,"flip_timestamps":[],"response_ends_trial":false,"number_of_apertures":2,"number_of_dots":[100,79],"number_of_sets":1,"coherent_direction":[260,73],"coherence":1,"opposite_coherence":0,"dot_radius":2,"dot_side_length":1,"dot_life":-1,"move_distance":1,"aperture_width":300,"aperture_height":300,"dot_color":["white","black"],"dot_shape":"circle","background_color":"#AAA","RDK_type":3,"aperture_type":2,"reinsert_type":2,"frame_rate":16.825,"frame_rate_array":[10,16,17,17,17,17,17,17,17,17,17,17,17,16,17,17,17,16,17,17,17,17,17,17,16,17,16,17,17,17,16,17,16,17,17,17,17,17,17,17,17,17,16,18,15,17,17,17,17,16,17,17,16,17,17,17,17,17,17,17,17,17,17,17,17,17,17,17,17,17,17,17,17,17,17,17,17,17,16,17,17,17,17,17,17,17,16,17,17,17,17,17,17,17,17,17,17,17,17,17,17,16,17,17,17,17,17,17,17,17,17,17,17,17,17,17,17,17,17,17],"number_of_frames":120,"aperture_center_x":616.5,"aperture_center_y":348,"fixation_cross":true,"fixation_cross_width":15,"fixation_cross_height":15,"fixation_cross_color":"#111","fixation_cross_thickness":1,"border":true,"border_thickness":2,"border_color":"transparent","canvas_width":1233,"canvas_height":696,"trial_type":"rdk","trial_index":23,"plugin_version":"2.0.0","time_elapsed":78186,"phase":"practice","target_direction":260,"distractor_direction":73},{"rt":4703,"stimulus":"\n        <div class=\"response-container\">\n          <div class=\"response-instruction\">\n            <p>rotate the bar by using the left and right arrow keys.</p>\n            <p>when you are determined, press the Enter key.</p>\n          </div>\n          <div class=\"response-circle\">\n            <div class=\"response-fixation\"></div>\n            <div id=\"bar\" class=\"rotating-bar\"></div>\n          </div>\n        </div>\n      ","response":"Enter","trial_type":"html-keyboard-response","trial_index":24,"plugin_version":"2.1.0","time_elapsed":82890,"random_initial_angle":173,"response_angle_css":203,"response_angle_rdk":247,"angular_error_target":-13,"angular_error_distractor":174,"target_direction":260,"target_group":"white","reward_points":7},{"rt":null,"stimulus":"\n          <p style=\"color: #00FF00;\">Your reward: 7 points</p>\n        ","response":null,"trial_type":"html-keyboard-response","trial_index":25,"plugin_version":"2.1.0","time_elapsed":84908},{"rt":null,"stimulus":"<div class=\"fixation\" style=\"font-size: 60px;\">+</div>","response":null,"trial_type":"html-keyboard-response","trial_index":26,"plugin_version":"2.1.0","time_elapsed":85915},{"target_group":"black","target_index":1,"condition_label":"practice","rt":-1,"response":"","correct":false,"choices":"ALL_KEYS","correct_choice":["a"],"trial_duration":2000,"flip_timestamps":[],"response_ends_trial":false,"number_of_apertures":2,"number_of_dots":[70,100],"number_of_sets":1,"coherent_direction":[148,248],"coherence":1,"opposite_coherence":0,"dot_radius":2,"dot_side_length":1,"dot_life":-1,"move_distance":1,"aperture_width":300,"aperture_height":300,"dot_color":["white","black"],"dot_shape":"circle","background_color":"#AAA","RDK_type":3,"aperture_type":2,"reinsert_type":2,"frame_rate":16.775,"frame_rate_array":[10,17,16,16,17,17,17,17,17,17,17,17,17,16,17,16,17,17,16,17,16,17,17,17,17,17,17,17,17,17,16,17,17,17,32,5,13,17,17,18,17,17,17,17,17,17,17,17,18,15,17,17,17,17,17,17,17,18,15,17,17,16,17,17,17,17,16,16,17,17,17,17,17,17,17,17,17,17,17,17,17,17,18,15,17,17,17,18,17,16,15,17,17,17,18,15,17,17,17,17,17,17,17,17,18,15,17,17,16,18,15,18,16,20,14,17,16,17,17,17],"number_of_frames":120,"aperture_center_x":616.5,"aperture_center_y":348,"fixation_cross":true,"fixation_cross_width":15,"fixation_cross_height":15,"fixation_cross_color":"#111","fixation_cross_thickness":1,"border":true,"border_thickness":2,"border_color":"transparent","canvas_width":1233,"canvas_height":696,"trial_type":"rdk","trial_index":27,"plugin_version":"2.0.0","time_elapsed":87924,"phase":"practice","target_direction":248,"distractor_direction":148},{"rt":3896,"stimulus":"\n        <div class=\"response-container\">\n          <div class=\"response-instruction\">\n            <p>rotate the bar by using the left and right arrow keys.</p>\n            <p>when you are determined, press the Enter key.</p>\n          </div>\n          <div class=\"response-circle\">\n            <div class=\"response-fixation\"></div>\n            <div id=\"bar\" class=\"rotating-bar\"></div>\n          </div>\n        </div>\n      ","response":"Enter","trial_type":"html-keyboard-response","trial_index":28,"plugin_version":"2.1.0","time_elapsed":91822,"random_initial_angle":113,"response_angle_css":286,"response_angle_rdk":164,"angular_error_target":-84,"angular_error_distractor":16,"target_direction":248,"target_group":"black","reward_points":0},{"rt":null,"stimulus":"\n          <p style=\"color: #FF3333;\">Your reward: 0 points</p>\n        ","response":null,"trial_type":"html-keyboard-response","trial_index":29,"plugin_version":"2.1.0","time_elapsed":93836},{"rt":null,"stimulus":"<div class=\"fixation\" style=\"font-size: 60px;\">+</div>","response":null,"trial_type":"html-keyboard-response","trial_index":30,"plugin_version":"2.1.0","time_elapsed":94838},{"target_group":"black","target_index":1,"condition_label":"practice","rt":-1,"response":"","correct":false,"choices":"ALL_KEYS","correct_choice":["a"],"trial_duration":2000,"flip_timestamps":[],"response_ends_trial":false,"number_of_apertures":2,"number_of_dots":[93,100],"number_of_sets":1,"coherent_direction":[231,113],"coherence":1,"opposite_coherence":0,"dot_radius":2,"dot_side_length":1,"dot_life":-1,"move_distance":1,"aperture_width":300,"aperture_height":300,"dot_color":["white","black"],"dot_shape":"circle","background_color":"#AAA","RDK_type":3,"aperture_type":2,"reinsert_type":2,"frame_rate":16.710743801652892,"frame_rate_array":[11,14,17,17,17,17,16,17,17,17,16,17,17,17,17,17,17,17,17,17,17,17,17,16,17,17,17,17,21,22,13,11,17,16,17,17,18,15,17,17,17,16,17,18,17,16,16,18,16,17,16,17,16,17,16,16,17,16,19,15,17,16,16,17,16,17,17,18,16,17,16,17,17,18,15,17,17,19,19,17,14,15,16,17,16,17,17,20,15,16,18,16,20,14,16,17,18,15,18,17,16,17,17,17,17,17,18,15,17,18,17,15,17,16,17,17,17,17,17,17,17],"number_of_frames":121,"aperture_center_x":616.5,"aperture_center_y":348,"fixation_cross":true,"fixation_cross_width":15,"fixation_cross_height":15,"fixation_cross_color":"#111","fixation_cross_thickness":1,"border":true,"border_thickness":2,"border_color":"transparent","canvas_width":1233,"canvas_height":696,"trial_type":"rdk","trial_index":31,"plugin_version":"2.0.0","time_elapsed":96852,"phase":"practice","target_direction":113,"distractor_direction":231},{"rt":5352,"stimulus":"\n        <div class=\"response-container\">\n          <div class=\"response-instruction\">\n            <p>rotate the bar by using the left and right arrow keys.</p>\n            <p>when you are determined, press the Enter key.</p>\n          </div>\n          <div class=\"response-circle\">\n            <div class=\"response-fixation\"></div>\n            <div id=\"bar\" class=\"rotating-bar\"></div>\n          </div>\n        </div>\n      ","response":"Enter","trial_type":"html-keyboard-response","trial_index":32,"plugin_version":"2.1.0","time_elapsed":102206,"random_initial_angle":180,"response_angle_css":-45,"response_angle_rdk":135,"angular_error_target":22,"angular_error_distractor":-96,"target_direction":113,"target_group":"black","reward_points":5},{"rt":null,"stimulus":"\n          <p style=\"color: #00FF00;\">Your reward: 5 points</p>\n        ","response":null,"trial_type":"html-keyboard-response","trial_index":33,"plugin_version":"2.1.0","time_elapsed":104216},{"rt":null,"stimulus":"<div class=\"fixation\" style=\"font-size: 60px;\">+</div>","response":null,"trial_type":"html-keyboard-response","trial_index":34,"plugin_version":"2.1.0","time_elapsed":105220},{"target_group":"black","target_index":1,"condition_label":"practice","rt":-1,"response":"","correct":false,"choices":"ALL_KEYS","correct_choice":["a"],"trial_duration":2000,"flip_timestamps":[],"response_ends_trial":false,"number_of_apertures":2,"number_of_dots":[59,100],"number_of_sets":1,"coherent_direction":[193,57],"coherence":1,"opposite_coherence":0,"dot_radius":2,"dot_side_length":1,"dot_life":-1,"move_distance":1,"aperture_width":300,"aperture_height":300,"dot_color":["white","black"],"dot_shape":"circle","background_color":"#AAA","RDK_type":3,"aperture_type":2,"reinsert_type":2,"frame_rate":16.66115702479339,"frame_rate_array":[5,10,15,16,17,17,17,17,26,23,14,2,18,16,18,15,17,17,17,19,17,17,17,17,17,16,17,16,16,17,16,19,17,17,17,17,17,16,19,16,17,17,18,17,16,15,16,17,17,18,17,17,17,17,16,17,17,17,17,17,15,17,17,17,19,17,16,17,17,17,17,17,16,17,17,18,15,17,17,17,17,17,17,18,15,17,17,16,17,16,17,16,17,16,17,16,17,17,17,17,17,17,19,15,17,17,17,16,17,17,16,17,16,18,17,17,17,16,17,17,17],"number_of_frames":121,"aperture_center_x":616.5,"aperture_center_y":348,"fixation_cross":true,"fixation_cross_width":15,"fixation_cross_height":15,"fixation_cross_color":"#111","fixation_cross_thickness":1,"border":true,"border_thickness":2,"border_color":"transparent","canvas_width":1233,"canvas_height":696,"trial_type":"rdk","trial_index":35,"plugin_version":"2.0.0","time_elapsed":107226,"phase":"practice","target_direction":57,"distractor_direction":193},{"rt":3891,"stimulus":"\n        <div class=\"response-container\">\n          <div class=\"response-instruction\">\n            <p>rotate the bar by using the left and right arrow keys.</p>\n            <p>when you are determined, press the Enter key.</p>\n          </div>\n          <div class=\"response-circle\">\n            <div class=\"response-fixation\"></div>\n            <div id=\"bar\" class=\"rotating-bar\"></div>\n          </div>\n        </div>\n      ","response":"Enter","trial_type":"html-keyboard-response","trial_index":36,"plugin_version":"2.1.0","time_elapsed":111119,"random_initial_angle":247,"response_angle_css":445,"response_angle_rdk":5,"angular_error_target":-52,"angular_error_distractor":172,"target_direction":57,"target_group":"black","reward_points":0},{"rt":null,"stimulus":"\n          <p style=\"color: #FF3333;\">Your reward: 0 points</p>\n        ","response":null,"trial_type":"html-keyboard-response","trial_index":37,"plugin_version":"2.1.0","time_elapsed":113126},{"rt":null,"stimulus":"<div class=\"fixation\" style=\"font-size: 60px;\">+</div>","response":null,"trial_type":"html-keyboard-response","trial_index":38,"plugin_version":"2.1.0","time_elapsed":114139},{"target_group":"white","target_index":0,"condition_label":"practice","rt":-1,"response":"","correct":false,"choices":"ALL_KEYS","correct_choice":["a"],"trial_duration":2000,"flip_timestamps":[],"response_ends_trial":false,"number_of_apertures":2,"number_of_dots":[100,71],"number_of_sets":1,"coherent_direction":[262,115],"coherence":1,"opposite_coherence":0,"dot_radius":2,"dot_side_length":1,"dot_life":-1,"move_distance":1,"aperture_width":300,"aperture_height":300,"dot_color":["white","black"],"dot_shape":"circle","background_color":"#AAA","RDK_type":3,"aperture_type":2,"reinsert_type":2,"frame_rate":16.801652892561982,"frame_rate_array":[5,16,17,16,18,16,17,17,17,17,17,17,17,17,17,17,17,17,17,17,17,16,17,16,17,17,17,17,17,17,17,17,17,17,17,17,17,29,6,15,17,17,17,17,17,17,17,17,17,17,17,17,17,16,17,17,17,17,17,17,17,17,17,17,16,16,17,17,17,17,17,17,17,16,17,17,17,17,17,17,18,16,17,16,17,17,17,17,17,17,17,17,17,17,17,17,17,17,17,17,17,17,18,17,17,16,17,17,17,17,17,17,17,16,17,17,17,17,16,17,17],"number_of_frames":121,"aperture_center_x":616.5,"aperture_center_y":348,"fixation_cross":true,"fixation_cross_width":15,"fixation_cross_height":15,"fixation_cross_color":"#111","fixation_cross_thickness":1,"border":true,"border_thickness":2,"border_color":"transparent","canvas_width":1233,"canvas_height":696,"trial_type":"rdk","trial_index":39,"plugin_version":"2.0.0","time_elapsed":116144,"phase":"practice","target_direction":262,"distractor_direction":115},{"rt":1865,"stimulus":"\n        <div class=\"response-container\">\n          <div class=\"response-instruction\">\n            <p>rotate the bar by using the left and right arrow keys.</p>\n            <p>when you are determined, press the Enter key.</p>\n          </div>\n          <div class=\"response-circle\">\n            <div class=\"response-fixation\"></div>\n            <div id=\"bar\" class=\"rotating-bar\"></div>\n          </div>\n        </div>\n      ","response":"Enter","trial_type":"html-keyboard-response","trial_index":40,"plugin_version":"2.1.0","time_elapsed":118010,"random_initial_angle":26,"response_angle_css":26,"response_angle_rdk":64,"angular_error_target":162,"angular_error_distractor":-51,"target_direction":262,"target_group":"white","reward_points":0},{"rt":null,"stimulus":"\n          <p style=\"color: #FF3333;\">Your reward: 0 points</p>\n        ","response":null,"trial_type":"html-keyboard-response","trial_index":41,"plugin_version":"2.1.0","time_elapsed":120019},{"rt":null,"stimulus":"<div class=\"fixation\" style=\"font-size: 60px;\">+</div>","response":null,"trial_type":"html-keyboard-response","trial_index":42,"plugin_version":"2.1.0","time_elapsed":121033},{"target_group":"white","target_index":0,"condition_label":"practice","rt":-1,"response":"","correct":false,"choices":"ALL_KEYS","correct_choice":["a"],"trial_duration":2000,"flip_timestamps":[],"response_ends_trial":false,"number_of_apertures":2,"number_of_dots":[100,65],"number_of_sets":1,"coherent_direction":[117,315],"coherence":1,"opposite_coherence":0,"dot_radius":2,"dot_side_length":1,"dot_life":-1,"move_distance":1,"aperture_width":300,"aperture_height":300,"dot_color":["white","black"],"dot_shape":"circle","background_color":"#AAA","RDK_type":3,"aperture_type":2,"reinsert_type":2,"frame_rate":16.702479338842974,"frame_rate_array":[8,10,15,17,17,17,17,17,16,17,16,17,17,16,17,17,18,17,17,17,21,13,16,17,16,17,17,17,20,13,17,17,17,17,17,16,18,16,17,17,17,17,17,17,17,16,17,17,17,16,17,17,17,17,17,16,18,15,17,17,17,17,17,17,18,19,14,16,18,15,17,17,17,17,17,17,17,17,16,17,17,17,17,17,17,17,17,17,17,17,17,17,17,17,17,17,18,17,17,16,17,17,16,17,17,17,17,17,17,17,17,16,17,16,19,14,19,14,17,17,17],"number_of_frames":121,"aperture_center_x":616.5,"aperture_center_y":348,"fixation_cross":true,"fixation_cross_width":15,"fixation_cross_height":15,"fixation_cross_color":"#111","fixation_cross_thickness":1,"border":true,"border_thickness":2,"border_color":"transparent","canvas_width":1233,"canvas_height":696,"trial_type":"rdk","trial_index":43,"plugin_version":"2.0.0","time_elapsed":123047,"phase":"practice","target_direction":117,"distractor_direction":315},{"rt":4285,"stimulus":"\n        <div class=\"response-container\">\n          <div class=\"response-instruction\">\n            <p>rotate the bar by using the left and right arrow keys.</p>\n            <p>when you are determined, press the Enter key.</p>\n          </div>\n          <div class=\"response-circle\">\n            <div class=\"response-fixation\"></div>\n            <div id=\"bar\" class=\"rotating-bar\"></div>\n          </div>\n        </div>\n      ","response":"Enter","trial_type":"html-keyboard-response","trial_index":44,"plugin_version":"2.1.0","time_elapsed":127333,"random_initial_angle":123,"response_angle_css":287,"response_angle_rdk":163,"angular_error_target":46,"angular_error_distractor":-152,"target_direction":117,"target_group":"white","reward_points":0},{"rt":null,"stimulus":"\n          <p style=\"color: #FF3333;\">Your reward: 0 points</p>\n        ","response":null,"trial_type":"html-keyboard-response","trial_index":45,"plugin_version":"2.1.0","time_elapsed":129340},{"rt":null,"stimulus":"<div class=\"fixation\" style=\"font-size: 60px;\">+</div>","response":null,"trial_type":"html-keyboard-response","trial_index":46,"plugin_version":"2.1.0","time_elapsed":130358},{"target_group":"white","target_index":0,"condition_label":"practice","rt":-1,"response":"","correct":false,"choices":"ALL_KEYS","correct_choice":["a"],"trial_duration":2000,"flip_timestamps":[],"response_ends_trial":false,"number_of_apertures":2,"number_of_dots":[100,89],"number_of_sets":1,"coherent_direction":[90,283],"coherence":1,"opposite_coherence":0,"dot_radius":2,"dot_side_length":1,"dot_life":-1,"move_distance":1,"aperture_width":300,"aperture_height":300,"dot_color":["white","black"],"dot_shape":"circle","background_color":"#AAA","RDK_type":3,"aperture_type":2,"reinsert_type":2,"frame_rate":16.758333333333333,"frame_rate_array":[24,10,16,16,17,17,17,17,16,17,16,17,16,17,17,17,16,17,25,11,18,13,16,17,17,17,20,14,17,17,17,17,18,16,17,19,15,16,17,17,17,17,17,17,17,16,18,16,17,16,17,17,18,16,16,17,17,17,19,19,11,16,17,17,17,18,15,19,15,22,16,17,16,17,18,15,17,12,16,16,17,17,18,18,18,13,17,17,17,17,17,20,13,17,17,17,17,17,17,16,17,17,17,17,16,18,15,19,16,15,17,19,14,16,17,17,19,15,17,17],"number_of_frames":120,"aperture_center_x":616.5,"aperture_center_y":348,"fixation_cross":true,"fixation_cross_width":15,"fixation_cross_height":15,"fixation_cross_color":"#111","fixation_cross_thickness":1,"border":true,"border_thickness":2,"border_color":"transparent","canvas_width":1233,"canvas_height":696,"trial_type":"rdk","trial_index":47,"plugin_version":"2.0.0","time_elapsed":132362,"phase":"practice","target_direction":90,"distractor_direction":283},{"rt":1536,"stimulus":"\n        <div class=\"response-container\">\n          <div class=\"response-instruction\">\n            <p>rotate the bar by using the left and right arrow keys.</p>\n            <p>when you are determined, press the Enter key.</p>\n          </div>\n          <div class=\"response-circle\">\n            <div class=\"response-fixation\"></div>\n            <div id=\"bar\" class=\"rotating-bar\"></div>\n          </div>\n        </div>\n      ","response":"Enter","trial_type":"html-keyboard-response","trial_index":48,"plugin_version":"2.1.0","time_elapsed":133899,"random_initial_angle":69,"response_angle_css":69,"response_angle_rdk":21,"angular_error_target":-69,"angular_error_distractor":98,"target_direction":90,"target_group":"white","reward_points":0},{"rt":null,"stimulus":"\n          <p style=\"color: #FF3333;\">Your reward: 0 points</p>\n        ","response":null,"trial_type":"html-keyboard-response","trial_index":49,"plugin_version":"2.1.0","time_elapsed":135914},{"rt":null,"stimulus":"<div class=\"fixation\" style=\"font-size: 60px;\">+</div>","response":null,"trial_type":"html-keyboard-response","trial_index":50,"plugin_version":"2.1.0","time_elapsed":136930},{"target_group":"black","target_index":1,"condition_label":"practice","rt":1822,"response":"ArrowRight","correct":false,"choices":"ALL_KEYS","correct_choice":["a"],"trial_duration":2000,"flip_timestamps":[],"response_ends_trial":false,"number_of_apertures":2,"number_of_dots":[54,100],"number_of_sets":1,"coherent_direction":[273,102],"coherence":1,"opposite_coherence":0,"dot_radius":2,"dot_side_length":1,"dot_life":-1,"move_distance":1,"aperture_width":300,"aperture_height":300,"dot_color":["white","black"],"dot_shape":"circle","background_color":"#AAA","RDK_type":3,"aperture_type":2,"reinsert_type":2,"frame_rate":16.793388429752067,"frame_rate_array":[4,15,17,17,17,17,17,17,17,17,17,17,17,17,17,17,17,17,17,17,17,17,17,17,17,17,17,17,17,17,17,17,17,17,18,15,17,16,17,17,17,17,17,17,17,16,17,17,17,17,17,17,17,17,17,16,17,17,17,17,17,17,17,17,17,17,17,17,17,16,16,16,17,17,17,17,17,17,18,16,17,17,17,17,17,17,17,17,17,17,17,17,17,17,17,17,17,17,16,17,17,17,17,17,17,17,17,17,17,18,16,43,4,16,4,17,17,17,17,21,12],"number_of_frames":121,"aperture_center_x":616.5,"aperture_center_y":348,"fixation_cross":true,"fixation_cross_width":15,"fixation_cross_height":15,"fixation_cross_color":"#111","fixation_cross_thickness":1,"border":true,"border_thickness":2,"border_color":"transparent","canvas_width":1233,"canvas_height":696,"trial_type":"rdk","trial_index":51,"plugin_version":"2.0.0","time_elapsed":138935,"phase":"practice","target_direction":102,"distractor_direction":273},{"rt":1043,"stimulus":"\n        <div class=\"response-container\">\n          <div class=\"response-instruction\">\n            <p>rotate the bar by using the left and right arrow keys.</p>\n            <p>when you are determined, press the Enter key.</p>\n          </div>\n          <div class=\"response-circle\">\n            <div class=\"response-fixation\"></div>\n            <div id=\"bar\" class=\"rotating-bar\"></div>\n          </div>\n        </div>\n      ","response":"Enter","trial_type":"html-keyboard-response","trial_index":52,"plugin_version":"2.1.0","time_elapsed":139980,"random_initial_angle":65,"response_angle_css":65,"response_angle_rdk":25,"angular_error_target":-77,"angular_error_distractor":112,"target_direction":102,"target_group":"black","reward_points":0},{"rt":null,"stimulus":"\n          <p style=\"color: #FF3333;\">Your reward: 0 points</p>\n        ","response":null,"trial_type":"html-keyboard-response","trial_index":53,"plugin_version":"2.1.0","time_elapsed":141995},{"rt":null,"stimulus":"<div class=\"fixation\" style=\"font-size: 60px;\">+</div>","response":null,"trial_type":"html-keyboard-response","trial_index":54,"plugin_version":"2.1.0","time_elapsed":143002},{"target_group":"white","target_index":0,"condition_label":"practice","rt":-1,"response":"","correct":false,"choices":"ALL_KEYS","correct_choice":["a"],"trial_duration":2000,"flip_timestamps":[],"response_ends_trial":false,"number_of_apertures":2,"number_of_dots":[100,68],"number_of_sets":1,"coherent_direction":[20,192],"coherence":1,"opposite_coherence":0,"dot_radius":2,"dot_side_length":1,"dot_life":-1,"move_distance":1,"aperture_width":300,"aperture_height":300,"dot_color":["white","black"],"dot_shape":"circle","background_color":"#AAA","RDK_type":3,"aperture_type":2,"reinsert_type":2,"frame_rate":16.776859504132233,"frame_rate_array":[6,17,17,16,17,17,17,17,17,17,17,17,17,17,17,17,17,17,16,17,17,16,17,17,17,17,16,17,17,17,17,17,16,17,17,17,17,17,17,17,17,17,17,17,16,17,17,17,17,17,17,17,17,17,17,16,17,17,17,17,17,17,17,16,17,17,17,17,17,17,17,17,17,17,17,17,17,16,18,16,17,16,17,17,17,17,17,17,17,17,17,17,16,17,17,17,16,16,17,17,17,17,17,16,17,17,17,17,17,16,17,17,17,17,17,17,17,17,17,16,17],"number_of_frames":121,"aperture_center_x":616.5,"aperture_center_y":348,"fixation_cross":true,"fixation_cross_width":15,"fixation_cross_height":15,"fixation_cross_color":"#111","fixation_cross_thickness":1,"border":true,"border_thickness":2,"border_color":"transparent","canvas_width":1233,"canvas_height":696,"trial_type":"rdk","trial_index":55,"plugin_version":"2.0.0","time_elapsed":145009,"phase":"practice","target_direction":20,"distractor_direction":192},{"rt":2491,"stimulus":"\n        <div class=\"response-container\">\n          <div class=\"response-instruction\">\n            <p>rotate the bar by using the left and right arrow keys.</p>\n            <p>when you are determined, press the Enter key.</p>\n          </div>\n          <div class=\"response-circle\">\n            <div class=\"response-fixation\"></div>\n            <div id=\"bar\" class=\"rotating-bar\"></div>\n          </div>\n        </div>\n      ","response":"Enter","trial_type":"html-keyboard-response","trial_index":56,"plugin_version":"2.1.0","time_elapsed":147502,"random_initial_angle":31,"response_angle_css":-100,"response_angle_rdk":190,"angular_error_target":170,"angular_error_distractor":-2,"target_direction":20,"target_group":"white","reward_points":0},{"rt":null,"stimulus":"\n          <p style=\"color: #FF3333;\">Your reward: 0 points</p>\n        ","response":null,"trial_type":"html-keyboard-response","trial_index":57,"plugin_version":"2.1.0","time_elapsed":149514},{"rt":null,"stimulus":"<div class=\"fixation\" style=\"font-size: 60px;\">+</div>","response":null,"trial_type":"html-keyboard-response","trial_index":58,"plugin_version":"2.1.0","time_elapsed":150520},{"target_group":"white","target_index":0,"condition_label":"practice","rt":-1,"response":"","correct":false,"choices":"ALL_KEYS","correct_choice":["a"],"trial_duration":2000,"flip_timestamps":[],"response_ends_trial":false,"number_of_apertures":2,"number_of_dots":[100,54],"number_of_sets":1,"coherent_direction":[180,303],"coherence":1,"opposite_coherence":0,"dot_radius":2,"dot_side_length":1,"dot_life":-1,"move_distance":1,"aperture_width":300,"aperture_height":300,"dot_color":["white","black"],"dot_shape":"circle","background_color":"#AAA","RDK_type":3,"aperture_type":2,"reinsert_type":2,"frame_rate":16.8,"frame_rate_array":[11,17,17,17,17,17,17,17,17,17,17,17,16,17,17,17,17,17,17,17,16,17,17,17,17,17,17,16,17,17,17,17,17,17,16,17,17,17,17,17,17,17,16,17,17,17,17,16,17,17,16,16,17,17,17,16,17,16,16,17,17,17,17,17,17,17,17,16,17,17,17,17,17,17,17,17,17,17,16,16,16,17,17,17,17,17,16,17,17,17,17,17,17,17,17,17,17,17,17,17,17,16,17,17,17,17,17,17,17,18,16,16,17,17,17,17,17,17,17,17],"number_of_frames":120,"aperture_center_x":616.5,"aperture_center_y":348,"fixation_cross":true,"fixation_cross_width":15,"fixation_cross_height":15,"fixation_cross_color":"#111","fixation_cross_thickness":1,"border":true,"border_thickness":2,"border_color":"transparent","canvas_width":1233,"canvas_height":696,"trial_type":"rdk","trial_index":59,"plugin_version":"2.0.0","time_elapsed":152533,"phase":"practice","target_direction":180,"distractor_direction":303},{"rt":2395,"stimulus":"\n        <div class=\"response-container\">\n          <div class=\"response-instruction\">\n            <p>rotate the bar by using the left and right arrow keys.</p>\n            <p>when you are determined, press the Enter key.</p>\n          </div>\n          <div class=\"response-circle\">\n            <div class=\"response-fixation\"></div>\n            <div id=\"bar\" class=\"rotating-bar\"></div>\n          </div>\n        </div>\n      ","response":"Enter","trial_type":"html-keyboard-response","trial_index":60,"plugin_version":"2.1.0","time_elapsed":154930,"random_initial_angle":247,"response_angle_css":302,"response_angle_rdk":148,"angular_error_target":-32,"angular_error_distractor":-155,"target_direction":180,"target_group":"white","reward_points":3},{"rt":null,"stimulus":"\n          <p style=\"color: #00FF00;\">Your reward: 3 points</p>\n        ","response":null,"trial_type":"html-keyboard-response","trial_index":61,"plugin_version":"2.1.0","time_elapsed":156944},{"rt":null,"stimulus":"<div class=\"fixation\" style=\"font-size: 60px;\">+</div>","response":null,"trial_type":"html-keyboard-response","trial_index":62,"plugin_version":"2.1.0","time_elapsed":157958},{"target_group":"black","target_index":1,"condition_label":"practice","rt":-1,"response":"","correct":false,"choices":"ALL_KEYS","correct_choice":["a"],"trial_duration":2000,"flip_timestamps":[],"response_ends_trial":false,"number_of_apertures":2,"number_of_dots":[64,100],"number_of_sets":1,"coherent_direction":[90,307],"coherence":1,"opposite_coherence":0,"dot_radius":2,"dot_side_length":1,"dot_life":-1,"move_distance":1,"aperture_width":300,"aperture_height":300,"dot_color":["white","black"],"dot_shape":"circle","background_color":"#AAA","RDK_type":3,"aperture_type":2,"reinsert_type":2,"frame_rate":16.636363636363637,"frame_rate_array":[6,8,19,11,18,17,16,17,16,18,15,17,18,16,16,17,17,17,18,15,17,17,17,17,17,17,17,17,17,17,17,16,17,17,17,17,17,17,17,17,16,17,17,17,18,17,17,17,17,17,17,16,18,15,17,17,17,17,17,16,17,17,16,17,17,15,17,17,17,17,17,17,17,18,17,17,16,17,17,17,16,17,17,20,13,17,17,17,17,17,17,20,14,16,17,18,18,15,16,17,17,17,16,17,17,17,16,18,17,17,16,17,17,17,20,21,7,17,17,17,17],"number_of_frames":121,"aperture_center_x":616.5,"aperture_center_y":348,"fixation_cross":true,"fixation_cross_width":15,"fixation_cross_height":15,"fixation_cross_color":"#111","fixation_cross_thickness":1,"border":true,"border_thickness":2,"border_color":"transparent","canvas_width":1233,"canvas_height":696,"trial_type":"rdk","trial_index":63,"plugin_version":"2.0.0","time_elapsed":159971,"phase":"practice","target_direction":307,"distractor_direction":90},{"rt":2400,"stimulus":"\n        <div class=\"response-container\">\n          <div class=\"response-instruction\">\n            <p>rotate the bar by using the left and right arrow keys.</p>\n            <p>when you are determined, press the Enter key.</p>\n          </div>\n          <div class=\"response-circle\">\n            <div class=\"response-fixation\"></div>\n            <div id=\"bar\" class=\"rotating-bar\"></div>\n          </div>\n        </div>\n      ","response":"Enter","trial_type":"html-keyboard-response","trial_index":64,"plugin_version":"2.1.0","time_elapsed":162372,"random_initial_angle":269,"response_angle_css":294,"response_angle_rdk":156,"angular_error_target":-151,"angular_error_distractor":66,"target_direction":307,"target_group":"black","reward_points":0},{"rt":null,"stimulus":"\n          <p style=\"color: #FF3333;\">Your reward: 0 points</p>\n        ","response":null,"trial_type":"html-keyboard-response","trial_index":65,"plugin_version":"2.1.0","time_elapsed":164378},{"rt":84,"stimulus":"\n        <div class=\"instructions-container\">\n          <h2>End of Practice</h2>\n          <p>You have completed the practice trials.</p>\n          <p>Press <strong>Enter</strong> key to begin the main experiment.</p>\n        </div>\n      ","response":"Enter","trial_type":"html-keyboard-response","trial_index":66,"plugin_version":"2.1.0","time_elapsed":164464},{"rt":null,"stimulus":"<div class=\"fixation\" style=\"font-size: 60px;\">+</div>","response":null,"trial_type":"html-keyboard-response","trial_index":67,"plugin_version":"2.1.0","time_elapsed":165476},{"phase":"learning-awareness","target_group":"white","condition_label":"W_H_vs_B_L_rep19","target_direction":303,"distractor_direction":184,"session_rotation":262,"rt":-1,"response":"","correct":false,"choices":"ALL_KEYS","correct_choice":["a"],"trial_duration":2000,"flip_timestamps":[],"response_ends_trial":false,"number_of_apertures":200,"number_of_dots":[1,1,1,1,1,1,1,1,1,1,1,1,1,1,1,1,1,1,1,1,1,1,1,1,1,1,1,1,1,1,1,1,1,1,1,1,1,1,1,1,1,1,1,1,1,1,1,1,1,1,1,1,1,1,1,1,1,1,1,1,1,1,1,1,1,1,1,1,1,1,1,1,1,1,1,1,1,1,1,1,1,1,1,1,1,1,1,1,1,1,1,1,1,1,1,1,1,1,1,1,1,1,1,1,1,1,1,1,1,1,1,1,1,1,1,1,1,1,1,1,1,1,1,1,1,1,1,1,1,1,1,1,1,1,1,1,1,1,1,1,1,1,1,1,1,1,1,1,1,1,1,1,1,1,1,1,1,1,1,1,1,1,1,1,1,1,1,1,1,1,1,1,1,1,1,1,1,1,1,1,1,1,1,1,1,1,1,1,1,1,1,1,1,1,1,1,1,1,1,1],"number_of_sets":1,"coherent_direction":[303,303,303,184,303,184,184,184,303,303,303,303,303,184,184,303,303,184,303,184,184,184,303,184,184,303,303,184,184,303,303,303,184,303,303,303,184,303,184,184,303,303,303,303,303,303,184,184,303,184,184,303,303,303,303,303,184,303,184,184,303,303,303,184,303,303,184,303,303,184,184,303,303,303,303,303,184,184,303,184,184,184,184,303,184,184,184,184,184,303,303,303,303,184,184,303,303,303,184,303,184,303,184,184,303,303,303,303,303,303,303,184,303,184,184,303,303,184,184,184,184,184,303,184,303,184,184,303,184,184,184,303,184,184,303,184,184,184,303,184,303,184,184,184,184,303,184,184,303,184,303,303,303,184,303,303,184,184,184,303,184,184,303,184,303,184,303,303,184,303,184,303,184,303,184,184,184,184,184,303,303,184,184,303,184,303,303,303,184,184,184,184,303,184,184,184,303,184,303,303],"coherence":1,"opposite_coherence":0,"dot_radius":2,"dot_side_length":1,"dot_life":-1,"move_distance":1,"aperture_width":300,"aperture_height":300,"dot_color":["white","white","white","black","white","black","black","black","white","white","white","white","white","black","black","white","white","black","white","black","black","black","white","black","black","white","white","black","black","white","white","white","black","white","white","white","black","white","black","black","white","white","white","white","white","white","black","black","white","black","black","white","white","white","white","white","black","white","black","black","white","white","white","black","white","white","black","white","white","black","black","white","white","white","white","white","black","black","white","black","black","black","black","white","black","black","black","black","black","white","white","white","white","black","black","white","white","white","black","white","black","white","black","black","white","white","white","white","white","white","white","black","white","black","black","white","white","black","black","black","black","black","white","black","white","black","black","white","black","black","black","white","black","black","white","black","black","black","white","black","white","black","black","black","black","white","black","black","white","black","white","white","white","black","white","white","black","black","black","white","black","black","white","black","white","black","white","white","black","white","black","white","black","white","black","black","black","black","black","white","white","black","black","white","black","white","white","white","black","black","black","black","white","black","black","black","white","black","white","white"],"dot_shape":"circle","background_color":"#AAA","RDK_type":3,"aperture_type":2,"reinsert_type":2,"frame_rate":16.733333333333334,"frame_rate_array":[7,15,17,17,17,16,17,17,17,17,17,17,16,17,17,17,16,17,17,17,16,17,16,17,17,17,16,17,17,16,17,16,17,17,17,17,17,17,16,17,17,16,17,17,17,17,16,17,17,17,17,17,17,17,17,16,17,17,17,17,17,17,17,17,17,16,16,17,17,17,17,17,17,17,16,17,17,17,17,17,16,17,17,17,17,17,17,17,16,17,16,17,17,17,17,17,17,17,17,17,17,17,17,17,17,16,17,17,17,17,17,17,16,17,17,17,17,17,17,17],"number_of_frames":120,"aperture_center_x":616.5,"aperture_center_y":348,"fixation_cross":true,"fixation_cross_width":15,"fixation_cross_height":15,"fixation_cross_color":"#111","fixation_cross_thickness":1,"border":true,"border_thickness":2,"border_color":"transparent","canvas_width":1233,"canvas_height":696,"trial_type":"rdk","trial_index":68,"plugin_version":"2.0.0","time_elapsed":167482},{"rt":1106,"stimulus":"\n        <div class=\"response-container\">\n          <div class=\"response-instruction\">\n            <p>rotate the bar by using the left and right arrow keys.</p>\n            <p>when you are determined, press the Enter key.</p>\n          </div>\n          <div class=\"response-circle\">\n            <div class=\"response-fixation\"></div>\n            <div id=\"bar\" class=\"rotating-bar\"></div>\n          </div>\n        </div>\n      ","response":"Enter","trial_type":"html-keyboard-response","trial_index":69,"plugin_version":"2.1.0","time_elapsed":168589,"random_initial_angle":332,"response_angle_css":332,"response_angle_rdk":118,"angular_error_target":175,"angular_error_distractor":-66,"target_direction":303,"target_group":"white","reward_points":0},{"rt":null,"stimulus":"\n          <p style=\"color: #FF3333;\">Your reward: 0 points</p>\n        ","response":null,"trial_type":"html-keyboard-response","trial_index":70,"plugin_version":"2.1.0","time_elapsed":170600},{"rt":null,"stimulus":"<div class=\"fixation\" style=\"font-size: 60px;\">+</div>","response":null,"trial_type":"html-keyboard-response","trial_index":71,"plugin_version":"2.1.0","time_elapsed":171611},{"phase":"learning-awareness","target_group":"black","condition_label":"B_H_vs_W_L_rep19","target_direction":357,"distractor_direction":90,"session_rotation":262,"rt":1515,"response":"ArrowRight","correct":false,"choices":"ALL_KEYS","correct_choice":["a"],"trial_duration":2000,"flip_timestamps":[],"response_ends_trial":false,"number_of_apertures":200,"number_of_dots":[1,1,1,1,1,1,1,1,1,1,1,1,1,1,1,1,1,1,1,1,1,1,1,1,1,1,1,1,1,1,1,1,1,1,1,1,1,1,1,1,1,1,1,1,1,1,1,1,1,1,1,1,1,1,1,1,1,1,1,1,1,1,1,1,1,1,1,1,1,1,1,1,1,1,1,1,1,1,1,1,1,1,1,1,1,1,1,1,1,1,1,1,1,1,1,1,1,1,1,1,1,1,1,1,1,1,1,1,1,1,1,1,1,1,1,1,1,1,1,1,1,1,1,1,1,1,1,1,1,1,1,1,1,1,1,1,1,1,1,1,1,1,1,1,1,1,1,1,1,1,1,1,1,1,1,1,1,1,1,1,1,1,1,1,1,1,1,1,1,1,1,1,1,1,1,1,1,1,1,1,1,1,1,1,1,1,1,1,1,1,1,1,1,1,1,1,1,1,1,1],"number_of_sets":1,"coherent_direction":[90,90,90,90,90,90,357,90,90,90,357,357,90,357,90,90,90,357,357,357,357,90,357,357,90,90,357,90,357,357,357,90,357,90,90,90,90,357,357,357,90,357,357,357,90,357,357,357,357,357,357,90,357,90,90,357,357,357,90,357,90,357,357,357,90,90,90,357,90,357,357,357,90,90,357,90,90,90,90,357,90,357,90,90,357,357,357,90,357,90,357,90,90,90,90,357,90,357,357,90,90,90,90,90,357,90,357,90,90,357,90,357,90,90,357,90,357,357,357,357,357,90,90,90,357,357,90,357,357,90,357,357,357,90,357,357,357,90,90,90,357,357,90,90,90,357,90,90,357,90,90,357,357,90,90,357,357,357,90,357,357,357,357,90,90,357,357,90,357,90,90,90,357,90,90,90,357,357,90,90,357,357,357,90,90,90,357,357,90,357,90,357,357,357,90,90,90,90,357,357],"coherence":1,"opposite_coherence":0,"dot_radius":2,"dot_side_length":1,"dot_life":-1,"move_distance":1,"aperture_width":300,"aperture_height":300,"dot_color":["white","white","white","white","white","white","black","white","white","white","black","black","white","black","white","white","white","black","black","black","black","white","black","black","white","white","black","white","black","black","black","white","black","white","white","white","white","black","black","black","white","black","black","black","white","black","black","black","black","black","black","white","black","white","white","black","black","black","white","black","white","black","black","black","white","white","white","black","white","black","black","black","white","white","black","white","white","white","white","black","white","black","white","white","black","black","black","white","black","white","black","white","white","white","white","black","white","black","black","white","white","white","white","white","black","white","black","white","white","black","white","black","white","white","black","white","black","black","black","black","black","white","white","white","black","black","white","black","black","white","black","black","black","white","black","black","black","white","white","white","black","black","white","white","white","black","white","white","black","white","white","black","black","white","white","black","black","black","white","black","black","black","black","white","white","black","black","white","black","white","white","white","black","white","white","white","black","black","white","white","black","black","black","white","white","white","black","black","white","black","white","black","black","black","white","white","white","white","black","black"],"dot_shape":"circle","background_color":"#AAA","RDK_type":3,"aperture_type":2,"reinsert_type":2,"frame_rate":16.825,"frame_rate_array":[15,16,16,16,17,17,17,17,17,17,17,17,17,17,17,16,17,17,17,17,16,17,16,17,16,18,15,17,17,16,17,17,18,16,17,16,17,17,17,17,17,17,17,17,17,16,17,17,17,16,17,17,17,17,17,17,17,17,17,16,17,17,17,17,17,17,17,17,17,17,17,17,17,19,15,16,17,17,17,17,17,17,17,17,17,17,17,17,17,16,17,16,17,17,17,17,17,17,17,17,17,17,17,17,16,17,17,17,17,17,17,17,16,17,16,17,17,16,17,18],"number_of_frames":120,"aperture_center_x":616.5,"aperture_center_y":348,"fixation_cross":true,"fixation_cross_width":15,"fixation_cross_height":15,"fixation_cross_color":"#111","fixation_cross_thickness":1,"border":true,"border_thickness":2,"border_color":"transparent","canvas_width":1233,"canvas_height":696,"trial_type":"rdk","trial_index":72,"plugin_version":"2.0.0","time_elapsed":173617},{"rt":6931,"stimulus":"\n        <div class=\"response-container\">\n          <div class=\"response-instruction\">\n            <p>rotate the bar by using the left and right arrow keys.</p>\n            <p>when you are determined, press the Enter key.</p>\n          </div>\n          <div class=\"response-circle\">\n            <div class=\"response-fixation\"></div>\n            <div id=\"bar\" class=\"rotating-bar\"></div>\n          </div>\n        </div>\n      ","response":"Enter","trial_type":"html-keyboard-response","trial_index":73,"plugin_version":"2.1.0","time_elapsed":180550,"random_initial_angle":254,"response_angle_css":117,"response_angle_rdk":333,"angular_error_target":-24,"angular_error_distractor":-117,"target_direction":357,"target_group":"black","reward_points":5},{"rt":null,"stimulus":"\n          <p style=\"color: #00FF00;\">Your reward: 5 points</p>\n        ","response":null,"trial_type":"html-keyboard-response","trial_index":74,"plugin_version":"2.1.0","time_elapsed":182566},{"rt":null,"stimulus":"<div class=\"fixation\" style=\"font-size: 60px;\">+</div>","response":null,"trial_type":"html-keyboard-response","trial_index":75,"plugin_version":"2.1.0","time_elapsed":183580},{"phase":"learning-awareness","target_group":"black","condition_label":"B_H_vs_W_L_rep3","target_direction":3,"distractor_direction":104,"session_rotation":262,"rt":-1,"response":"","correct":false,"choices":"ALL_KEYS","correct_choice":["a"],"trial_duration":2000,"flip_timestamps":[],"response_ends_trial":false,"number_of_apertures":200,"number_of_dots":[1,1,1,1,1,1,1,1,1,1,1,1,1,1,1,1,1,1,1,1,1,1,1,1,1,1,1,1,1,1,1,1,1,1,1,1,1,1,1,1,1,1,1,1,1,1,1,1,1,1,1,1,1,1,1,1,1,1,1,1,1,1,1,1,1,1,1,1,1,1,1,1,1,1,1,1,1,1,1,1,1,1,1,1,1,1,1,1,1,1,1,1,1,1,1,1,1,1,1,1,1,1,1,1,1,1,1,1,1,1,1,1,1,1,1,1,1,1,1,1,1,1,1,1,1,1,1,1,1,1,1,1,1,1,1,1,1,1,1,1,1,1,1,1,1,1,1,1,1,1,1,1,1,1,1,1,1,1,1,1,1,1,1,1,1,1,1,1,1,1,1,1,1,1,1,1,1,1,1,1,1,1,1,1,1,1,1,1,1,1,1,1,1,1,1,1,1,1,1,1],"number_of_sets":1,"coherent_direction":[3,104,3,104,104,3,3,3,3,3,3,3,104,104,3,3,3,3,104,104,3,104,3,104,3,3,104,3,3,104,3,104,104,104,3,104,104,3,3,3,3,3,104,3,104,3,104,104,104,104,104,104,104,104,3,3,3,104,104,3,104,104,104,3,104,3,104,104,3,3,104,3,104,3,104,104,3,3,104,104,104,3,104,104,3,104,3,3,3,104,104,3,104,3,104,3,104,3,104,104,104,3,3,3,104,3,104,3,104,104,104,3,104,104,3,3,3,104,3,3,104,104,3,3,104,104,3,104,104,104,3,3,104,3,104,3,3,3,3,104,104,104,104,104,3,104,104,104,3,3,3,104,3,3,104,104,104,3,3,3,104,3,104,3,104,3,3,3,3,104,104,104,104,3,3,3,104,3,3,104,104,104,3,104,3,3,3,104,3,3,104,3,104,104,3,104,104,3,3,104],"coherence":1,"opposite_coherence":0,"dot_radius":2,"dot_side_length":1,"dot_life":-1,"move_distance":1,"aperture_width":300,"aperture_height":300,"dot_color":["black","white","black","white","white","black","black","black","black","black","black","black","white","white","black","black","black","black","white","white","black","white","black","white","black","black","white","black","black","white","black","white","white","white","black","white","white","black","black","black","black","black","white","black","white","black","white","white","white","white","white","white","white","white","black","black","black","white","white","black","white","white","white","black","white","black","white","white","black","black","white","black","white","black","white","white","black","black","white","white","white","black","white","white","black","white","black","black","black","white","white","black","white","black","white","black","white","black","white","white","white","black","black","black","white","black","white","black","white","white","white","black","white","white","black","black","black","white","black","black","white","white","black","black","white","white","black","white","white","white","black","black","white","black","white","black","black","black","black","white","white","white","white","white","black","white","white","white","black","black","black","white","black","black","white","white","white","black","black","black","white","black","white","black","white","black","black","black","black","white","white","white","white","black","black","black","white","black","black","white","white","white","black","white","black","black","black","white","black","black","white","black","white","white","black","white","white","black","black","white"],"dot_shape":"circle","background_color":"#AAA","RDK_type":3,"aperture_type":2,"reinsert_type":2,"frame_rate":16.833333333333332,"frame_rate_array":[11,22,12,13,17,17,36,3,19,10,16,17,17,17,17,16,17,17,17,16,17,17,16,17,17,16,17,17,17,18,15,17,17,17,17,17,17,17,17,17,16,17,17,17,17,17,17,17,17,17,16,17,17,17,17,17,17,17,17,17,17,17,17,17,17,17,17,17,17,17,17,17,17,17,17,17,17,17,17,17,17,17,17,17,17,17,17,17,17,17,17,17,17,17,17,17,17,17,17,18,16,17,17,17,17,16,17,17,17,17,17,17,17,17,17,17,17,16,17,17],"number_of_frames":120,"aperture_center_x":616.5,"aperture_center_y":348,"fixation_cross":true,"fixation_cross_width":15,"fixation_cross_height":15,"fixation_cross_color":"#111","fixation_cross_thickness":1,"border":true,"border_thickness":2,"border_color":"transparent","canvas_width":1233,"canvas_height":696,"trial_type":"rdk","trial_index":76,"plugin_version":"2.0.0","time_elapsed":185595},{"rt":3883,"stimulus":"\n        <div class=\"response-container\">\n          <div class=\"response-instruction\">\n            <p>rotate the bar by using the left and right arrow keys.</p>\n            <p>when you are determined, press the Enter key.</p>\n          </div>\n          <div class=\"response-circle\">\n            <div class=\"response-fixation\"></div>\n            <div id=\"bar\" class=\"rotating-bar\"></div>\n          </div>\n        </div>\n      ","response":"Enter","trial_type":"html-keyboard-response","trial_index":77,"plugin_version":"2.1.0","time_elapsed":189479,"random_initial_angle":260,"response_angle_css":466,"response_angle_rdk":344,"angular_error_target":-19,"angular_error_distractor":-120,"target_direction":3,"target_group":"black","reward_points":6},{"rt":null,"stimulus":"\n          <p style=\"color: #00FF00;\">Your reward: 6 points</p>\n        ","response":null,"trial_type":"html-keyboard-response","trial_index":78,"plugin_version":"2.1.0","time_elapsed":191490},{"rt":null,"stimulus":"<div class=\"fixation\" style=\"font-size: 60px;\">+</div>","response":null,"trial_type":"html-keyboard-response","trial_index":79,"plugin_version":"2.1.0","time_elapsed":192493},{"phase":"learning-awareness","target_group":"white","condition_label":"W_H_vs_B_L_rep13","target_direction":303,"distractor_direction":174,"session_rotation":262,"rt":-1,"response":"","correct":false,"choices":"ALL_KEYS","correct_choice":["a"],"trial_duration":2000,"flip_timestamps":[],"response_ends_trial":false,"number_of_apertures":200,"number_of_dots":[1,1,1,1,1,1,1,1,1,1,1,1,1,1,1,1,1,1,1,1,1,1,1,1,1,1,1,1,1,1,1,1,1,1,1,1,1,1,1,1,1,1,1,1,1,1,1,1,1,1,1,1,1,1,1,1,1,1,1,1,1,1,1,1,1,1,1,1,1,1,1,1,1,1,1,1,1,1,1,1,1,1,1,1,1,1,1,1,1,1,1,1,1,1,1,1,1,1,1,1,1,1,1,1,1,1,1,1,1,1,1,1,1,1,1,1,1,1,1,1,1,1,1,1,1,1,1,1,1,1,1,1,1,1,1,1,1,1,1,1,1,1,1,1,1,1,1,1,1,1,1,1,1,1,1,1,1,1,1,1,1,1,1,1,1,1,1,1,1,1,1,1,1,1,1,1,1,1,1,1,1,1,1,1,1,1,1,1,1,1,1,1,1,1,1,1,1,1,1,1],"number_of_sets":1,"coherent_direction":[303,174,303,174,174,174,303,174,303,303,174,303,303,174,174,303,303,174,303,303,174,174,174,174,174,303,303,174,303,174,303,174,303,303,303,303,174,303,174,303,174,174,174,174,303,174,303,174,303,303,174,174,174,303,174,303,303,303,174,303,303,303,174,174,303,303,303,174,174,174,303,174,174,174,174,174,174,303,303,303,174,303,174,303,174,174,174,303,174,174,174,174,174,174,303,174,174,303,303,174,303,174,303,174,174,303,303,303,174,303,303,303,303,303,174,174,303,174,174,303,174,174,303,174,303,303,303,303,303,174,303,174,303,303,174,303,174,174,303,303,303,174,174,174,303,174,303,303,303,174,174,174,303,174,174,174,303,303,174,303,303,303,174,303,303,303,174,174,174,303,303,303,303,303,174,174,174,303,174,174,303,174,303,303,303,303,174,303,174,303,174,174,174,174,303,303,174,174,303,303],"coherence":1,"opposite_coherence":0,"dot_radius":2,"dot_side_length":1,"dot_life":-1,"move_distance":1,"aperture_width":300,"aperture_height":300,"dot_color":["white","black","white","black","black","black","white","black","white","white","black","white","white","black","black","white","white","black","white","white","black","black","black","black","black","white","white","black","white","black","white","black","white","white","white","white","black","white","black","white","black","black","black","black","white","black","white","black","white","white","black","black","black","white","black","white","white","white","black","white","white","white","black","black","white","white","white","black","black","black","white","black","black","black","black","black","black","white","white","white","black","white","black","white","black","black","black","white","black","black","black","black","black","black","white","black","black","white","white","black","white","black","white","black","black","white","white","white","black","white","white","white","white","white","black","black","white","black","black","white","black","black","white","black","white","white","white","white","white","black","white","black","white","white","black","white","black","black","white","white","white","black","black","black","white","black","white","white","white","black","black","black","white","black","black","black","white","white","black","white","white","white","black","white","white","white","black","black","black","white","white","white","white","white","black","black","black","white","black","black","white","black","white","white","white","white","black","white","black","white","black","black","black","black","white","white","black","black","white","white"],"dot_shape":"circle","background_color":"#AAA","RDK_type":3,"aperture_type":2,"reinsert_type":2,"frame_rate":16.716666666666665,"frame_rate_array":[7,16,17,18,16,17,17,18,16,16,17,17,17,17,17,16,16,17,19,17,14,17,18,16,17,17,16,18,17,15,17,17,18,16,17,17,17,16,17,16,17,18,16,16,17,17,17,17,17,17,16,17,17,17,16,17,16,17,17,15,17,17,17,16,17,17,17,19,14,17,17,16,17,16,17,18,15,17,18,19,14,17,17,17,16,17,16,18,16,17,16,17,17,17,17,17,17,17,17,18,15,17,17,17,17,17,17,17,17,17,17,17,17,17,17,17,17,17,17,17],"number_of_frames":120,"aperture_center_x":616.5,"aperture_center_y":348,"fixation_cross":true,"fixation_cross_width":15,"fixation_cross_height":15,"fixation_cross_color":"#111","fixation_cross_thickness":1,"border":true,"border_thickness":2,"border_color":"transparent","canvas_width":1233,"canvas_height":696,"trial_type":"rdk","trial_index":80,"plugin_version":"2.0.0","time_elapsed":194499},{"rt":2749,"stimulus":"\n        <div class=\"response-container\">\n          <div class=\"response-instruction\">\n            <p>rotate the bar by using the left and right arrow keys.</p>\n            <p>when you are determined, press the Enter key.</p>\n          </div>\n          <div class=\"response-circle\">\n            <div class=\"response-fixation\"></div>\n            <div id=\"bar\" class=\"rotating-bar\"></div>\n          </div>\n        </div>\n      ","response":"Enter","trial_type":"html-keyboard-response","trial_index":81,"plugin_version":"2.1.0","time_elapsed":197251,"random_initial_angle":37,"response_angle_css":-90,"response_angle_rdk":180,"angular_error_target":-123,"angular_error_distractor":6,"target_direction":303,"target_group":"white","reward_points":0},{"rt":null,"stimulus":"\n          <p style=\"color: #FF3333;\">Your reward: 0 points</p>\n        ","response":null,"trial_type":"html-keyboard-response","trial_index":82,"plugin_version":"2.1.0","time_elapsed":199256},{"rt":null,"stimulus":"<div class=\"fixation\" style=\"font-size: 60px;\">+</div>","response":null,"trial_type":"html-keyboard-response","trial_index":83,"plugin_version":"2.1.0","time_elapsed":200264},{"phase":"learning-awareness","target_group":"white","condition_label":"W_H_vs_B_L_rep2","target_direction":303,"distractor_direction":178,"session_rotation":262,"rt":-1,"response":"","correct":false,"choices":"ALL_KEYS","correct_choice":["a"],"trial_duration":2000,"flip_timestamps":[],"response_ends_trial":false,"number_of_apertures":200,"number_of_dots":[1,1,1,1,1,1,1,1,1,1,1,1,1,1,1,1,1,1,1,1,1,1,1,1,1,1,1,1,1,1,1,1,1,1,1,1,1,1,1,1,1,1,1,1,1,1,1,1,1,1,1,1,1,1,1,1,1,1,1,1,1,1,1,1,1,1,1,1,1,1,1,1,1,1,1,1,1,1,1,1,1,1,1,1,1,1,1,1,1,1,1,1,1,1,1,1,1,1,1,1,1,1,1,1,1,1,1,1,1,1,1,1,1,1,1,1,1,1,1,1,1,1,1,1,1,1,1,1,1,1,1,1,1,1,1,1,1,1,1,1,1,1,1,1,1,1,1,1,1,1,1,1,1,1,1,1,1,1,1,1,1,1,1,1,1,1,1,1,1,1,1,1,1,1,1,1,1,1,1,1,1,1,1,1,1,1,1,1,1,1,1,1,1,1,1,1,1,1,1,1],"number_of_sets":1,"coherent_direction":[303,303,178,178,178,178,303,303,178,303,178,178,303,178,178,303,303,178,178,303,178,303,303,303,303,178,303,303,303,303,303,178,178,178,178,178,303,178,178,178,303,178,303,178,303,178,178,178,178,178,178,178,303,178,303,303,178,303,178,178,178,303,303,178,303,178,178,178,178,303,303,178,178,303,303,178,303,303,303,303,178,178,303,303,178,303,303,178,303,178,303,178,303,303,303,178,178,303,303,178,303,303,178,178,303,178,303,303,303,178,303,178,303,303,178,178,303,303,178,178,303,178,303,303,303,178,178,303,303,303,303,178,303,178,178,178,303,303,178,178,303,303,303,178,303,178,303,178,303,178,178,303,303,178,178,178,303,178,303,178,178,178,303,178,178,303,303,178,303,303,303,178,303,303,178,303,178,303,178,303,178,178,178,178,303,178,303,303,178,303,303,178,178,303,178,303,178,303,303,178],"coherence":1,"opposite_coherence":0,"dot_radius":2,"dot_side_length":1,"dot_life":-1,"move_distance":1,"aperture_width":300,"aperture_height":300,"dot_color":["white","white","black","black","black","black","white","white","black","white","black","black","white","black","black","white","white","black","black","white","black","white","white","white","white","black","white","white","white","white","white","black","black","black","black","black","white","black","black","black","white","black","white","black","white","black","black","black","black","black","black","black","white","black","white","white","black","white","black","black","black","white","white","black","white","black","black","black","black","white","white","black","black","white","white","black","white","white","white","white","black","black","white","white","black","white","white","black","white","black","white","black","white","white","white","black","black","white","white","black","white","white","black","black","white","black","white","white","white","black","white","black","white","white","black","black","white","white","black","black","white","black","white","white","white","black","black","white","white","white","white","black","white","black","black","black","white","white","black","black","white","white","white","black","white","black","white","black","white","black","black","white","white","black","black","black","white","black","white","black","black","black","white","black","black","white","white","black","white","white","white","black","white","white","black","white","black","white","black","white","black","black","black","black","white","black","white","white","black","white","white","black","black","white","black","white","black","white","white","black"],"dot_shape":"circle","background_color":"#AAA","RDK_type":3,"aperture_type":2,"reinsert_type":2,"frame_rate":16.816666666666666,"frame_rate_array":[11,16,16,17,17,17,17,17,17,17,17,16,17,17,17,17,17,17,17,17,17,17,17,17,17,17,17,17,16,17,17,17,17,17,17,17,17,16,17,17,17,16,17,17,17,17,17,16,17,17,16,17,17,16,17,17,17,17,17,17,17,17,17,17,17,17,17,17,17,17,17,17,16,17,17,17,17,17,17,17,17,17,17,17,17,17,17,17,17,17,17,17,16,17,17,17,17,17,16,17,17,17,17,17,17,17,17,16,18,16,17,17,16,17,17,17,17,17,16,16],"number_of_frames":120,"aperture_center_x":616.5,"aperture_center_y":348,"fixation_cross":true,"fixation_cross_width":15,"fixation_cross_height":15,"fixation_cross_color":"#111","fixation_cross_thickness":1,"border":true,"border_thickness":2,"border_color":"transparent","canvas_width":1233,"canvas_height":696,"trial_type":"rdk","trial_index":84,"plugin_version":"2.0.0","time_elapsed":202273},{"rt":672,"stimulus":"\n        <div class=\"response-container\">\n          <div class=\"response-instruction\">\n            <p>rotate the bar by using the left and right arrow keys.</p>\n            <p>when you are determined, press the Enter key.</p>\n          </div>\n          <div class=\"response-circle\">\n            <div class=\"response-fixation\"></div>\n            <div id=\"bar\" class=\"rotating-bar\"></div>\n          </div>\n        </div>\n      ","response":"Enter","trial_type":"html-keyboard-response","trial_index":85,"plugin_version":"2.1.0","time_elapsed":202947,"random_initial_angle":193,"response_angle_css":193,"response_angle_rdk":257,"angular_error_target":-46,"angular_error_distractor":79,"target_direction":303,"target_group":"white","reward_points":0},{"rt":null,"stimulus":"\n          <p style=\"color: #FF3333;\">Your reward: 0 points</p>\n        ","response":null,"trial_type":"html-keyboard-response","trial_index":86,"plugin_version":"2.1.0","time_elapsed":204955},{"rt":null,"stimulus":"<div class=\"fixation\" style=\"font-size: 60px;\">+</div>","response":null,"trial_type":"html-keyboard-response","trial_index":87,"plugin_version":"2.1.0","time_elapsed":205961},{"phase":"learning-awareness","target_group":"white","condition_label":"W_H_vs_B_L_rep8","target_direction":298,"distractor_direction":191,"session_rotation":262,"rt":-1,"response":"","correct":false,"choices":"ALL_KEYS","correct_choice":["a"],"trial_duration":2000,"flip_timestamps":[],"response_ends_trial":false,"number_of_apertures":200,"number_of_dots":[1,1,1,1,1,1,1,1,1,1,1,1,1,1,1,1,1,1,1,1,1,1,1,1,1,1,1,1,1,1,1,1,1,1,1,1,1,1,1,1,1,1,1,1,1,1,1,1,1,1,1,1,1,1,1,1,1,1,1,1,1,1,1,1,1,1,1,1,1,1,1,1,1,1,1,1,1,1,1,1,1,1,1,1,1,1,1,1,1,1,1,1,1,1,1,1,1,1,1,1,1,1,1,1,1,1,1,1,1,1,1,1,1,1,1,1,1,1,1,1,1,1,1,1,1,1,1,1,1,1,1,1,1,1,1,1,1,1,1,1,1,1,1,1,1,1,1,1,1,1,1,1,1,1,1,1,1,1,1,1,1,1,1,1,1,1,1,1,1,1,1,1,1,1,1,1,1,1,1,1,1,1,1,1,1,1,1,1,1,1,1,1,1,1,1,1,1,1,1,1],"number_of_sets":1,"coherent_direction":[191,298,298,191,191,191,298,298,191,191,191,298,191,191,191,298,298,298,298,191,191,298,191,191,191,191,298,298,191,298,298,191,298,191,298,191,298,191,298,298,191,191,191,298,298,298,191,298,191,298,298,298,298,191,191,298,298,191,298,191,298,298,298,191,191,298,298,298,191,298,191,191,298,191,298,191,298,298,191,191,298,191,191,191,191,191,191,191,191,298,191,191,298,191,191,298,298,298,298,191,298,298,298,191,191,298,191,298,191,298,298,298,191,298,191,191,298,298,298,191,191,298,298,298,191,298,191,298,191,298,298,298,191,191,191,298,191,298,191,191,298,298,298,191,298,191,191,191,191,298,298,298,191,298,298,191,298,298,298,298,191,298,191,191,191,191,298,191,298,298,191,191,298,191,191,191,191,191,191,298,191,298,298,298,191,298,191,191,191,298,191,298,191,191,298,298,298,191,298,298],"coherence":1,"opposite_coherence":0,"dot_radius":2,"dot_side_length":1,"dot_life":-1,"move_distance":1,"aperture_width":300,"aperture_height":300,"dot_color":["black","white","white","black","black","black","white","white","black","black","black","white","black","black","black","white","white","white","white","black","black","white","black","black","black","black","white","white","black","white","white","black","white","black","white","black","white","black","white","white","black","black","black","white","white","white","black","white","black","white","white","white","white","black","black","white","white","black","white","black","white","white","white","black","black","white","white","white","black","white","black","black","white","black","white","black","white","white","black","black","white","black","black","black","black","black","black","black","black","white","black","black","white","black","black","white","white","white","white","black","white","white","white","black","black","white","black","white","black","white","white","white","black","white","black","black","white","white","white","black","black","white","white","white","black","white","black","white","black","white","white","white","black","black","black","white","black","white","black","black","white","white","white","black","white","black","black","black","black","white","white","white","black","white","white","black","white","white","white","white","black","white","black","black","black","black","white","black","white","white","black","black","white","black","black","black","black","black","black","white","black","white","white","white","black","white","black","black","black","white","black","white","black","black","white","white","white","black","white","white"],"dot_shape":"circle","background_color":"#AAA","RDK_type":3,"aperture_type":2,"reinsert_type":2,"frame_rate":16.71900826446281,"frame_rate_array":[9,9,20,17,12,17,19,14,17,16,18,16,19,14,17,17,17,17,28,11,11,17,17,16,17,17,17,17,17,17,17,17,17,17,17,17,17,17,17,17,17,17,17,17,17,17,17,16,17,17,16,18,23,11,16,17,17,17,17,17,17,16,17,17,17,17,17,17,17,17,17,17,17,17,17,17,16,17,17,16,17,17,17,17,17,17,17,17,17,17,17,17,16,17,17,18,15,24,11,15,17,18,16,17,17,18,15,17,17,19,19,12,25,9,17,19,14,17,17,17,17],"number_of_frames":121,"aperture_center_x":616.5,"aperture_center_y":348,"fixation_cross":true,"fixation_cross_width":15,"fixation_cross_height":15,"fixation_cross_color":"#111","fixation_cross_thickness":1,"border":true,"border_thickness":2,"border_color":"transparent","canvas_width":1233,"canvas_height":696,"trial_type":"rdk","trial_index":88,"plugin_version":"2.0.0","time_elapsed":207970},{"rt":3396,"stimulus":"\n        <div class=\"response-container\">\n          <div class=\"response-instruction\">\n            <p>rotate the bar by using the left and right arrow keys.</p>\n            <p>when you are determined, press the Enter key.</p>\n          </div>\n          <div class=\"response-circle\">\n            <div class=\"response-fixation\"></div>\n            <div id=\"bar\" class=\"rotating-bar\"></div>\n          </div>\n        </div>\n      ","response":"Enter","trial_type":"html-keyboard-response","trial_index":89,"plugin_version":"2.1.0","time_elapsed":211368,"random_initial_angle":92,"response_angle_css":-107,"response_angle_rdk":197,"angular_error_target":-101,"angular_error_distractor":6,"target_direction":298,"target_group":"white","reward_points":0},{"rt":null,"stimulus":"\n          <p style=\"color: #FF3333;\">Your reward: 0 points</p>\n        ","response":null,"trial_type":"html-keyboard-response","trial_index":90,"plugin_version":"2.1.0","time_elapsed":213370},{"rt":null,"stimulus":"<div class=\"fixation\" style=\"font-size: 60px;\">+</div>","response":null,"trial_type":"html-keyboard-response","trial_index":91,"plugin_version":"2.1.0","time_elapsed":214386},{"phase":"learning-awareness","target_group":"black","condition_label":"B_H_vs_W_L_rep6","target_direction":0,"distractor_direction":92,"session_rotation":262,"rt":-1,"response":"","correct":false,"choices":"ALL_KEYS","correct_choice":["a"],"trial_duration":2000,"flip_timestamps":[],"response_ends_trial":false,"number_of_apertures":200,"number_of_dots":[1,1,1,1,1,1,1,1,1,1,1,1,1,1,1,1,1,1,1,1,1,1,1,1,1,1,1,1,1,1,1,1,1,1,1,1,1,1,1,1,1,1,1,1,1,1,1,1,1,1,1,1,1,1,1,1,1,1,1,1,1,1,1,1,1,1,1,1,1,1,1,1,1,1,1,1,1,1,1,1,1,1,1,1,1,1,1,1,1,1,1,1,1,1,1,1,1,1,1,1,1,1,1,1,1,1,1,1,1,1,1,1,1,1,1,1,1,1,1,1,1,1,1,1,1,1,1,1,1,1,1,1,1,1,1,1,1,1,1,1,1,1,1,1,1,1,1,1,1,1,1,1,1,1,1,1,1,1,1,1,1,1,1,1,1,1,1,1,1,1,1,1,1,1,1,1,1,1,1,1,1,1,1,1,1,1,1,1,1,1,1,1,1,1,1,1,1,1,1,1],"number_of_sets":1,"coherent_direction":[92,92,0,0,0,0,0,0,92,0,0,92,92,0,0,92,92,0,0,92,0,92,92,0,92,0,0,92,92,0,0,0,92,0,0,0,92,0,0,0,0,92,92,92,0,92,0,92,0,92,0,92,92,92,0,0,0,0,92,0,92,0,92,0,0,0,92,0,92,0,92,92,92,92,0,92,0,92,92,0,92,92,0,0,0,92,92,0,92,0,92,0,0,92,0,0,0,0,0,92,92,92,92,92,92,92,0,92,92,0,0,0,92,92,0,0,92,92,92,0,92,0,0,92,0,0,92,0,92,92,92,92,92,92,92,92,92,92,0,92,0,0,92,92,0,0,92,92,92,92,0,0,92,0,0,0,0,0,0,92,92,92,0,92,92,92,0,92,0,92,0,92,92,0,92,0,92,92,92,0,0,0,0,92,0,0,92,0,92,0,0,92,0,0,0,92,92,0,92,92],"coherence":1,"opposite_coherence":0,"dot_radius":2,"dot_side_length":1,"dot_life":-1,"move_distance":1,"aperture_width":300,"aperture_height":300,"dot_color":["white","white","black","black","black","black","black","black","white","black","black","white","white","black","black","white","white","black","black","white","black","white","white","black","white","black","black","white","white","black","black","black","white","black","black","black","white","black","black","black","black","white","white","white","black","white","black","white","black","white","black","white","white","white","black","black","black","black","white","black","white","black","white","black","black","black","white","black","white","black","white","white","white","white","black","white","black","white","white","black","white","white","black","black","black","white","white","black","white","black","white","black","black","white","black","black","black","black","black","white","white","white","white","white","white","white","black","white","white","black","black","black","white","white","black","black","white","white","white","black","white","black","black","white","black","black","white","black","white","white","white","white","white","white","white","white","white","white","black","white","black","black","white","white","black","black","white","white","white","white","black","black","white","black","black","black","black","black","black","white","white","white","black","white","white","white","black","white","black","white","black","white","white","black","white","black","white","white","white","black","black","black","black","white","black","black","white","black","white","black","black","white","black","black","black","white","white","black","white","white"],"dot_shape":"circle","background_color":"#AAA","RDK_type":3,"aperture_type":2,"reinsert_type":2,"frame_rate":16.68595041322314,"frame_rate_array":[17,9,13,7,17,17,16,17,17,17,17,17,17,17,17,17,17,17,16,17,16,17,17,17,17,17,17,17,17,17,17,17,17,17,16,16,17,17,17,17,17,18,16,17,17,16,17,17,17,17,17,19,15,17,17,18,16,17,17,17,17,17,17,18,16,17,16,17,17,17,17,16,17,17,17,17,17,17,18,16,17,17,16,17,17,17,16,17,17,17,16,17,16,18,15,20,13,17,17,17,17,17,16,17,17,17,17,17,17,17,18,16,17,17,18,16,17,22,11,17,17],"number_of_frames":121,"aperture_center_x":616.5,"aperture_center_y":348,"fixation_cross":true,"fixation_cross_width":15,"fixation_cross_height":15,"fixation_cross_color":"#111","fixation_cross_thickness":1,"border":true,"border_thickness":2,"border_color":"transparent","canvas_width":1233,"canvas_height":696,"trial_type":"rdk","trial_index":92,"plugin_version":"2.0.0","time_elapsed":216394},{"rt":871,"stimulus":"\n        <div class=\"response-container\">\n          <div class=\"response-instruction\">\n            <p>rotate the bar by using the left and right arrow keys.</p>\n            <p>when you are determined, press the Enter key.</p>\n          </div>\n          <div class=\"response-circle\">\n            <div class=\"response-fixation\"></div>\n            <div id=\"bar\" class=\"rotating-bar\"></div>\n          </div>\n        </div>\n      ","response":"Enter","trial_type":"html-keyboard-response","trial_index":93,"plugin_version":"2.1.0","time_elapsed":217267,"random_initial_angle":92,"response_angle_css":92,"response_angle_rdk":358,"angular_error_target":-2,"angular_error_distractor":-94,"target_direction":0,"target_group":"black","reward_points":9},{"rt":null,"stimulus":"\n          <p style=\"color: #00FF00;\">Your reward: 9 points</p>\n        ","response":null,"trial_type":"html-keyboard-response","trial_index":94,"plugin_version":"2.1.0","time_elapsed":219279},{"rt":null,"stimulus":"<div class=\"fixation\" style=\"font-size: 60px;\">+</div>","response":null,"trial_type":"html-keyboard-response","trial_index":95,"plugin_version":"2.1.0","time_elapsed":220294},{"phase":"learning-awareness","target_group":"white","condition_label":"W_H_vs_B_L_rep12","target_direction":289,"distractor_direction":194,"session_rotation":262,"rt":-1,"response":"","correct":false,"choices":"ALL_KEYS","correct_choice":["a"],"trial_duration":2000,"flip_timestamps":[],"response_ends_trial":false,"number_of_apertures":200,"number_of_dots":[1,1,1,1,1,1,1,1,1,1,1,1,1,1,1,1,1,1,1,1,1,1,1,1,1,1,1,1,1,1,1,1,1,1,1,1,1,1,1,1,1,1,1,1,1,1,1,1,1,1,1,1,1,1,1,1,1,1,1,1,1,1,1,1,1,1,1,1,1,1,1,1,1,1,1,1,1,1,1,1,1,1,1,1,1,1,1,1,1,1,1,1,1,1,1,1,1,1,1,1,1,1,1,1,1,1,1,1,1,1,1,1,1,1,1,1,1,1,1,1,1,1,1,1,1,1,1,1,1,1,1,1,1,1,1,1,1,1,1,1,1,1,1,1,1,1,1,1,1,1,1,1,1,1,1,1,1,1,1,1,1,1,1,1,1,1,1,1,1,1,1,1,1,1,1,1,1,1,1,1,1,1,1,1,1,1,1,1,1,1,1,1,1,1,1,1,1,1,1,1],"number_of_sets":1,"coherent_direction":[194,289,289,289,289,194,289,289,194,289,289,289,289,194,194,194,289,289,289,289,289,194,194,289,289,194,289,194,289,194,194,289,289,194,289,194,289,194,194,289,194,289,289,289,289,289,194,194,194,194,194,289,194,194,194,194,289,289,194,194,194,289,289,289,289,289,194,289,289,289,289,194,289,194,289,194,194,289,289,289,194,289,194,289,289,289,194,289,194,194,194,194,194,289,194,194,289,194,289,289,194,289,289,289,194,194,194,194,289,289,289,289,289,194,289,289,194,289,289,289,194,289,194,194,194,289,289,289,194,194,194,289,194,194,194,194,194,289,289,194,194,289,289,194,289,289,194,194,289,194,194,289,194,194,289,194,289,289,194,194,194,289,194,194,289,194,194,194,194,289,289,194,289,194,194,289,194,194,194,194,194,194,194,194,289,289,289,289,194,194,289,289,194,289,194,194,289,289,289,194],"coherence":1,"opposite_coherence":0,"dot_radius":2,"dot_side_length":1,"dot_life":-1,"move_distance":1,"aperture_width":300,"aperture_height":300,"dot_color":["black","white","white","white","white","black","white","white","black","white","white","white","white","black","black","black","white","white","white","white","white","black","black","white","white","black","white","black","white","black","black","white","white","black","white","black","white","black","black","white","black","white","white","white","white","white","black","black","black","black","black","white","black","black","black","black","white","white","black","black","black","white","white","white","white","white","black","white","white","white","white","black","white","black","white","black","black","white","white","white","black","white","black","white","white","white","black","white","black","black","black","black","black","white","black","black","white","black","white","white","black","white","white","white","black","black","black","black","white","white","white","white","white","black","white","white","black","white","white","white","black","white","black","black","black","white","white","white","black","black","black","white","black","black","black","black","black","white","white","black","black","white","white","black","white","white","black","black","white","black","black","white","black","black","white","black","white","white","black","black","black","white","black","black","white","black","black","black","black","white","white","black","white","black","black","white","black","black","black","black","black","black","black","black","white","white","white","white","black","black","white","white","black","white","black","black","white","white","white","black"],"dot_shape":"circle","background_color":"#AAA","RDK_type":3,"aperture_type":2,"reinsert_type":2,"frame_rate":16.702479338842974,"frame_rate_array":[10,13,13,15,17,17,19,14,18,16,17,17,17,17,17,17,16,17,17,17,17,17,17,17,17,17,18,15,17,17,17,16,17,17,17,17,17,17,17,17,17,17,17,17,17,17,17,16,21,13,17,16,17,16,17,20,14,17,16,17,17,17,17,16,17,17,17,17,17,17,17,17,16,17,17,17,17,17,17,17,17,17,17,19,16,15,17,17,15,16,16,17,17,18,16,17,17,17,17,17,16,17,17,16,17,16,17,17,17,17,17,17,17,17,20,13,22,12,17,17,17],"number_of_frames":121,"aperture_center_x":616.5,"aperture_center_y":348,"fixation_cross":true,"fixation_cross_width":15,"fixation_cross_height":15,"fixation_cross_color":"#111","fixation_cross_thickness":1,"border":true,"border_thickness":2,"border_color":"transparent","canvas_width":1233,"canvas_height":696,"trial_type":"rdk","trial_index":96,"plugin_version":"2.0.0","time_elapsed":222303},{"rt":2041,"stimulus":"\n        <div class=\"response-container\">\n          <div class=\"response-instruction\">\n            <p>rotate the bar by using the left and right arrow keys.</p>\n            <p>when you are determined, press the Enter key.</p>\n          </div>\n          <div class=\"response-circle\">\n            <div class=\"response-fixation\"></div>\n            <div id=\"bar\" class=\"rotating-bar\"></div>\n          </div>\n        </div>\n      ","response":"Enter","trial_type":"html-keyboard-response","trial_index":97,"plugin_version":"2.1.0","time_elapsed":224345,"random_initial_angle":311,"response_angle_css":369,"response_angle_rdk":81,"angular_error_target":152,"angular_error_distractor":-113,"target_direction":289,"target_group":"white","reward_points":0},{"rt":null,"stimulus":"\n          <p style=\"color: #FF3333;\">Your reward: 0 points</p>\n        ","response":null,"trial_type":"html-keyboard-response","trial_index":98,"plugin_version":"2.1.0","time_elapsed":226359},{"rt":null,"stimulus":"<div class=\"fixation\" style=\"font-size: 60px;\">+</div>","response":null,"trial_type":"html-keyboard-response","trial_index":99,"plugin_version":"2.1.0","time_elapsed":227367},{"phase":"learning-awareness","target_group":"black","condition_label":"B_H_vs_W_L_rep22","target_direction":28,"distractor_direction":120,"session_rotation":262,"rt":-1,"response":"","correct":false,"choices":"ALL_KEYS","correct_choice":["a"],"trial_duration":2000,"flip_timestamps":[],"response_ends_trial":false,"number_of_apertures":200,"number_of_dots":[1,1,1,1,1,1,1,1,1,1,1,1,1,1,1,1,1,1,1,1,1,1,1,1,1,1,1,1,1,1,1,1,1,1,1,1,1,1,1,1,1,1,1,1,1,1,1,1,1,1,1,1,1,1,1,1,1,1,1,1,1,1,1,1,1,1,1,1,1,1,1,1,1,1,1,1,1,1,1,1,1,1,1,1,1,1,1,1,1,1,1,1,1,1,1,1,1,1,1,1,1,1,1,1,1,1,1,1,1,1,1,1,1,1,1,1,1,1,1,1,1,1,1,1,1,1,1,1,1,1,1,1,1,1,1,1,1,1,1,1,1,1,1,1,1,1,1,1,1,1,1,1,1,1,1,1,1,1,1,1,1,1,1,1,1,1,1,1,1,1,1,1,1,1,1,1,1,1,1,1,1,1,1,1,1,1,1,1,1,1,1,1,1,1,1,1,1,1,1,1],"number_of_sets":1,"coherent_direction":[120,28,120,28,28,28,120,28,28,120,120,120,28,28,120,28,120,120,28,120,120,120,120,28,120,28,120,120,120,120,120,120,120,120,120,120,120,28,120,28,28,28,28,28,28,28,120,28,120,120,28,120,120,120,120,120,28,120,120,28,28,120,28,120,120,120,120,120,28,28,120,28,120,28,28,28,120,28,28,28,28,120,120,28,120,28,28,120,28,28,28,120,28,28,28,120,28,120,120,120,120,28,28,28,120,120,120,120,28,28,28,28,28,28,28,28,28,28,120,28,28,120,120,28,120,120,120,120,120,120,120,120,28,28,28,28,28,120,28,120,120,120,28,28,28,28,28,28,28,28,120,120,120,28,120,120,28,28,120,28,28,28,120,28,120,28,120,120,28,28,28,28,120,28,28,120,120,28,120,28,28,120,28,120,120,120,120,28,120,120,120,28,28,120,120,28,28,120,120,28],"coherence":1,"opposite_coherence":0,"dot_radius":2,"dot_side_length":1,"dot_life":-1,"move_distance":1,"aperture_width":300,"aperture_height":300,"dot_color":["white","black","white","black","black","black","white","black","black","white","white","white","black","black","white","black","white","white","black","white","white","white","white","black","white","black","white","white","white","white","white","white","white","white","white","white","white","black","white","black","black","black","black","black","black","black","white","black","white","white","black","white","white","white","white","white","black","white","white","black","black","white","black","white","white","white","white","white","black","black","white","black","white","black","black","black","white","black","black","black","black","white","white","black","white","black","black","white","black","black","black","white","black","black","black","white","black","white","white","white","white","black","black","black","white","white","white","white","black","black","black","black","black","black","black","black","black","black","white","black","black","white","white","black","white","white","white","white","white","white","white","white","black","black","black","black","black","white","black","white","white","white","black","black","black","black","black","black","black","black","white","white","white","black","white","white","black","black","white","black","black","black","white","black","white","black","white","white","black","black","black","black","white","black","black","white","white","black","white","black","black","white","black","white","white","white","white","black","white","white","white","black","black","white","white","black","black","white","white","black"],"dot_shape":"circle","background_color":"#AAA","RDK_type":3,"aperture_type":2,"reinsert_type":2,"frame_rate":16.783333333333335,"frame_rate_array":[8,17,16,17,17,17,17,17,17,17,17,17,17,16,17,17,17,17,17,17,16,17,16,17,16,17,38,5,14,11,16,17,18,16,19,22,10,16,20,14,20,13,17,17,17,17,17,22,12,17,18,15,17,17,17,17,17,17,18,15,17,16,16,17,17,16,17,17,17,17,17,17,19,14,17,17,17,17,17,17,17,17,17,21,12,17,17,17,17,17,17,17,17,16,17,25,9,17,17,17,17,17,17,17,17,17,17,17,17,17,16,17,17,17,17,17,17,17,17,17],"number_of_frames":120,"aperture_center_x":616.5,"aperture_center_y":348,"fixation_cross":true,"fixation_cross_width":15,"fixation_cross_height":15,"fixation_cross_color":"#111","fixation_cross_thickness":1,"border":true,"border_thickness":2,"border_color":"transparent","canvas_width":1233,"canvas_height":696,"trial_type":"rdk","trial_index":100,"plugin_version":"2.0.0","time_elapsed":229372},{"rt":1852,"stimulus":"\n        <div class=\"response-container\">\n          <div class=\"response-instruction\">\n            <p>rotate the bar by using the left and right arrow keys.</p>\n            <p>when you are determined, press the Enter key.</p>\n          </div>\n          <div class=\"response-circle\">\n            <div class=\"response-fixation\"></div>\n            <div id=\"bar\" class=\"rotating-bar\"></div>\n          </div>\n        </div>\n      ","response":"Enter","trial_type":"html-keyboard-response","trial_index":101,"plugin_version":"2.1.0","time_elapsed":231225,"random_initial_angle":113,"response_angle_css":109,"response_angle_rdk":341,"angular_error_target":-47,"angular_error_distractor":-139,"target_direction":28,"target_group":"black","reward_points":0},{"rt":null,"stimulus":"\n          <p style=\"color: #FF3333;\">Your reward: 0 points</p>\n        ","response":null,"trial_type":"html-keyboard-response","trial_index":102,"plugin_version":"2.1.0","time_elapsed":233230},{"rt":null,"stimulus":"<div class=\"fixation\" style=\"font-size: 60px;\">+</div>","response":null,"trial_type":"html-keyboard-response","trial_index":103,"plugin_version":"2.1.0","time_elapsed":234241},{"phase":"learning-awareness","target_group":"black","condition_label":"B_H_vs_W_L_rep16","target_direction":356,"distractor_direction":122,"session_rotation":262,"rt":1079,"response":"ArrowRight","correct":false,"choices":"ALL_KEYS","correct_choice":["a"],"trial_duration":2000,"flip_timestamps":[],"response_ends_trial":false,"number_of_apertures":200,"number_of_dots":[1,1,1,1,1,1,1,1,1,1,1,1,1,1,1,1,1,1,1,1,1,1,1,1,1,1,1,1,1,1,1,1,1,1,1,1,1,1,1,1,1,1,1,1,1,1,1,1,1,1,1,1,1,1,1,1,1,1,1,1,1,1,1,1,1,1,1,1,1,1,1,1,1,1,1,1,1,1,1,1,1,1,1,1,1,1,1,1,1,1,1,1,1,1,1,1,1,1,1,1,1,1,1,1,1,1,1,1,1,1,1,1,1,1,1,1,1,1,1,1,1,1,1,1,1,1,1,1,1,1,1,1,1,1,1,1,1,1,1,1,1,1,1,1,1,1,1,1,1,1,1,1,1,1,1,1,1,1,1,1,1,1,1,1,1,1,1,1,1,1,1,1,1,1,1,1,1,1,1,1,1,1,1,1,1,1,1,1,1,1,1,1,1,1,1,1,1,1,1,1],"number_of_sets":1,"coherent_direction":[356,356,122,356,356,122,122,356,356,356,122,122,356,122,356,356,356,122,122,356,356,356,356,122,356,122,122,356,356,122,122,122,356,356,122,356,122,356,356,356,122,356,122,122,122,356,122,356,356,122,356,122,122,356,356,122,122,122,356,122,122,122,122,356,356,356,122,356,356,122,122,356,356,122,122,122,122,122,122,122,122,356,122,122,356,356,122,356,122,356,122,122,356,356,356,122,122,356,356,356,122,122,356,122,356,356,122,122,356,356,122,122,122,122,356,356,122,122,356,122,122,356,356,356,122,122,122,122,122,122,356,122,356,122,356,122,122,356,356,356,122,356,356,356,356,356,356,356,356,356,356,122,122,356,122,356,122,356,356,356,356,122,122,356,122,356,356,356,356,356,122,356,122,122,122,356,122,122,122,356,356,122,122,356,356,356,356,122,122,356,122,122,122,356,122,356,122,122,122,122],"coherence":1,"opposite_coherence":0,"dot_radius":2,"dot_side_length":1,"dot_life":-1,"move_distance":1,"aperture_width":300,"aperture_height":300,"dot_color":["black","black","white","black","black","white","white","black","black","black","white","white","black","white","black","black","black","white","white","black","black","black","black","white","black","white","white","black","black","white","white","white","black","black","white","black","white","black","black","black","white","black","white","white","white","black","white","black","black","white","black","white","white","black","black","white","white","white","black","white","white","white","white","black","black","black","white","black","black","white","white","black","black","white","white","white","white","white","white","white","white","black","white","white","black","black","white","black","white","black","white","white","black","black","black","white","white","black","black","black","white","white","black","white","black","black","white","white","black","black","white","white","white","white","black","black","white","white","black","white","white","black","black","black","white","white","white","white","white","white","black","white","black","white","black","white","white","black","black","black","white","black","black","black","black","black","black","black","black","black","black","white","white","black","white","black","white","black","black","black","black","white","white","black","white","black","black","black","black","black","white","black","white","white","white","black","white","white","white","black","black","white","white","black","black","black","black","white","white","black","white","white","white","black","white","black","white","white","white","white"],"dot_shape":"circle","background_color":"#AAA","RDK_type":3,"aperture_type":2,"reinsert_type":2,"frame_rate":16.760330578512395,"frame_rate_array":[10,15,17,17,18,15,17,17,17,17,16,17,17,17,17,17,17,17,17,17,17,17,17,17,17,17,17,17,17,17,17,17,17,17,17,17,17,16,17,16,17,17,17,17,16,17,17,17,17,17,17,16,17,16,17,16,17,17,17,17,17,17,17,17,17,16,17,17,16,17,17,17,17,16,17,17,17,16,17,17,17,17,18,15,18,16,16,17,17,17,17,18,17,15,17,17,17,18,15,19,16,16,18,17,16,17,18,15,17,16,17,17,17,17,16,18,15,18,16,18,16],"number_of_frames":121,"aperture_center_x":616.5,"aperture_center_y":348,"fixation_cross":true,"fixation_cross_width":15,"fixation_cross_height":15,"fixation_cross_color":"#111","fixation_cross_thickness":1,"border":true,"border_thickness":2,"border_color":"transparent","canvas_width":1233,"canvas_height":696,"trial_type":"rdk","trial_index":104,"plugin_version":"2.0.0","time_elapsed":236256},{"rt":2986,"stimulus":"\n        <div class=\"response-container\">\n          <div class=\"response-instruction\">\n            <p>rotate the bar by using the left and right arrow keys.</p>\n            <p>when you are determined, press the Enter key.</p>\n          </div>\n          <div class=\"response-circle\">\n            <div class=\"response-fixation\"></div>\n            <div id=\"bar\" class=\"rotating-bar\"></div>\n          </div>\n        </div>\n      ","response":"Enter","trial_type":"html-keyboard-response","trial_index":105,"plugin_version":"2.1.0","time_elapsed":239243,"random_initial_angle":320,"response_angle_css":464,"response_angle_rdk":346,"angular_error_target":-10,"angular_error_distractor":-136,"target_direction":356,"target_group":"black","reward_points":8},{"rt":null,"stimulus":"\n          <p style=\"color: #00FF00;\">Your reward: 8 points</p>\n        ","response":null,"trial_type":"html-keyboard-response","trial_index":106,"plugin_version":"2.1.0","time_elapsed":241252},{"rt":null,"stimulus":"<div class=\"fixation\" style=\"font-size: 60px;\">+</div>","response":null,"trial_type":"html-keyboard-response","trial_index":107,"plugi