[{"rt":2320,"stimulus":"Welcome to the experiment. Press any key to begin.","response":" ","trial_type":"html-keyboard-response","trial_index":0,"plugin_version":"2.1.0","time_elapsed":2323},{"rt":53505,"stimulus":"\n        <div class=\"instructions-container\">\n          <h2>Instructions</h2>\n\n          <p>\n          In this experiment, you will see <strong>two Random Dot Kinematograms (RDKs)</strong> displayed simultaneously.\n          </p>\n\n          <p>\n          An RDK is a visual stimulus consisting of many small dots that move coherently in a single direction. \n          In this experiment, the dots will be either <strong>white</strong> or <strong>black</strong> \n          (see the short demo below for an example of an RDK stimulus).\n          </p>\n\n          <p>\n          On each trial, the two RDKs will move in different directions. \n          Your task is to decide <strong>which RDK appears to contain more dots</strong>.\n          </p>\n\n          <p>\n          The RDK that you judge to have more dots is called the <strong>target RDK</strong>. \n          For example, if the white RDK appears to have more dots than the black RDK, \n          you should report the motion direction of the white RDK.\n          </p>\n\n          <p>\n          After viewing the RDKs, you will rotate a bar to indicate the perceived direction of the target RDK \n          using the <strong>left</strong> and <strong>right arrow keys</strong>. \n          Press <strong>Enter</strong> when you are satisfied with your response.\n          When the bar is held down, the rotation speed increases.\n          </p>\n\n          <p>\n          You will receive points based on the <strong>accuracy of your response</strong>, \n          and your final <strong>bonus reward</strong> may depend on your overall performance. \n          Please try to respond as accurately as possible.\n          </p>\n\n          <p>\n          You will first complete <strong>16 practice trials</strong>. \n          Press the <strong>Enter</strong> key to start the practice phase.\n          </p>\n\n          <canvas id=\"instruction-demo-rdk\" width=\"200\" height=\"200\"style=\"display:block;margin:12px auto; border-radius: 50%;\"></canvas>\n        </div>\n      ","response":"Enter","trial_type":"html-keyboard-response","trial_index":1,"plugin_version":"2.1.0","time_elapsed":55829},{"rt":null,"stimulus":"<div class=\"fixation\" style=\"font-size: 60px;\">+</div>","response":null,"trial_type":"html-keyboard-response","trial_index":2,"plugin_version":"2.1.0","time_elapsed":56842},{"target_group":"black","target_index":1,"condition_label":"practice","rt":-1,"response":"","correct":false,"choices":"ALL_KEYS","correct_choice":["a"],"trial_duration":2000,"flip_timestamps":[],"response_ends_trial":false,"number_of_apertures":2,"number_of_dots":[96,100],"number_of_sets":1,"coherent_direction":[69,240],"coherence":1,"opposite_coherence":0,"dot_radius":2,"dot_side_length":1,"dot_life":-1,"move_distance":1,"aperture_width":300,"aperture_height":300,"dot_color":["white","black"],"dot_shape":"circle","background_color":"#AAA","RDK_type":3,"aperture_type":2,"reinsert_type":2,"frame_rate":16.85,"frame_rate_array":[12,17,18,17,17,17,17,17,17,17,17,17,17,17,17,17,17,17,17,16,17,17,17,16,17,16,17,17,17,17,17,17,17,17,17,17,17,17,17,17,17,16,17,17,17,17,17,16,17,17,17,17,17,17,17,17,16,17,17,17,17,17,17,17,17,17,16,16,17,17,17,17,17,17,17,16,17,17,17,17,16,17,17,17,17,17,17,17,17,17,17,17,17,17,17,17,17,17,17,17,17,17,17,16,17,17,17,17,17,16,17,16,17,17,17,16,17,17,17,17],"number_of_frames":120,"aperture_center_x":768,"aperture_center_y":432,"fixation_cross":true,"fixation_cross_width":15,"fixation_cross_height":15,"fixation_cross_color":"#111","fixation_cross_thickness":1,"border":true,"border_thickness":2,"border_color":"transparent","canvas_width":1536,"canvas_height":864,"trial_type":"rdk","trial_index":3,"plugin_version":"2.0.0","time_elapsed":58859,"phase":"practice","target_direction":240,"distractor_direction":69},{"rt":30642,"stimulus":"\n        <div class=\"response-container\">\n          <div class=\"response-instruction\">\n            <p>rotate the bar by using the left and right arrow keys.</p>\n            <p>when you are determined, press the Enter key.</p>\n          </div>\n          <div class=\"response-circle\">\n            <div class=\"response-fixation\"></div>\n            <div id=\"bar\" class=\"rotating-bar\"></div>\n          </div>\n        </div>\n      ","response":"Enter","trial_type":"html-keyboard-response","trial_index":4,"plugin_version":"2.1.0","time_elapsed":89501,"random_initial_angle":227,"response_angle_css":470,"response_angle_rdk":340,"angular_error_target":100,"angular_error_distractor":-89,"target_direction":240,"target_group":"black","reward_points":0},{"rt":null,"stimulus":"\n          <p style=\"color: #FF3333;\">Your reward: 0 points</p>\n        ","response":null,"trial_type":"html-keyboard-response","trial_index":5,"plugin_version":"2.1.0","time_elapsed":91510},{"rt":null,"stimulus":"<div class=\"fixation\" style=\"font-size: 60px;\">+</div>","response":null,"trial_type":"html-keyboard-response","trial_index":6,"plugin_version":"2.1.0","time_elapsed":92528},{"target_group":"white","target_index":0,"condition_label":"practice","rt":7,"response":"ArrowRight","correct":false,"choices":"ALL_KEYS","correct_choice":["a"],"trial_duration":2000,"flip_timestamps":[],"response_ends_trial":false,"number_of_apertures":2,"number_of_dots":[100,97],"number_of_sets":1,"coherent_direction":[329,71],"coherence":1,"opposite_coherence":0,"dot_radius":2,"dot_side_length":1,"dot_life":-1,"move_distance":1,"aperture_width":300,"aperture_height":300,"dot_color":["white","black"],"dot_shape":"circle","background_color":"#AAA","RDK_type":3,"aperture_type":2,"reinsert_type":2,"frame_rate":16.867768595041323,"frame_rate_array":[11,18,16,17,17,16,17,17,17,16,17,17,17,17,17,17,16,17,17,17,17,17,17,17,17,17,17,17,17,17,17,17,17,17,17,16,17,17,17,17,17,17,17,17,17,18,15,17,17,17,17,17,17,17,17,17,17,17,16,17,17,17,17,16,17,17,17,17,16,17,17,17,17,17,17,17,17,17,17,17,17,17,17,17,17,17,17,17,17,17,17,17,17,16,17,17,17,17,17,17,17,17,17,17,17,17,17,17,17,17,17,17,17,17,17,17,17,17,16,17,17],"number_of_frames":121,"aperture_center_x":768,"aperture_center_y":432,"fixation_cross":true,"fixation_cross_width":15,"fixation_cross_height":15,"fixation_cross_color":"#111","fixation_cross_thickness":1,"border":true,"border_thickness":2,"border_color":"transparent","canvas_width":1536,"canvas_height":864,"trial_type":"rdk","trial_index":7,"plugin_version":"2.0.0","time_elapsed":94543,"phase":"practice","target_direction":329,"distractor_direction":71},{"rt":1538,"stimulus":"\n        <div class=\"response-container\">\n          <div class=\"response-instruction\">\n            <p>rotate the bar by using the left and right arrow keys.</p>\n            <p>when you are determined, press the Enter key.</p>\n          </div>\n          <div class=\"response-circle\">\n            <div class=\"response-fixation\"></div>\n            <div id=\"bar\" class=\"rotating-bar\"></div>\n          </div>\n        </div>\n      ","response":"Enter","trial_type":"html-keyboard-response","trial_index":8,"plugin_version":"2.1.0","time_elapsed":96082,"random_initial_angle":165,"response_angle_css":165,"response_angle_rdk":285,"angular_error_target":-44,"angular_error_distractor":-146,"target_direction":329,"target_group":"white","reward_points":1},{"rt":null,"stimulus":"\n          <p style=\"color: #FF3333;\">Your reward: 1 points</p>\n        ","response":null,"trial_type":"html-keyboard-response","trial_index":9,"plugin_version":"2.1.0","time_elapsed":98083},{"rt":null,"stimulus":"<div class=\"fixation\" style=\"font-size: 60px;\">+</div>","response":null,"trial_type":"html-keyboard-response","trial_index":10,"plugin_version":"2.1.0","time_elapsed":99100},{"target_group":"black","target_index":1,"condition_label":"practice","rt":-1,"response":"","correct":false,"choices":"ALL_KEYS","correct_choice":["a"],"trial_duration":2000,"flip_timestamps":[],"response_ends_trial":false,"number_of_apertures":2,"number_of_dots":[75,100],"number_of_sets":1,"coherent_direction":[109,281],"coherence":1,"opposite_coherence":0,"dot_radius":2,"dot_side_length":1,"dot_life":-1,"move_distance":1,"aperture_width":300,"aperture_height":300,"dot_color":["white","black"],"dot_shape":"circle","background_color":"#AAA","RDK_type":3,"aperture_type":2,"reinsert_type":2,"frame_rate":16.783333333333335,"frame_rate_array":[7,17,17,17,17,17,17,16,17,17,17,17,17,17,17,17,17,17,17,17,16,17,17,17,17,16,17,17,17,17,17,16,17,17,17,16,17,16,17,17,17,17,17,16,17,17,17,17,17,17,16,17,17,17,17,17,17,17,17,17,17,17,17,17,17,17,17,16,17,17,17,17,17,17,17,16,17,17,17,17,17,17,17,17,17,17,17,16,17,17,17,17,17,17,17,17,16,17,17,16,17,17,16,17,17,17,17,17,17,17,17,17,17,17,17,16,17,16,17,17],"number_of_frames":120,"aperture_center_x":768,"aperture_center_y":432,"fixation_cross":true,"fixation_cross_width":15,"fixation_cross_height":15,"fixation_cross_color":"#111","fixation_cross_thickness":1,"border":true,"border_thickness":2,"border_color":"transparent","canvas_width":1536,"canvas_height":864,"trial_type":"rdk","trial_index":11,"plugin_version":"2.0.0","time_elapsed":101103,"phase":"practice","target_direction":281,"distractor_direction":109},{"rt":5728,"stimulus":"\n        <div class=\"response-container\">\n          <div class=\"response-instruction\">\n            <p>rotate the bar by using the left and right arrow keys.</p>\n            <p>when you are determined, press the Enter key.</p>\n          </div>\n          <div class=\"response-circle\">\n            <div class=\"response-fixation\"></div>\n            <div id=\"bar\" class=\"rotating-bar\"></div>\n          </div>\n        </div>\n      ","response":"Enter","trial_type":"html-keyboard-response","trial_index":12,"plugin_version":"2.1.0","time_elapsed":106831,"random_initial_angle":69,"response_angle_css":-32,"response_angle_rdk":122,"angular_error_target":-159,"angular_error_distractor":13,"target_direction":281,"target_group":"black","reward_points":0},{"rt":null,"stimulus":"\n          <p style=\"color: #FF3333;\">Your reward: 0 points</p>\n        ","response":null,"trial_type":"html-keyboard-response","trial_index":13,"plugin_version":"2.1.0","time_elapsed":108840},{"rt":null,"stimulus":"<div class=\"fixation\" style=\"font-size: 60px;\">+</div>","response":null,"trial_type":"html-keyboard-response","trial_index":14,"plugin_version":"2.1.0","time_elapsed":109852},{"target_group":"white","target_index":0,"condition_label":"practice","rt":-1,"response":"","correct":false,"choices":"ALL_KEYS","correct_choice":["a"],"trial_duration":2000,"flip_timestamps":[],"response_ends_trial":false,"number_of_apertures":2,"number_of_dots":[100,95],"number_of_sets":1,"coherent_direction":[137,331],"coherence":1,"opposite_coherence":0,"dot_radius":2,"dot_side_length":1,"dot_life":-1,"move_distance":1,"aperture_width":300,"aperture_height":300,"dot_color":["white","black"],"dot_shape":"circle","background_color":"#AAA","RDK_type":3,"aperture_type":2,"reinsert_type":2,"frame_rate":16.818181818181817,"frame_rate_array":[4,17,17,17,17,17,17,17,17,17,17,17,16,16,17,17,17,17,17,17,17,17,17,17,17,17,17,17,17,17,17,17,17,17,17,17,17,17,17,17,17,17,17,16,17,17,17,17,17,17,17,17,17,17,17,17,17,17,17,17,17,17,16,17,17,17,17,17,17,17,17,17,17,17,16,17,17,16,17,17,17,17,17,17,17,16,17,17,17,17,17,17,17,17,17,17,17,17,17,17,17,17,17,17,17,17,17,16,17,17,17,16,17,17,17,17,17,17,17,17,17],"number_of_frames":121,"aperture_center_x":768,"aperture_center_y":432,"fixation_cross":true,"fixation_cross_width":15,"fixation_cross_height":15,"fixation_cross_color":"#111","fixation_cross_thickness":1,"border":true,"border_thickness":2,"border_color":"transparent","canvas_width":1536,"canvas_height":864,"trial_type":"rdk","trial_index":15,"plugin_version":"2.0.0","time_elapsed":111860,"phase":"practice","target_direction":137,"distractor_direction":331},{"rt":4913,"stimulus":"\n        <div class=\"response-container\">\n          <div class=\"response-instruction\">\n            <p>rotate the bar by using the left and right arrow keys.</p>\n            <p>when you are determined, press the Enter key.</p>\n          </div>\n          <div class=\"response-circle\">\n            <div class=\"response-fixation\"></div>\n            <div id=\"bar\" class=\"rotating-bar\"></div>\n          </div>\n        </div>\n      ","response":"Enter","trial_type":"html-keyboard-response","trial_index":16,"plugin_version":"2.1.0","time_elapsed":116774,"random_initial_angle":344,"response_angle_css":489,"response_angle_rdk":321,"angular_error_target":-176,"angular_error_distractor":-10,"target_direction":137,"target_group":"white","reward_points":0},{"rt":null,"stimulus":"\n          <p style=\"color: #FF3333;\">Your reward: 0 points</p>\n        ","response":null,"trial_type":"html-keyboard-response","trial_index":17,"plugin_version":"2.1.0","time_elapsed":118786},{"rt":null,"stimulus":"<div class=\"fixation\" style=\"font-size: 60px;\">+</div>","response":null,"trial_type":"html-keyboard-response","trial_index":18,"plugin_version":"2.1.0","time_elapsed":119801},{"target_group":"black","target_index":1,"condition_label":"practice","rt":-1,"response":"","correct":false,"choices":"ALL_KEYS","correct_choice":["a"],"trial_duration":2000,"flip_timestamps":[],"response_ends_trial":false,"number_of_apertures":2,"number_of_dots":[55,100],"number_of_sets":1,"coherent_direction":[351,223],"coherence":1,"opposite_coherence":0,"dot_radius":2,"dot_side_length":1,"dot_life":-1,"move_distance":1,"aperture_width":300,"aperture_height":300,"dot_color":["white","black"],"dot_shape":"circle","background_color":"#AAA","RDK_type":3,"aperture_type":2,"reinsert_type":2,"frame_rate":16.785123966942148,"frame_rate_array":[7,17,17,16,17,17,17,17,17,17,17,17,17,17,17,17,17,16,17,17,17,17,17,17,17,17,17,17,17,16,16,17,17,17,17,17,17,17,17,17,17,17,17,17,17,17,17,17,17,17,17,17,16,17,17,16,17,17,16,17,17,16,17,17,17,17,17,17,17,17,17,17,17,16,17,17,17,17,17,17,16,17,17,17,17,17,17,17,17,16,17,17,18,16,16,16,17,17,17,17,17,17,17,17,17,17,17,17,17,17,16,17,17,16,17,17,16,17,17,17,17],"number_of_frames":121,"aperture_center_x":768,"aperture_center_y":432,"fixation_cross":true,"fixation_cross_width":15,"fixation_cross_height":15,"fixation_cross_color":"#111","fixation_cross_thickness":1,"border":true,"border_thickness":2,"border_color":"transparent","canvas_width":1536,"canvas_height":864,"trial_type":"rdk","trial_index":19,"plugin_version":"2.0.0","time_elapsed":121811,"phase":"practice","target_direction":223,"distractor_direction":351},{"rt":1687,"stimulus":"\n        <div class=\"response-container\">\n          <div class=\"response-instruction\">\n            <p>rotate the bar by using the left and right arrow keys.</p>\n            <p>when you are determined, press the Enter key.</p>\n          </div>\n          <div class=\"response-circle\">\n            <div class=\"response-fixation\"></div>\n            <div id=\"bar\" class=\"rotating-bar\"></div>\n          </div>\n        </div>\n      ","response":"Enter","trial_type":"html-keyboard-response","trial_index":20,"plugin_version":"2.1.0","time_elapsed":123498,"random_initial_angle":216,"response_angle_css":216,"response_angle_rdk":234,"angular_error_target":11,"angular_error_distractor":-117,"target_direction":223,"target_group":"black","reward_points":7},{"rt":null,"stimulus":"\n          <p style=\"color: #00FF00;\">Your reward: 7 points</p>\n        ","response":null,"trial_type":"html-keyboard-response","trial_index":21,"plugin_version":"2.1.0","time_elapsed":125503},{"rt":null,"stimulus":"<div class=\"fixation\" style=\"font-size: 60px;\">+</div>","response":null,"trial_type":"html-keyboard-response","trial_index":22,"plugin_version":"2.1.0","time_elapsed":126517},{"target_group":"black","target_index":1,"condition_label":"practice","rt":-1,"response":"","correct":false,"choices":"ALL_KEYS","correct_choice":["a"],"trial_duration":2000,"flip_timestamps":[],"response_ends_trial":false,"number_of_apertures":2,"number_of_dots":[82,100],"number_of_sets":1,"coherent_direction":[62,303],"coherence":1,"opposite_coherence":0,"dot_radius":2,"dot_side_length":1,"dot_life":-1,"move_distance":1,"aperture_width":300,"aperture_height":300,"dot_color":["white","black"],"dot_shape":"circle","background_color":"#AAA","RDK_type":3,"aperture_type":2,"reinsert_type":2,"frame_rate":16.8099173553719,"frame_rate_array":[7,17,16,17,17,17,17,17,17,16,17,17,17,17,16,17,16,17,17,17,17,17,17,17,17,17,17,16,17,17,17,17,17,17,17,17,17,17,17,17,17,17,17,17,17,17,17,17,17,17,17,17,17,17,17,17,17,17,16,17,17,16,17,17,17,17,17,16,17,16,17,17,17,17,17,17,17,17,17,17,17,17,17,17,17,17,17,17,16,18,17,17,17,17,17,17,17,17,16,17,17,17,17,17,17,17,16,17,17,17,17,17,17,16,17,17,17,16,17,17,17],"number_of_frames":121,"aperture_center_x":768,"aperture_center_y":432,"fixation_cross":true,"fixation_cross_width":15,"fixation_cross_height":15,"fixation_cross_color":"#111","fixation_cross_thickness":1,"border":true,"border_thickness":2,"border_color":"transparent","canvas_width":1536,"canvas_height":864,"trial_type":"rdk","trial_index":23,"plugin_version":"2.0.0","time_elapsed":128527,"phase":"practice","target_direction":303,"distractor_direction":62},{"rt":2023,"stimulus":"\n        <div class=\"response-container\">\n          <div class=\"response-instruction\">\n            <p>rotate the bar by using the left and right arrow keys.</p>\n            <p>when you are determined, press the Enter key.</p>\n          </div>\n          <div class=\"response-circle\">\n            <div class=\"response-fixation\"></div>\n            <div id=\"bar\" class=\"rotating-bar\"></div>\n          </div>\n        </div>\n      ","response":"Enter","trial_type":"html-keyboard-response","trial_index":24,"plugin_version":"2.1.0","time_elapsed":130552,"random_initial_angle":91,"response_angle_css":122,"response_angle_rdk":328,"angular_error_target":25,"angular_error_distractor":-94,"target_direction":303,"target_group":"black","reward_points":5},{"rt":null,"stimulus":"\n          <p style=\"color: #00FF00;\">Your reward: 5 points</p>\n        ","response":null,"trial_type":"html-keyboard-response","trial_index":25,"plugin_version":"2.1.0","time_elapsed":132554},{"rt":null,"stimulus":"<div class=\"fixation\" style=\"font-size: 60px;\">+</div>","response":null,"trial_type":"html-keyboard-response","trial_index":26,"plugin_version":"2.1.0","time_elapsed":133563},{"target_group":"black","target_index":1,"condition_label":"practice","rt":-1,"response":"","correct":false,"choices":"ALL_KEYS","correct_choice":["a"],"trial_duration":2000,"flip_timestamps":[],"response_ends_trial":false,"number_of_apertures":2,"number_of_dots":[70,100],"number_of_sets":1,"coherent_direction":[7,110],"coherence":1,"opposite_coherence":0,"dot_radius":2,"dot_side_length":1,"dot_life":-1,"move_distance":1,"aperture_width":300,"aperture_height":300,"dot_color":["white","black"],"dot_shape":"circle","background_color":"#AAA","RDK_type":3,"aperture_type":2,"reinsert_type":2,"frame_rate":16.85,"frame_rate_array":[11,17,16,17,17,16,17,17,17,17,17,17,17,17,17,17,17,16,17,16,17,17,16,17,17,17,17,17,17,17,17,17,17,17,17,16,17,16,17,17,17,17,17,17,17,17,17,17,17,17,17,17,17,17,16,17,17,16,17,17,16,16,17,18,17,17,17,17,17,17,17,17,17,17,17,17,17,17,17,17,17,17,17,17,17,17,17,17,17,17,17,17,17,17,17,16,17,16,17,17,17,17,17,17,17,17,17,17,17,17,17,17,17,17,17,17,17,17,17,17],"number_of_frames":120,"aperture_center_x":768,"aperture_center_y":432,"fixation_cross":true,"fixation_cross_width":15,"fixation_cross_height":15,"fixation_cross_color":"#111","fixation_cross_thickness":1,"border":true,"border_thickness":2,"border_color":"transparent","canvas_width":1536,"canvas_height":864,"trial_type":"rdk","trial_index":27,"plugin_version":"2.0.0","time_elapsed":135577,"phase":"practice","target_direction":110,"distractor_direction":7},{"rt":4222,"stimulus":"\n        <div class=\"response-container\">\n          <div class=\"response-instruction\">\n            <p>rotate the bar by using the left and right arrow keys.</p>\n            <p>when you are determined, press the Enter key.</p>\n          </div>\n          <div class=\"response-circle\">\n            <div class=\"response-fixation\"></div>\n            <div id=\"bar\" class=\"rotating-bar\"></div>\n          </div>\n        </div>\n      ","response":"Enter","trial_type":"html-keyboard-response","trial_index":28,"plugin_version":"2.1.0","time_elapsed":139799,"random_initial_angle":55,"response_angle_css":-61,"response_angle_rdk":151,"angular_error_target":41,"angular_error_distractor":144,"target_direction":110,"target_group":"black","reward_points":1},{"rt":null,"stimulus":"\n          <p style=\"color: #FF3333;\">Your reward: 1 points</p>\n        ","response":null,"trial_type":"html-keyboard-response","trial_index":29,"plugin_version":"2.1.0","time_elapsed":141802},{"rt":null,"stimulus":"<div class=\"fixation\" style=\"font-size: 60px;\">+</div>","response":null,"trial_type":"html-keyboard-response","trial_index":30,"plugin_version":"2.1.0","time_elapsed":142805},{"target_group":"black","target_index":1,"condition_label":"practice","rt":-1,"response":"","correct":false,"choices":"ALL_KEYS","correct_choice":["a"],"trial_duration":2000,"flip_timestamps":[],"response_ends_trial":false,"number_of_apertures":2,"number_of_dots":[90,100],"number_of_sets":1,"coherent_direction":[21,224],"coherence":1,"opposite_coherence":0,"dot_radius":2,"dot_side_length":1,"dot_life":-1,"move_distance":1,"aperture_width":300,"aperture_height":300,"dot_color":["white","black"],"dot_shape":"circle","background_color":"#AAA","RDK_type":3,"aperture_type":2,"reinsert_type":2,"frame_rate":16.783333333333335,"frame_rate_array":[3,17,17,17,17,17,17,17,16,17,17,17,17,17,17,17,17,17,17,17,17,17,17,17,17,17,17,17,17,16,17,17,17,16,17,17,17,17,17,17,16,18,17,17,17,17,17,17,17,17,17,17,16,17,17,16,17,16,17,17,17,17,17,16,17,17,17,16,18,16,17,17,17,16,17,17,17,17,17,17,17,17,17,17,17,17,17,17,17,17,17,17,17,17,17,17,17,17,17,17,16,17,17,17,17,16,17,17,17,17,17,17,16,17,17,17,17,17,17,17],"number_of_frames":120,"aperture_center_x":768,"aperture_center_y":432,"fixation_cross":true,"fixation_cross_width":15,"fixation_cross_height":15,"fixation_cross_color":"#111","fixation_cross_thickness":1,"border":true,"border_thickness":2,"border_color":"transparent","canvas_width":1536,"canvas_height":864,"trial_type":"rdk","trial_index":31,"plugin_version":"2.0.0","time_elapsed":144811,"phase":"practice","target_direction":224,"distractor_direction":21},{"rt":5629,"stimulus":"\n        <div class=\"response-container\">\n          <div class=\"response-instruction\">\n            <p>rotate the bar by using the left and right arrow keys.</p>\n            <p>when you are determined, press the Enter key.</p>\n          </div>\n          <div class=\"response-circle\">\n            <div class=\"response-fixation\"></div>\n            <div id=\"bar\" class=\"rotating-bar\"></div>\n          </div>\n        </div>\n      ","response":"Enter","trial_type":"html-keyboard-response","trial_index":32,"plugin_version":"2.1.0","time_elapsed":150440,"random_initial_angle":227,"response_angle_css":243,"response_angle_rdk":207,"angular_error_target":-17,"angular_error_distractor":-174,"target_direction":224,"target_group":"black","reward_points":6},{"rt":null,"stimulus":"\n          <p style=\"color: #00FF00;\">Your reward: 6 points</p>\n        ","response":null,"trial_type":"html-keyboard-response","trial_index":33,"plugin_version":"2.1.0","time_elapsed":152451},{"rt":null,"stimulus":"<div class=\"fixation\" style=\"font-size: 60px;\">+</div>","response":null,"trial_type":"html-keyboard-response","trial_index":34,"plugin_version":"2.1.0","time_elapsed":153457},{"target_group":"black","target_index":1,"condition_label":"practice","rt":-1,"response":"","correct":false,"choices":"ALL_KEYS","correct_choice":["a"],"trial_duration":2000,"flip_timestamps":[],"response_ends_trial":false,"number_of_apertures":2,"number_of_dots":[89,100],"number_of_sets":1,"coherent_direction":[101,241],"coherence":1,"opposite_coherence":0,"dot_radius":2,"dot_side_length":1,"dot_life":-1,"move_distance":1,"aperture_width":300,"aperture_height":300,"dot_color":["white","black"],"dot_shape":"circle","background_color":"#AAA","RDK_type":3,"aperture_type":2,"reinsert_type":2,"frame_rate":16.816666666666666,"frame_rate_array":[2,17,17,17,17,17,17,17,17,17,17,16,17,17,17,17,17,17,17,17,17,17,17,17,17,17,17,17,17,17,17,17,16,17,17,17,17,17,17,17,17,17,17,17,17,17,17,17,17,17,17,17,17,17,17,17,17,17,17,17,17,17,17,17,17,17,17,17,17,16,17,17,17,17,17,17,16,17,17,17,17,17,17,17,17,17,17,17,17,17,17,17,17,17,17,17,17,17,17,17,17,16,16,17,17,17,17,17,17,17,17,17,17,17,17,17,17,17,17,16],"number_of_frames":120,"aperture_center_x":768,"aperture_center_y":432,"fixation_cross":true,"fixation_cross_width":15,"fixation_cross_height":15,"fixation_cross_color":"#111","fixation_cross_thickness":1,"border":true,"border_thickness":2,"border_color":"transparent","canvas_width":1536,"canvas_height":864,"trial_type":"rdk","trial_index":35,"plugin_version":"2.0.0","time_elapsed":155461,"phase":"practice","target_direction":241,"distractor_direction":101},{"rt":3881,"stimulus":"\n        <div class=\"response-container\">\n          <div class=\"response-instruction\">\n            <p>rotate the bar by using the left and right arrow keys.</p>\n            <p>when you are determined, press the Enter key.</p>\n          </div>\n          <div class=\"response-circle\">\n            <div class=\"response-fixation\"></div>\n            <div id=\"bar\" class=\"rotating-bar\"></div>\n          </div>\n        </div>\n      ","response":"Enter","trial_type":"html-keyboard-response","trial_index":36,"plugin_version":"2.1.0","time_elapsed":159343,"random_initial_angle":168,"response_angle_css":140,"response_angle_rdk":310,"angular_error_target":69,"angular_error_distractor":-151,"target_direction":241,"target_group":"black","reward_points":0},{"rt":null,"stimulus":"\n          <p style=\"color: #FF3333;\">Your reward: 0 points</p>\n        ","response":null,"trial_type":"html-keyboard-response","trial_index":37,"plugin_version":"2.1.0","time_elapsed":161350},{"rt":null,"stimulus":"<div class=\"fixation\" style=\"font-size: 60px;\">+</div>","response":null,"trial_type":"html-keyboard-response","trial_index":38,"plugin_version":"2.1.0","time_elapsed":162360},{"target_group":"white","target_index":0,"condition_label":"practice","rt":-1,"response":"","correct":false,"choices":"ALL_KEYS","correct_choice":["a"],"trial_duration":2000,"flip_timestamps":[],"response_ends_trial":false,"number_of_apertures":2,"number_of_dots":[100,62],"number_of_sets":1,"coherent_direction":[170,2],"coherence":1,"opposite_coherence":0,"dot_radius":2,"dot_side_length":1,"dot_life":-1,"move_distance":1,"aperture_width":300,"aperture_height":300,"dot_color":["white","black"],"dot_shape":"circle","background_color":"#AAA","RDK_type":3,"aperture_type":2,"reinsert_type":2,"frame_rate":16.816666666666666,"frame_rate_array":[17,16,16,17,17,17,17,16,17,17,17,16,17,17,17,17,17,17,17,17,16,17,17,17,17,17,16,17,17,17,16,17,17,17,17,17,17,17,17,17,17,17,17,17,16,17,17,17,17,17,16,17,16,17,17,17,17,17,17,17,16,17,16,17,16,18,16,16,17,17,17,17,17,17,17,16,17,17,17,16,17,16,17,17,17,17,17,17,17,16,17,17,16,17,17,16,17,17,17,17,17,17,17,17,17,16,17,17,16,17,17,17,17,17,17,17,17,17,17,17],"number_of_frames":120,"aperture_center_x":768,"aperture_center_y":432,"fixation_cross":true,"fixation_cross_width":15,"fixation_cross_height":15,"fixation_cross_color":"#111","fixation_cross_thickness":1,"border":true,"border_thickness":2,"border_color":"transparent","canvas_width":1536,"canvas_height":864,"trial_type":"rdk","trial_index":39,"plugin_version":"2.0.0","time_elapsed":164362,"phase":"practice","target_direction":170,"distractor_direction":2},{"rt":5107,"stimulus":"\n        <div class=\"response-container\">\n          <div class=\"response-instruction\">\n            <p>rotate the bar by using the left and right arrow keys.</p>\n            <p>when you are determined, press the Enter key.</p>\n          </div>\n          <div class=\"response-circle\">\n            <div class=\"response-fixation\"></div>\n            <div id=\"bar\" class=\"rotating-bar\"></div>\n          </div>\n        </div>\n      ","response":"Enter","trial_type":"html-keyboard-response","trial_index":40,"plugin_version":"2.1.0","time_elapsed":169470,"random_initial_angle":139,"response_angle_css":-45,"response_angle_rdk":135,"angular_error_target":-35,"angular_error_distractor":133,"target_direction":170,"target_group":"white","reward_points":3},{"rt":null,"stimulus":"\n          <p style=\"color: #00FF00;\">Your reward: 3 points</p>\n        ","response":null,"trial_type":"html-keyboard-response","trial_index":41,"plugin_version":"2.1.0","time_elapsed":171475},{"rt":null,"stimulus":"<div class=\"fixation\" style=\"font-size: 60px;\">+</div>","response":null,"trial_type":"html-keyboard-response","trial_index":42,"plugin_version":"2.1.0","time_elapsed":172492},{"target_group":"white","target_index":0,"condition_label":"practice","rt":-1,"response":"","correct":false,"choices":"ALL_KEYS","correct_choice":["a"],"trial_duration":2000,"flip_timestamps":[],"response_ends_trial":false,"number_of_apertures":2,"number_of_dots":[100,58],"number_of_sets":1,"coherent_direction":[180,1],"coherence":1,"opposite_coherence":0,"dot_radius":2,"dot_side_length":1,"dot_life":-1,"move_distance":1,"aperture_width":300,"aperture_height":300,"dot_color":["white","black"],"dot_shape":"circle","background_color":"#AAA","RDK_type":3,"aperture_type":2,"reinsert_type":2,"frame_rate":16.727272727272727,"frame_rate_array":[2,17,17,17,17,17,17,17,17,17,16,17,17,17,17,17,17,17,17,17,17,16,17,17,17,17,17,17,17,17,17,16,17,17,17,17,17,17,17,16,17,17,16,17,17,17,16,17,17,17,17,17,17,17,17,17,17,17,17,17,16,17,17,17,16,17,17,17,16,17,17,18,16,17,17,17,16,17,17,16,17,17,16,17,17,17,16,17,17,17,16,17,17,17,17,17,17,17,17,17,17,17,17,16,17,17,17,16,17,17,17,17,17,16,17,17,17,17,17,16,17],"number_of_frames":121,"aperture_center_x":768,"aperture_center_y":432,"fixation_cross":true,"fixation_cross_width":15,"fixation_cross_height":15,"fixation_cross_color":"#111","fixation_cross_thickness":1,"border":true,"border_thickness":2,"border_color":"transparent","canvas_width":1536,"canvas_height":864,"trial_type":"rdk","trial_index":43,"plugin_version":"2.0.0","time_elapsed":174496,"phase":"practice","target_direction":180,"distractor_direction":1},{"rt":3516,"stimulus":"\n        <div class=\"response-container\">\n          <div class=\"response-instruction\">\n            <p>rotate the bar by using the left and right arrow keys.</p>\n            <p>when you are determined, press the Enter key.</p>\n          </div>\n          <div class=\"response-circle\">\n            <div class=\"response-fixation\"></div>\n            <div id=\"bar\" class=\"rotating-bar\"></div>\n          </div>\n        </div>\n      ","response":"Enter","trial_type":"html-keyboard-response","trial_index":44,"plugin_version":"2.1.0","time_elapsed":178013,"random_initial_angle":213,"response_angle_css":247,"response_angle_rdk":203,"angular_error_target":23,"angular_error_distractor":-158,"target_direction":180,"target_group":"white","reward_points":5},{"rt":null,"stimulus":"\n          <p style=\"color: #00FF00;\">Your reward: 5 points</p>\n        ","response":null,"trial_type":"html-keyboard-response","trial_index":45,"plugin_version":"2.1.0","time_elapsed":180027},{"rt":null,"stimulus":"<div class=\"fixation\" style=\"font-size: 60px;\">+</div>","response":null,"trial_type":"html-keyboard-response","trial_index":46,"plugin_version":"2.1.0","time_elapsed":181044},{"target_group":"white","target_index":0,"condition_label":"practice","rt":-1,"response":"","correct":false,"choices":"ALL_KEYS","correct_choice":["a"],"trial_duration":2000,"flip_timestamps":[],"response_ends_trial":false,"number_of_apertures":2,"number_of_dots":[100,98],"number_of_sets":1,"coherent_direction":[110,214],"coherence":1,"opposite_coherence":0,"dot_radius":2,"dot_side_length":1,"dot_life":-1,"move_distance":1,"aperture_width":300,"aperture_height":300,"dot_color":["white","black"],"dot_shape":"circle","background_color":"#AAA","RDK_type":3,"aperture_type":2,"reinsert_type":2,"frame_rate":16.825,"frame_rate_array":[18,15,17,17,16,17,17,17,17,17,17,17,17,17,18,16,16,17,17,17,17,17,16,16,17,18,16,16,17,17,17,17,17,17,17,17,17,16,17,18,17,17,17,17,17,17,17,17,16,17,16,17,17,17,17,17,17,17,17,17,17,17,16,17,17,17,17,17,17,17,17,17,16,17,17,17,16,17,17,17,16,17,17,17,16,17,17,16,17,17,17,16,17,17,16,17,17,17,17,17,17,16,17,16,17,17,17,17,17,16,17,17,17,17,17,16,17,17,17,16],"number_of_frames":120,"aperture_center_x":768,"aperture_center_y":432,"fixation_cross":true,"fixation_cross_width":15,"fixation_cross_height":15,"fixation_cross_color":"#111","fixation_cross_thickness":1,"border":true,"border_thickness":2,"border_color":"transparent","canvas_width":1536,"canvas_height":864,"trial_type":"rdk","trial_index":47,"plugin_version":"2.0.0","time_elapsed":183046,"phase":"practice","target_direction":110,"distractor_direction":214},{"rt":1161,"stimulus":"\n        <div class=\"response-container\">\n          <div class=\"response-instruction\">\n            <p>rotate the bar by using the left and right arrow keys.</p>\n            <p>when you are determined, press the Enter key.</p>\n          </div>\n          <div class=\"response-circle\">\n            <div class=\"response-fixation\"></div>\n            <div id=\"bar\" class=\"rotating-bar\"></div>\n          </div>\n        </div>\n      ","response":"Enter","trial_type":"html-keyboard-response","trial_index":48,"plugin_version":"2.1.0","time_elapsed":184208,"random_initial_angle":226,"response_angle_css":226,"response_angle_rdk":224,"angular_error_target":114,"angular_error_distractor":10,"target_direction":110,"target_group":"white","reward_points":0},{"rt":null,"stimulus":"\n          <p style=\"color: #FF3333;\">Your reward: 0 points</p>\n        ","response":null,"trial_type":"html-keyboard-response","trial_index":49,"plugin_version":"2.1.0","time_elapsed":186211},{"rt":null,"stimulus":"<div class=\"fixation\" style=\"font-size: 60px;\">+</div>","response":null,"trial_type":"html-keyboard-response","trial_index":50,"plugin_version":"2.1.0","time_elapsed":187217},{"target_group":"white","target_index":0,"condition_label":"practice","rt":-1,"response":"","correct":false,"choices":"ALL_KEYS","correct_choice":["a"],"trial_duration":2000,"flip_timestamps":[],"response_ends_trial":false,"number_of_apertures":2,"number_of_dots":[100,67],"number_of_sets":1,"coherent_direction":[167,51],"coherence":1,"opposite_coherence":0,"dot_radius":2,"dot_side_length":1,"dot_life":-1,"move_distance":1,"aperture_width":300,"aperture_height":300,"dot_color":["white","black"],"dot_shape":"circle","background_color":"#AAA","RDK_type":3,"aperture_type":2,"reinsert_type":2,"frame_rate":16.8099173553719,"frame_rate_array":[8,17,17,17,17,17,17,17,17,17,17,17,17,17,16,17,17,17,17,17,17,17,17,17,17,17,17,17,17,17,17,17,17,17,17,17,17,17,17,17,17,17,17,17,17,17,16,17,16,17,17,17,16,17,17,17,17,17,17,17,17,17,17,17,17,16,17,17,17,17,17,17,17,17,17,17,16,16,17,17,17,17,17,17,17,17,17,16,17,17,17,16,17,17,17,17,16,17,16,17,17,17,17,17,17,17,17,17,17,16,17,17,17,17,16,17,17,17,17,17,16],"number_of_frames":121,"aperture_center_x":768,"aperture_center_y":432,"fixation_cross":true,"fixation_cross_width":15,"fixation_cross_height":15,"fixation_cross_color":"#111","fixation_cross_thickness":1,"border":true,"border_thickness":2,"border_color":"transparent","canvas_width":1536,"canvas_height":864,"trial_type":"rdk","trial_index":51,"plugin_version":"2.0.0","time_elapsed":189229,"phase":"practice","target_direction":167,"distractor_direction":51},{"rt":4346,"stimulus":"\n        <div class=\"response-container\">\n          <div class=\"response-instruction\">\n            <p>rotate the bar by using the left and right arrow keys.</p>\n            <p>when you are determined, press the Enter key.</p>\n          </div>\n          <div class=\"response-circle\">\n            <div class=\"response-fixation\"></div>\n            <div id=\"bar\" class=\"rotating-bar\"></div>\n          </div>\n        </div>\n      ","response":"Enter","trial_type":"html-keyboard-response","trial_index":52,"plugin_version":"2.1.0","time_elapsed":193577,"random_initial_angle":316,"response_angle_css":394,"response_angle_rdk":56,"angular_error_target":-111,"angular_error_distractor":5,"target_direction":167,"target_group":"white","reward_points":0},{"rt":null,"stimulus":"\n          <p style=\"color: #FF3333;\">Your reward: 0 points</p>\n        ","response":null,"trial_type":"html-keyboard-response","trial_index":53,"plugin_version":"2.1.0","time_elapsed":195588},{"rt":null,"stimulus":"<div class=\"fixation\" style=\"font-size: 60px;\">+</div>","response":null,"trial_type":"html-keyboard-response","trial_index":54,"plugin_version":"2.1.0","time_elapsed":196603},{"target_group":"white","target_index":0,"condition_label":"practice","rt":-1,"response":"","correct":false,"choices":"ALL_KEYS","correct_choice":["a"],"trial_duration":2000,"flip_timestamps":[],"response_ends_trial":false,"number_of_apertures":2,"number_of_dots":[100,50],"number_of_sets":1,"coherent_direction":[263,103],"coherence":1,"opposite_coherence":0,"dot_radius":2,"dot_side_length":1,"dot_life":-1,"move_distance":1,"aperture_width":300,"aperture_height":300,"dot_color":["white","black"],"dot_shape":"circle","background_color":"#AAA","RDK_type":3,"aperture_type":2,"reinsert_type":2,"frame_rate":16.758333333333333,"frame_rate_array":[8,16,17,17,16,16,17,17,17,17,17,17,17,17,17,17,17,17,16,17,17,16,17,17,17,17,17,17,17,17,16,17,17,17,17,17,17,17,16,17,17,17,16,17,18,16,17,17,17,16,17,17,17,17,19,14,17,16,17,17,17,16,17,17,17,17,17,17,16,17,17,17,17,17,17,17,17,17,17,17,17,17,17,17,17,16,17,17,16,17,17,17,16,17,17,17,17,16,16,16,18,17,17,17,17,17,17,17,17,17,16,17,17,17,17,17,16,17,17,17],"number_of_frames":120,"aperture_center_x":768,"aperture_center_y":432,"fixation_cross":true,"fixation_cross_width":15,"fixation_cross_height":15,"fixation_cross_color":"#111","fixation_cross_thickness":1,"border":true,"border_thickness":2,"border_color":"transparent","canvas_width":1536,"canvas_height":864,"trial_type":"rdk","trial_index":55,"plugin_version":"2.0.0","time_elapsed":198613,"phase":"practice","target_direction":263,"distractor_direction":103},{"rt":6657,"stimulus":"\n        <div class=\"response-container\">\n          <div class=\"response-instruction\">\n            <p>rotate the bar by using the left and right arrow keys.</p>\n            <p>when you are determined, press the Enter key.</p>\n          </div>\n          <div class=\"response-circle\">\n            <div class=\"response-fixation\"></div>\n            <div id=\"bar\" class=\"rotating-bar\"></div>\n          </div>\n        </div>\n      ","response":"Enter","trial_type":"html-keyboard-response","trial_index":56,"plugin_version":"2.1.0","time_elapsed":205270,"random_initial_angle":313,"response_angle_css":180,"response_angle_rdk":270,"angular_error_target":7,"angular_error_distractor":167,"target_direction":263,"target_group":"white","reward_points":8},{"rt":null,"stimulus":"\n          <p style=\"color: #00FF00;\">Your reward: 8 points</p>\n        ","response":null,"trial_type":"html-keyboard-response","trial_index":57,"plugin_version":"2.1.0","time_elapsed":207277},{"rt":null,"stimulus":"<div class=\"fixation\" style=\"font-size: 60px;\">+</div>","response":null,"trial_type":"html-keyboard-response","trial_index":58,"plugin_version":"2.1.0","time_elapsed":208293},{"target_group":"white","target_index":0,"condition_label":"practice","rt":-1,"response":"","correct":false,"choices":"ALL_KEYS","correct_choice":["a"],"trial_duration":2000,"flip_timestamps":[],"response_ends_trial":false,"number_of_apertures":2,"number_of_dots":[100,78],"number_of_sets":1,"coherent_direction":[89,210],"coherence":1,"opposite_coherence":0,"dot_radius":2,"dot_side_length":1,"dot_life":-1,"move_distance":1,"aperture_width":300,"aperture_height":300,"dot_color":["white","black"],"dot_shape":"circle","background_color":"#AAA","RDK_type":3,"aperture_type":2,"reinsert_type":2,"frame_rate":16.741666666666667,"frame_rate_array":[2,17,18,17,17,16,17,17,16,17,16,17,16,16,17,17,17,17,17,17,17,17,17,17,17,17,17,17,17,16,17,17,17,16,16,17,17,17,17,17,17,17,16,17,17,17,17,17,17,17,17,17,17,17,16,17,17,17,17,17,17,17,17,17,17,17,17,17,17,17,17,17,17,17,18,16,16,17,17,17,17,17,17,16,17,17,17,17,17,16,17,17,17,17,17,17,17,16,18,17,17,17,17,17,17,17,17,16,17,16,17,17,17,17,17,16,17,17,17,16],"number_of_frames":120,"aperture_center_x":768,"aperture_center_y":432,"fixation_cross":true,"fixation_cross_width":15,"fixation_cross_height":15,"fixation_cross_color":"#111","fixation_cross_thickness":1,"border":true,"border_thickness":2,"border_color":"transparent","canvas_width":1536,"canvas_height":864,"trial_type":"rdk","trial_index":59,"plugin_version":"2.0.0","time_elapsed":210296,"phase":"practice","target_direction":89,"distractor_direction":210},{"rt":3452,"stimulus":"\n        <div class=\"response-container\">\n          <div class=\"response-instruction\">\n            <p>rotate the bar by using the left and right arrow keys.</p>\n            <p>when you are determined, press the Enter key.</p>\n          </div>\n          <div class=\"response-circle\">\n            <div class=\"response-fixation\"></div>\n            <div id=\"bar\" class=\"rotating-bar\"></div>\n          </div>\n        </div>\n      ","response":"Enter","trial_type":"html-keyboard-response","trial_index":60,"plugin_version":"2.1.0","time_elapsed":213749,"random_initial_angle":60,"response_angle_css":32,"response_angle_rdk":58,"angular_error_target":-31,"angular_error_distractor":-152,"target_direction":89,"target_group":"white","reward_points":3},{"rt":null,"stimulus":"\n          <p style=\"color: #00FF00;\">Your reward: 3 points</p>\n        ","response":null,"trial_type":"html-keyboard-response","trial_index":61,"plugin_version":"2.1.0","time_elapsed":215763},{"rt":null,"stimulus":"<div class=\"fixation\" style=\"font-size: 60px;\">+</div>","response":null,"trial_type":"html-keyboard-response","trial_index":62,"plugin_version":"2.1.0","time_elapsed":216772},{"target_group":"black","target_index":1,"condition_label":"practice","rt":-1,"response":"","correct":false,"choices":"ALL_KEYS","correct_choice":["a"],"trial_duration":2000,"flip_timestamps":[],"response_ends_trial":false,"number_of_apertures":2,"number_of_dots":[65,100],"number_of_sets":1,"coherent_direction":[219,46],"coherence":1,"opposite_coherence":0,"dot_radius":2,"dot_side_length":1,"dot_life":-1,"move_distance":1,"aperture_width":300,"aperture_height":300,"dot_color":["white","black"],"dot_shape":"circle","background_color":"#AAA","RDK_type":3,"aperture_type":2,"reinsert_type":2,"frame_rate":16.816666666666666,"frame_rate_array":[7,17,17,17,17,17,17,17,17,17,16,17,17,17,17,17,17,17,17,17,17,17,17,17,17,17,17,17,17,17,16,17,17,17,17,17,17,17,17,17,17,17,17,17,17,17,18,15,17,17,16,17,17,17,17,16,17,17,17,17,17,16,17,17,17,16,17,17,17,17,17,17,17,17,17,17,17,17,17,17,17,17,17,17,17,17,17,17,17,17,17,17,17,17,17,17,17,17,16,17,17,17,17,17,16,17,17,17,17,16,17,17,16,17,17,17,17,17,16,17],"number_of_frames":120,"aperture_center_x":768,"aperture_center_y":432,"fixation_cross":true,"fixation_cross_width":15,"fixation_cross_height":15,"fixation_cross_color":"#111","fixation_cross_thickness":1,"border":true,"border_thickness":2,"border_color":"transparent","canvas_width":1536,"canvas_height":864,"trial_type":"rdk","trial_index":63,"plugin_version":"2.0.0","time_elapsed":218779,"phase":"practice","target_direction":46,"distractor_direction":219},{"rt":3513,"stimulus":"\n        <div class=\"response-container\">\n          <div class=\"response-instruction\">\n            <p>rotate the bar by using the left and right arrow keys.</p>\n            <p>when you are determined, press the Enter key.</p>\n          </div>\n          <div class=\"response-circle\">\n            <div class=\"response-fixation\"></div>\n            <div id=\"bar\" class=\"rotating-bar\"></div>\n          </div>\n        </div>\n      ","response":"Enter","trial_type":"html-keyboard-response","trial_index":64,"plugin_version":"2.1.0","time_elapsed":222293,"random_initial_angle":2,"response_angle_css":36,"response_angle_rdk":54,"angular_error_target":8,"angular_error_distractor":-165,"target_direction":46,"target_group":"black","reward_points":8},{"rt":null,"stimulus":"\n          <p style=\"color: #00FF00;\">Your reward: 8 points</p>\n        ","response":null,"trial_type":"html-keyboard-response","trial_index":65,"plugin_version":"2.1.0","time_elapsed":224306},{"rt":2902,"stimulus":"\n        <div class=\"instructions-container\">\n          <h2>End of Practice</h2>\n          <p>You have completed the practice trials.</p>\n          <p>Press <strong>Enter</strong> key to begin the main experiment.</p>\n        </div>\n      ","response":"Enter","trial_type":"html-keyboard-response","trial_index":66,"plugin_version":"2.1.0","time_elapsed":227209},{"rt":null,"stimulus":"<div class=\"fixation\" style=\"font-size: 60px;\">+</div>","response":null,"trial_type":"html-keyboard-response","trial_index":67,"plugin_version":"2.1.0","time_elapsed":228214},{"phase":"learning-awareness","target_group":"black","condition_label":"B_H_vs_W_L_rep18","target_direction":46,"distractor_direction":159,"session_rotation":310,"rt":-1,"response":"","correct":false,"choices":"ALL_KEYS","correct_choice":["a"],"trial_duration":2000,"flip_timestamps":[],"response_ends_trial":false,"number_of_apertures":200,"number_of_dots":[1,1,1,1,1,1,1,1,1,1,1,1,1,1,1,1,1,1,1,1,1,1,1,1,1,1,1,1,1,1,1,1,1,1,1,1,1,1,1,1,1,1,1,1,1,1,1,1,1,1,1,1,1,1,1,1,1,1,1,1,1,1,1,1,1,1,1,1,1,1,1,1,1,1,1,1,1,1,1,1,1,1,1,1,1,1,1,1,1,1,1,1,1,1,1,1,1,1,1,1,1,1,1,1,1,1,1,1,1,1,1,1,1,1,1,1,1,1,1,1,1,1,1,1,1,1,1,1,1,1,1,1,1,1,1,1,1,1,1,1,1,1,1,1,1,1,1,1,1,1,1,1,1,1,1,1,1,1,1,1,1,1,1,1,1,1,1,1,1,1,1,1,1,1,1,1,1,1,1,1,1,1,1,1,1,1,1,1,1,1,1,1,1,1,1,1,1,1,1,1],"number_of_sets":1,"coherent_direction":[159,159,159,46,159,46,159,46,46,159,159,159,46,46,159,159,46,46,159,46,159,46,46,159,46,159,46,159,46,159,46,46,159,159,159,159,159,46,159,46,159,159,46,159,46,46,159,46,159,159,159,159,46,46,46,46,159,159,46,46,159,46,159,159,46,159,159,46,46,159,159,46,159,46,46,46,46,46,46,159,46,159,159,46,159,159,46,159,159,46,46,46,46,46,46,159,159,159,46,159,46,46,46,159,46,46,46,46,159,46,159,46,159,159,46,46,46,159,159,46,46,46,46,159,46,46,159,46,46,159,159,46,159,46,159,159,159,46,159,159,159,46,46,46,46,159,159,159,159,46,159,159,159,159,159,159,46,159,46,46,46,159,46,159,159,159,159,46,46,159,159,46,159,159,46,46,46,159,159,159,46,159,46,46,46,159,46,159,46,46,159,159,46,159,46,46,46,46,159,159],"coherence":1,"opposite_coherence":0,"dot_radius":2,"dot_side_length":1,"dot_life":-1,"move_distance":1,"aperture_width":300,"aperture_height":300,"dot_color":["white","white","white","black","white","black","white","black","black","white","white","white","black","black","white","white","black","black","white","black","white","black","black","white","black","white","black","white","black","white","black","black","white","white","white","white","white","black","white","black","white","white","black","white","black","black","white","black","white","white","white","white","black","black","black","black","white","white","black","black","white","black","white","white","black","white","white","black","black","white","white","black","white","black","black","black","black","black","black","white","black","white","white","black","white","white","black","white","white","black","black","black","black","black","black","white","white","white","black","white","black","black","black","white","black","black","black","black","white","black","white","black","white","white","black","black","black","white","white","black","black","black","black","white","black","black","white","black","black","white","white","black","white","black","white","white","white","black","white","white","white","black","black","black","black","white","white","white","white","black","white","white","white","white","white","white","black","white","black","black","black","white","black","white","white","white","white","black","black","white","white","black","white","white","black","black","black","white","white","white","black","white","black","black","black","white","black","white","black","black","white","white","black","white","black","black","black","black","white","white"],"dot_shape":"circle","background_color":"#AAA","RDK_type":3,"aperture_type":2,"reinsert_type":2,"frame_rate":16.708333333333332,"frame_rate_array":[15,17,17,17,16,17,16,17,16,17,17,17,17,17,16,17,17,17,17,16,17,17,17,16,18,15,17,17,16,17,18,16,17,17,16,17,17,17,17,16,17,17,17,17,17,16,17,17,16,17,17,17,16,17,16,17,17,17,16,17,17,17,17,17,16,17,17,17,16,17,17,16,17,17,17,17,17,17,16,17,17,17,17,17,17,17,16,17,17,17,17,16,17,16,16,17,17,16,16,17,16,17,16,17,17,16,17,17,16,17,16,16,17,17,16,17,17,17,16,17],"number_of_frames":120,"aperture_center_x":768,"aperture_center_y":432,"fixation_cross":true,"fixation_cross_width":15,"fixation_cross_height":15,"fixation_cross_color":"#111","fixation_cross_thickness":1,"border":true,"border_thickness":2,"border_color":"transparent","canvas_width":1536,"canvas_height":864,"trial_type":"rdk","trial_index":68,"plugin_version":"2.0.0","time_elapsed":230216},{"rt":3695,"stimulus":"\n        <div class=\"response-container\">\n          <div class=\"response-instruction\">\n            <p>rotate the bar by using the left and right arrow keys.</p>\n            <p>when you are determined, press the Enter key.</p>\n          </div>\n          <div class=\"response-circle\">\n            <div class=\"response-fixation\"></div>\n            <div id=\"bar\" class=\"rotating-bar\"></div>\n          </div>\n        </div>\n      ","response":"Enter","trial_type":"html-keyboard-response","trial_index":69,"plugin_version":"2.1.0","time_elapsed":233911,"random_initial_angle":115,"response_angle_css":78,"response_angle_rdk":12,"angular_error_target":-34,"angular_error_distractor":-147,"target_direction":46,"target_group":"black","reward_points":3},{"rt":null,"stimulus":"\n          <p style=\"color: #00FF00;\">Your reward: 3 points</p>\n        ","response":null,"trial_type":"html-keyboard-response","trial_index":70,"plugin_version":"2.1.0","time_elapsed":235920},{"rt":null,"stimulus":"<div class=\"fixation\" style=\"font-size: 60px;\">+</div>","response":null,"trial_type":"html-keyboard-response","trial_index":71,"plugin_version":"2.1.0","time_elapsed":236928},{"phase":"learning-awareness","target_group":"white","condition_label":"W_H_vs_B_L_rep15","target_direction":337,"distractor_direction":228,"session_rotation":310,"rt":-1,"response":"","correct":false,"choices":"ALL_KEYS","correct_choice":["a"],"trial_duration":2000,"flip_timestamps":[],"response_ends_trial":false,"number_of_apertures":200,"number_of_dots":[1,1,1,1,1,1,1,1,1,1,1,1,1,1,1,1,1,1,1,1,1,1,1,1,1,1,1,1,1,1,1,1,1,1,1,1,1,1,1,1,1,1,1,1,1,1,1,1,1,1,1,1,1,1,1,1,1,1,1,1,1,1,1,1,1,1,1,1,1,1,1,1,1,1,1,1,1,1,1,1,1,1,1,1,1,1,1,1,1,1,1,1,1,1,1,1,1,1,1,1,1,1,1,1,1,1,1,1,1,1,1,1,1,1,1,1,1,1,1,1,1,1,1,1,1,1,1,1,1,1,1,1,1,1,1,1,1,1,1,1,1,1,1,1,1,1,1,1,1,1,1,1,1,1,1,1,1,1,1,1,1,1,1,1,1,1,1,1,1,1,1,1,1,1,1,1,1,1,1,1,1,1,1,1,1,1,1,1,1,1,1,1,1,1,1,1,1,1,1,1],"number_of_sets":1,"coherent_direction":[337,228,228,337,337,228,337,228,337,337,228,228,228,337,228,337,228,228,228,337,337,337,337,337,228,228,228,228,337,337,228,228,228,228,337,228,337,228,337,228,228,337,337,337,337,337,228,337,337,228,228,337,337,228,337,228,337,228,228,228,228,337,337,337,337,337,337,228,337,228,337,337,337,337,228,337,228,337,228,337,337,228,228,228,228,228,228,228,337,228,337,228,228,228,337,337,337,337,337,337,337,228,337,228,228,228,337,228,337,228,228,228,337,228,337,337,337,228,228,337,337,228,228,337,337,337,228,337,228,337,337,337,337,228,228,228,228,337,228,228,228,228,228,337,228,337,337,337,337,228,228,337,337,337,228,337,228,228,228,337,228,228,337,337,228,337,337,337,228,228,228,337,337,228,228,228,337,228,337,228,228,337,337,228,228,228,337,337,228,337,337,337,337,228,228,337,337,228,228,228],"coherence":1,"opposite_coherence":0,"dot_radius":2,"dot_side_length":1,"dot_life":-1,"move_distance":1,"aperture_width":300,"aperture_height":300,"dot_color":["white","black","black","white","white","black","white","black","white","white","black","black","black","white","black","white","black","black","black","white","white","white","white","white","black","black","black","black","white","white","black","black","black","black","white","black","white","black","white","black","black","white","white","white","white","white","black","white","white","black","black","white","white","black","white","black","white","black","black","black","black","white","white","white","white","white","white","black","white","black","white","white","white","white","black","white","black","white","black","white","white","black","black","black","black","black","black","black","white","black","white","black","black","black","white","white","white","white","white","white","white","black","white","black","black","black","white","black","white","black","black","black","white","black","white","white","white","black","black","white","white","black","black","white","white","white","black","white","black","white","white","white","white","black","black","black","black","white","black","black","black","black","black","white","black","white","white","white","white","black","black","white","white","white","black","white","black","black","black","white","black","black","white","white","black","white","white","white","black","black","black","white","white","black","black","black","white","black","white","black","black","white","white","black","black","black","white","white","black","white","white","white","white","black","black","white","white","black","black","black"],"dot_shape":"circle","background_color":"#AAA","RDK_type":3,"aperture_type":2,"reinsert_type":2,"frame_rate":16.628099173553718,"frame_rate_array":[2,17,17,16,18,16,16,17,17,17,17,17,16,17,17,16,17,17,17,16,17,17,16,17,17,17,17,17,17,17,16,17,17,16,17,17,17,17,17,18,16,17,17,17,16,17,17,17,16,17,16,17,16,17,17,16,17,17,17,17,17,17,17,17,17,17,16,17,17,17,16,16,17,17,16,17,17,16,17,17,16,17,17,17,17,16,17,16,17,17,17,16,17,16,17,16,17,17,16,17,17,17,16,16,18,16,17,17,17,16,17,17,17,16,17,17,16,17,17,17,17],"number_of_frames":121,"aperture_center_x":768,"aperture_center_y":432,"fixation_cross":true,"fixation_cross_width":15,"fixation_cross_height":15,"fixation_cross_color":"#111","fixation_cross_thickness":1,"border":true,"border_thickness":2,"border_color":"transparent","canvas_width":1536,"canvas_height":864,"trial_type":"rdk","trial_index":72,"plugin_version":"2.0.0","time_elapsed":238934},{"rt":6200,"stimulus":"\n        <div class=\"response-container\">\n          <div class=\"response-instruction\">\n            <p>rotate the bar by using the left and right arrow keys.</p>\n            <p>when you are determined, press the Enter key.</p>\n          </div>\n          <div class=\"response-circle\">\n            <div class=\"response-fixation\"></div>\n            <div id=\"bar\" class=\"rotating-bar\"></div>\n          </div>\n        </div>\n      ","response":"Enter","trial_type":"html-keyboard-response","trial_index":73,"plugin_version":"2.1.0","time_elapsed":245134,"random_initial_angle":211,"response_angle_css":417,"response_angle_rdk":33,"angular_error_target":56,"angular_error_distractor":165,"target_direction":337,"target_group":"white","reward_points":0},{"rt":null,"stimulus":"\n          <p style=\"color: #FF3333;\">Your reward: 0 points</p>\n        ","response":null,"trial_type":"html-keyboard-response","trial_index":74,"plugin_version":"2.1.0","time_elapsed":247136},{"rt":null,"stimulus":"<div class=\"fixation\" style=\"font-size: 60px;\">+</div>","response":null,"trial_type":"html-keyboard-response","trial_index":75,"plugin_version":"2.1.0","time_elapsed":248145},{"phase":"learning-awareness","target_group":"white","condition_label":"W_H_vs_B_L_rep16","target_direction":354,"distractor_direction":220,"session_rotation":310,"rt":-1,"response":"","correct":false,"choices":"ALL_KEYS","correct_choice":["a"],"trial_duration":2000,"flip_timestamps":[],"response_ends_trial":false,"number_of_apertures":200,"number_of_dots":[1,1,1,1,1,1,1,1,1,1,1,1,1,1,1,1,1,1,1,1,1,1,1,1,1,1,1,1,1,1,1,1,1,1,1,1,1,1,1,1,1,1,1,1,1,1,1,1,1,1,1,1,1,1,1,1,1,1,1,1,1,1,1,1,1,1,1,1,1,1,1,1,1,1,1,1,1,1,1,1,1,1,1,1,1,1,1,1,1,1,1,1,1,1,1,1,1,1,1,1,1,1,1,1,1,1,1,1,1,1,1,1,1,1,1,1,1,1,1,1,1,1,1,1,1,1,1,1,1,1,1,1,1,1,1,1,1,1,1,1,1,1,1,1,1,1,1,1,1,1,1,1,1,1,1,1,1,1,1,1,1,1,1,1,1,1,1,1,1,1,1,1,1,1,1,1,1,1,1,1,1,1,1,1,1,1,1,1,1,1,1,1,1,1,1,1,1,1,1,1],"number_of_sets":1,"coherent_direction":[354,354,354,354,354,220,354,354,220,220,354,220,354,354,354,220,220,354,220,220,220,354,354,354,220,354,354,220,354,354,354,354,220,220,354,354,220,220,354,220,220,220,354,220,354,354,220,220,220,220,220,354,354,354,220,354,220,220,220,354,354,220,220,220,354,354,220,220,354,354,354,220,354,220,354,220,354,354,354,354,220,220,220,220,354,354,220,354,354,354,220,220,220,354,220,220,354,354,354,220,354,220,354,354,220,354,354,220,220,220,220,220,354,220,220,220,354,220,220,220,220,354,354,220,220,220,220,354,220,354,220,220,220,354,220,354,220,354,354,220,220,220,354,220,220,220,354,220,220,354,354,220,354,220,354,220,220,354,354,354,220,354,220,354,220,220,354,354,354,220,354,354,354,220,354,220,220,220,354,220,354,220,354,220,354,220,354,354,220,354,220,220,354,354,354,354,354,354,220,354],"coherence":1,"opposite_coherence":0,"dot_radius":2,"dot_side_length":1,"dot_life":-1,"move_distance":1,"aperture_width":300,"aperture_height":300,"dot_color":["white","white","white","white","white","black","white","white","black","black","white","black","white","white","white","black","black","white","black","black","black","white","white","white","black","white","white","black","white","white","white","white","black","black","white","white","black","black","white","black","black","black","white","black","white","white","black","black","black","black","black","white","white","white","black","white","black","black","black","white","white","black","black","black","white","white","black","black","white","white","white","black","white","black","white","black","white","white","white","white","black","black","black","black","white","white","black","white","white","white","black","black","black","white","black","black","white","white","white","black","white","black","white","white","black","white","white","black","black","black","black","black","white","black","black","black","white","black","black","black","black","white","white","black","black","black","black","white","black","white","black","black","black","white","black","white","black","white","white","black","black","black","white","black","black","black","white","black","black","white","white","black","white","black","white","black","black","white","white","white","black","white","black","white","black","black","white","white","white","black","white","white","white","black","white","black","black","black","white","black","white","black","white","black","white","black","white","white","black","white","black","black","white","white","white","white","white","white","black","white"],"dot_shape":"circle","background_color":"#AAA","RDK_type":3,"aperture_type":2,"reinsert_type":2,"frame_rate":16.591666666666665,"frame_rate_array":[2,17,17,17,17,17,17,17,17,16,17,17,16,17,17,16,17,17,16,17,16,17,16,17,17,17,16,17,16,17,17,17,17,17,16,17,17,16,17,17,17,16,17,16,17,16,17,17,16,17,17,17,17,16,17,16,17,17,17,16,17,17,17,17,16,17,17,16,17,17,16,16,18,16,17,16,18,16,16,17,17,17,17,16,17,17,16,17,17,16,17,16,18,17,17,17,16,18,16,17,17,17,16,18,17,16,16,17,16,17,17,16,17,17,16,16,17,17,17,16],"number_of_frames":120,"aperture_center_x":768,"aperture_center_y":432,"fixation_cross":true,"fixation_cross_width":15,"fixation_cross_height":15,"fixation_cross_color":"#111","fixation_cross_thickness":1,"border":true,"border_thickness":2,"border_color":"transparent","canvas_width":1536,"canvas_height":864,"trial_type":"rdk","trial_index":76,"plugin_version":"2.0.0","time_elapsed":250149},{"rt":1327,"stimulus":"\n        <div class=\"response-container\">\n          <div class=\"response-instruction\">\n            <p>rotate the bar by using the left and right arrow keys.</p>\n            <p>when you are determined, press the Enter key.</p>\n          </div>\n          <div class=\"response-circle\">\n            <div class=\"response-fixation\"></div>\n            <div id=\"bar\" class=\"rotating-bar\"></div>\n          </div>\n        </div>\n      ","response":"Enter","trial_type":"html-keyboard-response","trial_index":77,"plugin_version":"2.1.0","time_elapsed":251477,"random_initial_angle":257,"response_angle_css":257,"response_angle_rdk":193,"angular_error_target":-161,"angular_error_distractor":-27,"target_direction":354,"target_group":"white","reward_points":0},{"rt":null,"stimulus":"\n          <p style=\"color: #FF3333;\">Your reward: 0 points</p>\n        ","response":null,"trial_type":"html-keyboard-response","trial_index":78,"plugin_version":"2.1.0","time_elapsed":253486},{"rt":null,"stimulus":"<div class=\"fixation\" style=\"font-size: 60px;\">+</div>","response":null,"trial_type":"html-keyboard-response","trial_index":79,"plugin_version":"2.1.0","time_elapsed":254488},{"phase":"learning-awareness","target_group":"black","condition_label":"B_H_vs_W_L_rep15","target_direction":46,"distractor_direction":145,"session_rotation":310,"rt":-1,"response":"","correct":false,"choices":"ALL_KEYS","correct_choice":["a"],"trial_duration":2000,"flip_timestamps":[],"response_ends_trial":false,"number_of_apertures":200,"number_of_dots":[1,1,1,1,1,1,1,1,1,1,1,1,1,1,1,1,1,1,1,1,1,1,1,1,1,1,1,1,1,1,1,1,1,1,1,1,1,1,1,1,1,1,1,1,1,1,1,1,1,1,1,1,1,1,1,1,1,1,1,1,1,1,1,1,1,1,1,1,1,1,1,1,1,1,1,1,1,1,1,1,1,1,1,1,1,1,1,1,1,1,1,1,1,1,1,1,1,1,1,1,1,1,1,1,1,1,1,1,1,1,1,1,1,1,1,1,1,1,1,1,1,1,1,1,1,1,1,1,1,1,1,1,1,1,1,1,1,1,1,1,1,1,1,1,1,1,1,1,1,1,1,1,1,1,1,1,1,1,1,1,1,1,1,1,1,1,1,1,1,1,1,1,1,1,1,1,1,1,1,1,1,1,1,1,1,1,1,1,1,1,1,1,1,1,1,1,1,1,1,1],"number_of_sets":1,"coherent_direction":[145,46,46,145,46,46,46,46,46,145,145,46,46,46,46,46,145,145,145,46,145,145,46,46,145,145,145,46,46,145,46,145,46,145,46,46,145,145,145,145,145,145,145,46,46,145,46,46,145,46,145,145,145,46,46,145,145,46,46,46,145,46,46,145,145,145,46,46,46,145,46,145,145,46,145,46,46,145,145,46,46,46,145,145,145,46,46,145,46,46,46,46,145,145,145,145,145,46,46,46,46,145,46,46,46,46,145,46,46,145,145,145,145,46,145,46,46,46,46,46,145,46,46,145,46,145,145,46,145,46,145,145,145,145,145,145,46,145,46,46,46,46,46,145,145,46,46,145,46,145,46,46,145,145,145,145,145,145,145,46,46,145,145,145,46,46,46,46,145,145,46,145,46,145,145,145,145,145,46,145,46,145,46,46,145,145,46,145,145,145,145,145,145,46,46,46,145,46,46,46],"coherence":1,"opposite_coherence":0,"dot_radius":2,"dot_side_length":1,"dot_life":-1,"move_distance":1,"aperture_width":300,"aperture_height":300,"dot_color":["white","black","black","white","black","black","black","black","black","white","white","black","black","black","black","black","white","white","white","black","white","white","black","black","white","white","white","black","black","white","black","white","black","white","black","black","white","white","white","white","white","white","white","black","black","white","black","black","white","black","white","white","white","black","black","white","white","black","black","black","white","black","black","white","white","white","black","black","black","white","black","white","white","black","white","black","black","white","white","black","black","black","white","white","white","black","black","white","black","black","black","black","white","white","white","white","white","black","black","black","black","white","black","black","black","black","white","black","black","white","white","white","white","black","white","black","black","black","black","black","white","black","black","white","black","white","white","black","white","black","white","white","white","white","white","white","black","white","black","black","black","black","black","white","white","black","black","white","black","white","black","black","white","white","white","white","white","white","white","black","black","white","white","white","black","black","black","black","white","white","black","white","black","white","white","white","white","white","black","white","black","white","black","black","white","white","black","white","white","white","white","white","white","black","black","black","white","black","black","black"],"dot_shape":"circle","background_color":"#AAA","RDK_type":3,"aperture_type":2,"reinsert_type":2,"frame_rate":16.675,"frame_rate_array":[9,17,17,17,16,17,17,16,17,16,17,17,16,17,17,16,17,17,17,17,17,17,16,17,17,17,16,17,17,16,17,17,17,17,17,16,17,16,17,17,17,17,16,17,16,17,17,17,16,17,16,17,17,16,17,17,16,17,17,17,17,16,17,16,17,18,16,17,17,17,17,16,17,17,17,16,17,17,16,17,17,17,17,16,17,17,16,17,17,16,17,17,17,17,17,17,16,17,17,17,16,17,17,17,17,16,17,17,16,17,17,16,17,17,16,16,18,17,17,16],"number_of_frames":120,"aperture_center_x":768,"aperture_center_y":432,"fixation_cross":true,"fixation_cross_width":15,"fixation_cross_height":15,"fixation_cross_color":"#111","fixation_cross_thickness":1,"border":true,"border_thickness":2,"border_color":"transparent","canvas_width":1536,"canvas_height":864,"trial_type":"rdk","trial_index":80,"plugin_version":"2.0.0","time_elapsed":256499},{"rt":6483,"stimulus":"\n        <div class=\"response-container\">\n          <div class=\"response-instruction\">\n            <p>rotate the bar by using the left and right arrow keys.</p>\n            <p>when you are determined, press the Enter key.</p>\n          </div>\n          <div class=\"response-circle\">\n            <div class=\"response-fixation\"></div>\n            <div id=\"bar\" class=\"rotating-bar\"></div>\n          </div>\n        </div>\n      ","response":"Enter","trial_type":"html-keyboard-response","trial_index":81,"plugin_version":"2.1.0","time_elapsed":262984,"random_initial_angle":123,"response_angle_css":31,"response_angle_rdk":59,"angular_error_target":13,"angular_error_distractor":-86,"target_direction":46,"target_group":"black","reward_points":7},{"rt":null,"stimulus":"\n          <p style=\"color: #00FF00;\">Your reward: 7 points</p>\n        ","response":null,"trial_type":"html-keyboard-response","trial_index":82,"plugin_version":"2.1.0","time_elapsed":264993},{"rt":null,"stimulus":"<div class=\"fixation\" style=\"font-size: 60px;\">+</div>","response":null,"trial_type":"html-keyboard-response","trial_index":83,"plugin_version":"2.1.0","time_elapsed":266010},{"phase":"learning-awareness","target_group":"black","condition_label":"B_H_vs_W_L_rep21","target_direction":41,"distractor_direction":157,"session_rotation":310,"rt":-1,"response":"","correct":false,"choices":"ALL_KEYS","correct_choice":["a"],"trial_duration":2000,"flip_timestamps":[],"response_ends_trial":false,"number_of_apertures":200,"number_of_dots":[1,1,1,1,1,1,1,1,1,1,1,1,1,1,1,1,1,1,1,1,1,1,1,1,1,1,1,1,1,1,1,1,1,1,1,1,1,1,1,1,1,1,1,1,1,1,1,1,1,1,1,1,1,1,1,1,1,1,1,1,1,1,1,1,1,1,1,1,1,1,1,1,1,1,1,1,1,1,1,1,1,1,1,1,1,1,1,1,1,1,1,1,1,1,1,1,1,1,1,1,1,1,1,1,1,1,1,1,1,1,1,1,1,1,1,1,1,1,1,1,1,1,1,1,1,1,1,1,1,1,1,1,1,1,1,1,1,1,1,1,1,1,1,1,1,1,1,1,1,1,1,1,1,1,1,1,1,1,1,1,1,1,1,1,1,1,1,1,1,1,1,1,1,1,1,1,1,1,1,1,1,1,1,1,1,1,1,1,1,1,1,1,1,1,1,1,1,1,1,1],"number_of_sets":1,"coherent_direction":[41,41,157,157,157,41,157,157,157,41,41,41,157,41,41,41,157,157,157,41,157,157,41,41,41,41,41,41,157,157,41,41,157,41,157,41,157,41,41,157,157,157,41,41,41,41,157,157,157,41,41,41,41,157,157,41,157,157,157,41,41,157,41,41,157,157,41,41,41,41,157,41,41,157,41,41,41,157,41,157,157,157,157,157,41,157,157,41,41,41,41,157,157,157,157,41,157,157,41,157,41,41,157,41,157,157,41,157,157,41,157,157,157,157,41,157,41,41,157,41,157,41,157,157,157,157,157,157,41,157,157,41,157,157,157,157,157,157,41,41,157,41,157,41,41,157,41,41,157,157,41,157,157,41,41,157,157,157,157,41,41,41,41,41,157,41,157,157,41,41,41,157,157,41,157,41,41,157,41,41,41,41,41,157,41,157,41,157,41,41,41,157,157,157,41,157,41,41,41,157],"coherence":1,"opposite_coherence":0,"dot_radius":2,"dot_side_length":1,"dot_life":-1,"move_distance":1,"aperture_width":300,"aperture_height":300,"dot_color":["black","black","white","white","white","black","white","white","white","black","black","black","white","black","black","black","white","white","white","black","white","white","black","black","black","black","black","black","white","white","black","black","white","black","white","black","white","black","black","white","white","white","black","black","black","black","white","white","white","black","black","black","black","white","white","black","white","white","white","black","black","white","black","black","white","white","black","black","black","black","white","black","black","white","black","black","black","white","black","white","white","white","white","white","black","white","white","black","black","black","black","white","white","white","white","black","white","white","black","white","black","black","white","black","white","white","black","white","white","black","white","white","white","white","black","white","black","black","white","black","white","black","white","white","white","white","white","white","black","white","white","black","white","white","white","white","white","white","black","black","white","black","white","black","black","white","black","black","white","white","black","white","white","black","black","white","white","white","white","black","black","black","black","black","white","black","white","white","black","black","black","white","white","black","white","black","black","white","black","black","black","black","black","white","black","white","black","white","black","black","black","white","white","white","black","white","black","black","black","white"],"dot_shape":"circle","background_color":"#AAA","RDK_type":3,"aperture_type":2,"reinsert_type":2,"frame_rate":16.58677685950413,"frame_rate_array":[4,17,17,17,16,17,17,16,18,16,17,17,16,16,18,16,17,16,17,17,16,17,17,16,17,17,17,16,17,17,17,16,17,17,16,17,16,17,17,17,17,17,16,17,16,17,16,17,17,17,16,17,17,16,17,17,16,18,17,16,17,16,16,17,17,17,17,16,17,16,17,17,16,17,17,16,16,17,16,17,17,17,17,16,17,17,16,17,17,17,17,17,17,16,17,16,16,17,16,17,17,17,16,17,17,17,17,16,17,17,17,17,16,17,17,17,16,16,17,17,16],"number_of_frames":121,"aperture_center_x":768,"aperture_center_y":432,"fixation_cross":true,"fixation_cross_width":15,"fixation_cross_height":15,"fixation_cross_color":"#111","fixation_cross_thickness":1,"border":true,"border_thickness":2,"border_color":"transparent","canvas_width":1536,"canvas_height":864,"trial_type":"rdk","trial_index":84,"plugin_version":"2.0.0","time_elapsed":268018},{"rt":4544,"stimulus":"\n        <div class=\"response-container\">\n          <div class=\"response-instruction\">\n            <p>rotate the bar by using the left and right arrow keys.</p>\n            <p>when you are determined, press the Enter key.</p>\n          </div>\n          <div class=\"response-circle\">\n            <div class=\"response-fixation\"></div>\n            <div id=\"bar\" class=\"rotating-bar\"></div>\n          </div>\n        </div>\n      ","response":"Enter","trial_type":"html-keyboard-response","trial_index":85,"plugin_version":"2.1.0","time_elapsed":272563,"random_initial_angle":157,"response_angle_css":52,"response_angle_rdk":38,"angular_error_target":-3,"angular_error_distractor":-119,"target_direction":41,"target_group":"black","reward_points":9},{"rt":null,"stimulus":"\n          <p style=\"color: #00FF00;\">Your reward: 9 points</p>\n        ","response":null,"trial_type":"html-keyboard-response","trial_index":86,"plugin_version":"2.1.0","time_elapsed":274573},{"rt":null,"stimulus":"<div class=\"fixation\" style=\"font-size: 60px;\">+</div>","response":null,"trial_type":"html-keyboard-response","trial_index":87,"plugin_version":"2.1.0","time_elapsed":275580},{"phase":"learning-awareness","target_group":"white","condition_label":"W_H_vs_B_L_rep14","target_direction":349,"distractor_direction":259,"session_rotation":310,"rt":-1,"response":"","correct":false,"choices":"ALL_KEYS","correct_choice":["a"],"trial_duration":2000,"flip_timestamps":[],"response_ends_trial":false,"number_of_apertures":200,"number_of_dots":[1,1,1,1,1,1,1,1,1,1,1,1,1,1,1,1,1,1,1,1,1,1,1,1,1,1,1,1,1,1,1,1,1,1,1,1,1,1,1,1,1,1,1,1,1,1,1,1,1,1,1,1,1,1,1,1,1,1,1,1,1,1,1,1,1,1,1,1,1,1,1,1,1,1,1,1,1,1,1,1,1,1,1,1,1,1,1,1,1,1,1,1,1,1,1,1,1,1,1,1,1,1,1,1,1,1,1,1,1,1,1,1,1,1,1,1,1,1,1,1,1,1,1,1,1,1,1,1,1,1,1,1,1,1,1,1,1,1,1,1,1,1,1,1,1,1,1,1,1,1,1,1,1,1,1,1,1,1,1,1,1,1,1,1,1,1,1,1,1,1,1,1,1,1,1,1,1,1,1,1,1,1,1,1,1,1,1,1,1,1,1,1,1,1,1,1,1,1,1,1],"number_of_sets":1,"coherent_direction":[259,349,259,349,349,349,349,349,259,259,349,259,259,259,259,259,259,349,349,349,349,349,349,259,349,349,259,349,259,349,349,259,259,349,259,349,259,259,349,349,259,259,349,259,349,349,349,349,349,259,349,349,259,259,259,349,259,349,259,349,259,259,259,259,259,259,259,349,259,259,259,259,349,259,349,349,349,349,349,349,259,259,259,259,349,349,259,259,349,259,259,259,349,259,349,259,349,349,349,349,259,349,349,349,259,259,349,349,259,259,259,349,349,349,259,259,349,259,349,349,259,259,349,259,259,259,349,349,259,349,259,349,259,349,349,349,349,259,259,259,259,259,259,349,349,349,259,349,349,259,259,259,259,259,349,349,349,259,349,349,349,349,349,259,349,259,349,349,259,349,349,259,349,259,259,259,259,259,259,349,349,349,349,259,259,259,259,349,259,259,349,349,259,259,349,349,349,349,259,259],"coherence":1,"opposite_coherence":0,"dot_radius":2,"dot_side_length":1,"dot_life":-1,"move_distance":1,"aperture_width":300,"aperture_height":300,"dot_color":["black","white","black","white","white","white","white","white","black","black","white","black","black","black","black","black","black","white","white","white","white","white","white","black","white","white","black","white","black","white","white","black","black","white","black","white","black","black","white","white","black","black","white","black","white","white","white","white","white","black","white","white","black","black","black","white","black","white","black","white","black","black","black","black","black","black","black","white","black","black","black","black","white","black","white","white","white","white","white","white","black","black","black","black","white","white","black","black","white","black","black","black","white","black","white","black","white","white","white","white","black","white","white","white","black","black","white","white","black","black","black","white","white","white","black","black","white","black","white","white","black","black","white","black","black","black","white","white","black","white","black","white","black","white","white","white","white","black","black","black","black","black","black","white","white","white","black","white","white","black","black","black","black","black","white","white","white","black","white","white","white","white","white","black","white","black","white","white","black","white","white","black","white","black","black","black","black","black","black","white","white","white","white","black","black","black","black","white","black","black","white","white","black","black","white","white","white","white","black","black"],"dot_shape":"circle","background_color":"#AAA","RDK_type":3,"aperture_type":2,"reinsert_type":2,"frame_rate":16.683333333333334,"frame_rate_array":[2,17,17,17,17,17,17,16,17,17,17,16,17,16,17,17,17,17,17,17,17,17,17,17,17,17,16,17,17,18,15,17,17,17,17,16,17,17,17,17,17,17,17,17,17,17,17,16,16,17,17,17,17,17,16,17,17,17,17,17,16,17,17,17,17,16,17,17,16,17,17,17,16,17,17,17,17,16,17,16,17,17,16,17,17,17,17,16,17,17,17,17,17,16,17,17,17,17,17,16,16,17,17,17,17,17,17,17,17,16,17,17,16,17,17,16,17,17,17,17],"number_of_frames":120,"aperture_center_x":768,"aperture_center_y":432,"fixation_cross":true,"fixation_cross_width":15,"fixation_cross_height":15,"fixation_cross_color":"#111","fixation_cross_thickness":1,"border":true,"border_thickness":2,"border_color":"transparent","canvas_width":1536,"canvas_height":864,"trial_type":"rdk","trial_index":88,"plugin_version":"2.0.0","time_elapsed":277583},{"rt":6317,"stimulus":"\n        <div class=\"response-container\">\n          <div class=\"response-instruction\">\n            <p>rotate the bar by using the left and right arrow keys.</p>\n            <p>when you are determined, press the Enter key.</p>\n          </div>\n          <div class=\"response-circle\">\n            <div class=\"response-fixation\"></div>\n            <div id=\"bar\" class=\"rotating-bar\"></div>\n          </div>\n        </div>\n      ","response":"Enter","trial_type":"html-keyboard-response","trial_index":89,"plugin_version":"2.1.0","time_elapsed":283901,"random_initial_angle":206,"response_angle_css":259,"response_angle_rdk":191,"angular_error_target":-158,"angular_error_distractor":-68,"target_direction":349,"target_group":"white","reward_points":0},{"rt":null,"stimulus":"\n          <p style=\"color: #FF3333;\">Your reward: 0 points</p>\n        ","response":null,"trial_type":"html-keyboard-response","trial_index":90,"plugin_version":"2.1.0","time_elapsed":285905},{"rt":null,"stimulus":"<div class=\"fixation\" style=\"font-size: 60px;\">+</div>","response":null,"trial_type":"html-keyboard-response","trial_index":91,"plugin_version":"2.1.0","time_elapsed":286915},{"phase":"learning-awareness","target_group":"black","condition_label":"B_H_vs_W_L_rep4","target_direction":48,"distractor_direction":147,"session_rotation":310,"rt":-1,"response":"","correct":false,"choices":"ALL_KEYS","correct_choice":["a"],"trial_duration":2000,"flip_timestamps":[],"response_ends_trial":false,"number_of_apertures":200,"number_of_dots":[1,1,1,1,1,1,1,1,1,1,1,1,1,1,1,1,1,1,1,1,1,1,1,1,1,1,1,1,1,1,1,1,1,1,1,1,1,1,1,1,1,1,1,1,1,1,1,1,1,1,1,1,1,1,1,1,1,1,1,1,1,1,1,1,1,1,1,1,1,1,1,1,1,1,1,1,1,1,1,1,1,1,1,1,1,1,1,1,1,1,1,1,1,1,1,1,1,1,1,1,1,1,1,1,1,1,1,1,1,1,1,1,1,1,1,1,1,1,1,1,1,1,1,1,1,1,1,1,1,1,1,1,1,1,1,1,1,1,1,1,1,1,1,1,1,1,1,1,1,1,1,1,1,1,1,1,1,1,1,1,1,1,1,1,1,1,1,1,1,1,1,1,1,1,1,1,1,1,1,1,1,1,1,1,1,1,1,1,1,1,1,1,1,1,1,1,1,1,1,1],"number_of_sets":1,"coherent_direction":[48,48,147,48,147,147,48,147,48,48,48,48,48,48,147,48,48,48,48,48,147,147,48,48,48,147,147,147,48,147,147,147,147,48,147,147,147,48,48,48,48,147,48,147,147,48,48,48,48,48,48,147,147,147,147,147,48,48,48,48,147,48,147,147,147,147,48,48,48,147,147,147,147,147,147,48,147,48,48,48,147,147,48,48,48,147,48,48,147,147,147,48,48,48,147,147,147,48,147,48,147,147,48,48,147,48,147,147,147,147,147,48,48,147,147,147,48,48,147,48,147,147,147,48,147,147,147,147,48,48,48,147,147,147,48,48,48,147,147,147,48,48,147,48,147,48,147,147,48,48,48,147,147,48,147,48,147,48,147,48,147,48,48,48,147,48,48,48,48,48,147,147,48,147,147,147,48,147,48,48,147,48,147,48,48,147,147,147,147,147,48,48,147,48,147,147,147,48,48,48],"coherence":1,"opposite_coherence":0,"dot_radius":2,"dot_side_length":1,"dot_life":-1,"move_distance":1,"aperture_width":300,"aperture_height":300,"dot_color":["black","black","white","black","white","white","black","white","black","black","black","black","black","black","white","black","black","black","black","black","white","white","black","black","black","white","white","white","black","white","white","white","white","black","white","white","white","black","black","black","black","white","black","white","white","black","black","black","black","black","black","white","white","white","white","white","black","black","black","black","white","black","white","white","white","white","black","black","black","white","white","white","white","white","white","black","white","black","black","black","white","white","black","black","black","white","black","black","white","white","white","black","black","black","white","white","white","black","white","black","white","white","black","black","white","black","white","white","white","white","white","black","black","white","white","white","black","black","white","black","white","white","white","black","white","white","white","white","black","black","black","white","white","white","black","black","black","white","white","white","black","black","white","black","white","black","white","white","black","black","black","white","white","black","white","black","white","black","white","black","white","black","black","black","white","black","black","black","black","black","white","white","black","white","white","white","black","white","black","black","white","black","white","black","black","white","white","white","white","white","black","black","white","black","white","white","white","black","black","black"],"dot_shape":"circle","background_color":"#AAA","RDK_type":3,"aperture_type":2,"reinsert_type":2,"frame_rate":16.789915966386555,"frame_rate_array":[18,16,17,17,17,17,16,17,17,17,17,16,17,17,18,16,17,17,17,17,16,17,17,17,16,17,17,17,17,16,17,16,17,17,16,17,16,17,17,17,17,17,17,17,16,17,17,17,17,17,16,17,16,17,17,16,17,17,17,17,17,17,17,16,17,17,17,17,16,17,17,16,16,17,17,17,16,17,16,17,17,17,17,16,17,17,16,17,17,16,17,17,17,17,16,17,17,17,17,17,17,17,17,17,17,17,16,17,17,17,17,17,17,16,17,17,16,17,17],"number_of_frames":119,"aperture_center_x":768,"aperture_center_y":432,"fixation_cross":true,"fixation_cross_width":15,"fixation_cross_height":15,"fixation_cross_color":"#111","fixation_cross_thickness":1,"border":true,"border_thickness":2,"border_color":"transparent","canvas_width":1536,"canvas_height":864,"trial_type":"rdk","trial_index":92,"plugin_version":"2.0.0","time_elapsed":288917},{"rt":6151,"stimulus":"\n        <div class=\"response-container\">\n          <div class=\"response-instruction\">\n            <p>rotate the bar by using the left and right arrow keys.</p>\n            <p>when you are determined, press the Enter key.</p>\n          </div>\n          <div class=\"response-circle\">\n            <div class=\"response-fixation\"></div>\n            <div id=\"bar\" class=\"rotating-bar\"></div>\n          </div>\n        </div>\n      ","response":"Enter","trial_type":"html-keyboard-response","trial_index":93,"plugin_version":"2.1.0","time_elapsed":295069,"random_initial_angle":252,"response_angle_css":61,"response_angle_rdk":29,"angular_error_target":-19,"angular_error_distractor":-118,"target_direction":48,"target_group":"black","reward_points":6},{"rt":null,"stimulus":"\n          <p style=\"color: #00FF00;\">Your reward: 6 points</p>\n        ","response":null,"trial_type":"html-keyboard-response","trial_index":94,"plugin_version":"2.1.0","time_elapsed":297080},{"rt":null,"stimulus":"<div class=\"fixation\" style=\"font-size: 60px;\">+</div>","response":null,"trial_type":"html-keyboard-response","trial_index":95,"plugin_version":"2.1.0","time_elapsed":298095},{"phase":"learning-awareness","target_group":"black","condition_label":"B_H_vs_W_L_rep23","target_direction":72,"distractor_direction":174,"session_rotation":310,"rt":-1,"response":"","correct":false,"choices":"ALL_KEYS","correct_choice":["a"],"trial_duration":2000,"flip_timestamps":[],"response_ends_trial":false,"number_of_apertures":200,"number_of_dots":[1,1,1,1,1,1,1,1,1,1,1,1,1,1,1,1,1,1,1,1,1,1,1,1,1,1,1,1,1,1,1,1,1,1,1,1,1,1,1,1,1,1,1,1,1,1,1,1,1,1,1,1,1,1,1,1,1,1,1,1,1,1,1,1,1,1,1,1,1,1,1,1,1,1,1,1,1,1,1,1,1,1,1,1,1,1,1,1,1,1,1,1,1,1,1,1,1,1,1,1,1,1,1,1,1,1,1,1,1,1,1,1,1,1,1,1,1,1,1,1,1,1,1,1,1,1,1,1,1,1,1,1,1,1,1,1,1,1,1,1,1,1,1,1,1,1,1,1,1,1,1,1,1,1,1,1,1,1,1,1,1,1,1,1,1,1,1,1,1,1,1,1,1,1,1,1,1,1,1,1,1,1,1,1,1,1,1,1,1,1,1,1,1,1,1,1,1,1,1,1],"number_of_sets":1,"coherent_direction":[72,174,72,72,174,174,174,174,72,72,174,174,174,174,174,174,174,174,174,174,72,174,174,72,174,72,72,72,72,174,72,72,174,174,72,174,72,72,72,174,174,72,72,72,174,72,174,174,72,174,174,72,174,72,174,72,72,72,174,72,174,72,174,174,174,72,72,72,174,174,72,72,174,174,174,174,174,174,174,72,72,174,72,72,72,174,174,72,72,72,72,72,174,174,174,174,174,72,72,72,72,72,174,174,72,72,72,72,72,174,72,72,72,174,72,72,174,72,72,174,72,174,72,174,72,72,72,174,72,174,72,72,174,174,174,72,174,174,72,174,72,72,72,174,174,174,72,174,174,174,174,72,174,174,72,72,174,72,174,72,174,72,174,174,72,174,174,174,72,174,72,72,72,174,72,72,72,174,174,72,174,72,72,72,174,72,72,72,174,174,72,174,174,174,174,72,174,174,72,72],"coherence":1,"opposite_coherence":0,"dot_radius":2,"dot_side_length":1,"dot_life":-1,"move_distance":1,"aperture_width":300,"aperture_height":300,"dot_color":["black","white","black","black","white","white","white","white","black","black","white","white","white","white","white","white","white","white","white","white","black","white","white","black","white","black","black","black","black","white","black","black","white","white","black","white","black","black","black","white","white","black","black","black","white","black","white","white","black","white","white","black","white","black","white","black","black","black","white","black","white","black","white","white","white","black","black","black","white","white","black","black","white","white","white","white","white","white","white","black","black","white","black","black","black","white","white","black","black","black","black","black","white","white","white","white","white","black","black","black","black","black","white","white","black","black","black","black","black","white","black","black","black","white","black","black","white","black","black","white","black","white","black","white","black","black","black","white","black","white","black","black","white","white","white","black","white","white","black","white","black","black","black","white","white","white","black","white","white","white","white","black","white","white","black","black","white","black","white","black","white","black","white","white","black","white","white","white","black","white","black","black","black","white","black","black","black","white","white","black","white","black","black","black","white","black","black","black","white","white","black","white","white","white","white","black","white","white","black","black"],"dot_shape":"circle","background_color":"#AAA","RDK_type":3,"aperture_type":2,"reinsert_type":2,"frame_rate":16.608333333333334,"frame_rate_array":[4,17,17,17,17,16,17,17,16,17,17,16,17,16,17,17,16,16,17,17,17,16,17,16,17,17,17,17,17,17,16,17,17,17,17,16,17,17,17,16,17,16,17,17,16,17,16,17,16,18,17,17,16,17,16,17,17,16,17,17,16,17,17,17,16,17,17,17,16,17,17,17,17,17,17,17,16,17,17,16,17,17,16,17,16,17,17,16,17,17,16,17,17,16,17,17,17,16,17,17,17,16,17,16,17,17,16,17,17,17,17,15,18,17,17,16,17,16,17,17],"number_of_frames":120,"aperture_center_x":768,"aperture_center_y":432,"fixation_cross":true,"fixation_cross_width":15,"fixation_cross_height":15,"fixation_cross_color":"#111","fixation_cross_thickness":1,"border":true,"border_thickness":2,"border_color":"transparent","canvas_width":1536,"canvas_height":864,"trial_type":"rdk","trial_index":96,"plugin_version":"2.0.0","time_elapsed":300101},{"rt":1013,"stimulus":"\n        <div class=\"response-container\">\n          <div class=\"response-instruction\">\n            <p>rotate the bar by using the left and right arrow keys.</p>\n            <p>when you are determined, press the Enter key.</p>\n          </div>\n          <div class=\"response-circle\">\n            <div class=\"response-fixation\"></div>\n            <div id=\"bar\" class=\"rotating-bar\"></div>\n          </div>\n        </div>\n      ","response":"Enter","trial_type":"html-keyboard-response","trial_index":97,"plugin_version":"2.1.0","time_elapsed":301115,"random_initial_angle":47,"response_angle_css":47,"response_angle_rdk":43,"angular_error_target":-29,"angular_error_distractor":-131,"target_direction":72,"target_group":"black","reward_points":4},{"rt":null,"stimulus":"\n          <p style=\"color: #00FF00;\">Your reward: 4 points</p>\n        ","response":null,"trial_type":"html-keyboard-response","trial_index":98,"plugin_version":"2.1.0","time_elapsed":303119},{"rt":null,"stimulus":"<div class=\"fixation\" style=\"font-size: 60px;\">+</div>","response":null,"trial_type":"html-keyboard-response","trial_index":99,"plugin_version":"2.1.0","time_elapsed":304133},{"phase":"learning-awareness","target_group":"black","condition_label":"B_H_vs_W_L_rep8","target_direction":48,"distractor_direction":162,"session_rotation":310,"rt":-1,"response":"","correct":false,"choices":"ALL_KEYS","correct_choice":["a"],"trial_duration":2000,"flip_timestamps":[],"response_ends_trial":false,"number_of_apertures":200,"number_of_dots":[1,1,1,1,1,1,1,1,1,1,1,1,1,1,1,1,1,1,1,1,1,1,1,1,1,1,1,1,1,1,1,1,1,1,1,1,1,1,1,1,1,1,1,1,1,1,1,1,1,1,1,1,1,1,1,1,1,1,1,1,1,1,1,1,1,1,1,1,1,1,1,1,1,1,1,1,1,1,1,1,1,1,1,1,1,1,1,1,1,1,1,1,1,1,1,1,1,1,1,1,1,1,1,1,1,1,1,1,1,1,1,1,1,1,1,1,1,1,1,1,1,1,1,1,1,1,1,1,1,1,1,1,1,1,1,1,1,1,1,1,1,1,1,1,1,1,1,1,1,1,1,1,1,1,1,1,1,1,1,1,1,1,1,1,1,1,1,1,1,1,1,1,1,1,1,1,1,1,1,1,1,1,1,1,1,1,1,1,1,1,1,1,1,1,1,1,1,1,1,1],"number_of_sets":1,"coherent_direction":[162,162,162,48,48,48,48,48,48,162,48,48,48,162,162,162,48,162,48,162,162,162,48,162,162,48,162,48,48,48,48,162,48,48,162,162,162,162,162,162,48,162,162,48,162,48,162,48,162,48,48,48,162,48,162,48,162,162,48,48,162,162,162,48,162,162,162,162,162,162,162,48,48,162,48,162,162,162,48,162,48,162,162,162,48,48,162,48,48,48,162,48,162,48,162,48,162,162,48,48,162,48,162,162,48,48,162,162,48,162,48,162,162,48,162,48,48,162,162,162,48,162,48,162,48,48,162,48,48,162,162,48,48,48,48,162,48,48,48,162,162,162,48,162,48,162,48,48,48,48,48,48,162,162,48,48,162,162,48,48,48,48,48,162,48,162,48,48,48,48,162,162,48,162,48,48,162,162,48,48,162,162,162,162,48,162,48,48,48,162,162,48,162,48,48,162,48,162,162,162],"coherence":1,"opposite_coherence":0,"dot_radius":2,"dot_side_length":1,"dot_life":-1,"move_distance":1,"aperture_width":300,"aperture_height":300,"dot_color":["white","white","white","black","black","black","black","black","black","white","black","black","black","white","white","white","black","white","black","white","white","white","black","white","white","black","white","black","black","black","black","white","black","black","white","white","white","white","white","white","black","white","white","black","white","black","white","black","white","black","black","black","white","black","white","black","white","white","black","black","white","white","white","black","white","white","white","white","white","white","white","black","black","white","black","white","white","white","black","white","black","white","white","white","black","black","white","black","black","black","white","black","white","black","white","black","white","white","black","black","white","black","white","white","black","black","white","white","black","white","black","white","white","black","white","black","black","white","white","white","black","white","black","white","black","black","white","black","black","white","white","black","black","black","black","white","black","black","black","white","white","white","black","white","black","white","black","black","black","black","black","black","white","white","black","black","white","white","black","black","black","black","black","white","black","white","black","black","black","black","white","white","black","white","black","black","white","white","black","black","white","white","white","white","black","white","black","black","black","white","white","black","white","black","black","white","black","white","white","white"],"dot_shape":"circle","background_color":"#AAA","RDK_type":3,"aperture_type":2,"reinsert_type":2,"frame_rate":16.80672268907563,"frame_rate_array":[17,16,17,16,17,17,17,17,17,17,17,17,17,17,17,16,17,17,16,17,16,17,17,17,17,17,16,17,16,17,16,17,17,17,17,17,17,16,17,16,17,17,17,17,17,16,17,17,17,17,17,17,17,16,17,17,16,17,17,17,17,17,17,17,17,17,16,17,17,17,17,17,16,17,17,17,16,17,16,17,16,17,17,17,16,17,16,17,17,17,17,17,17,17,17,17,17,16,17,17,17,17,17,17,17,16,17,17,17,17,17,17,17,17,17,16,17,17,17],"number_of_frames":119,"aperture_center_x":768,"aperture_center_y":432,"fixation_cross":true,"fixation_cross_width":15,"fixation_cross_height":15,"fixation_cross_color":"#111","fixation_cross_thickness":1,"border":true,"border_thickness":2,"border_color":"transparent","canvas_width":1536,"canvas_height":864,"trial_type":"rdk","trial_index":100,"plugin_version":"2.0.0","time_elapsed":306135},{"rt":5637,"stimulus":"\n        <div class=\"response-container\">\n          <div class=\"response-instruction\">\n            <p>rotate the bar by using the left and right arrow keys.</p>\n            <p>when you are determined, press the Enter key.</p>\n          </div>\n          <div class=\"response-circle\">\n            <div class=\"response-fixation\"></div>\n            <div id=\"bar\" class=\"rotating-bar\"></div>\n          </div>\n        </div>\n      ","response":"Enter","trial_type":"html-keyboard-response","trial_index":101,"plugin_version":"2.1.0","time_elapsed":311773,"random_initial_angle":154,"response_angle_css":56,"response_angle_rdk":34,"angular_error_target":-14,"angular_error_distractor":-128,"target_direction":48,"target_group":"black","reward_points":7},{"rt":null,"stimulus":"\n          <p style=\"color: #00FF00;\">Your reward: 7 points</p>\n        ","response":null,"trial_type":"html-keyboard-response","trial_index":102,"plugin_version":"2.1.0","time_elapsed":313781},{"rt":null,"stimulus":"<div class=\"fixation\" style=\"font-size: 60px;\">+</div>","response":null,"trial_type":"html-keyboard-response","trial_index":103,"plugin_version":"2.1.0","time_elapsed":314784},{"phase":"learning-awareness","target_group":"black","condition_label":"B_H_vs_W_L_rep9","target_direction":41,"distractor_direction":137,"session_rotation":310,"rt":-1,"response":"","correct":false,"choices":"ALL_KEYS","correct_choice":["a"],"trial_duration":2000,"flip_timestamps":[],"response_ends_trial":false,"number_of_apertures":200,"number_of_dots":[1,1,1,1,1,1,1,1,1,1,1,1,1,1,1,1,1,1,1,1,1,1,1,1,1,1,1,1,1,1,1,1,1,1,1,1,1,1,1,1,1,1,1,1,1,1,1,1,1,1,1,1,1,1,1,1,1,1,1,1,1,1,1,1,1,1,1,1,1,1,1,1,1,1,1,1,1,1,1,1,1,1,1,1,1,1,1,1,1,1,1,1,1,1,1,1,1,1,1,1,1,1,1,1,1,1,1,1,1,1,1,1,1,1,1,1,1,1,1,1,1,1,1,1,1,1,1,1,1,1,1,1,1,1,1,1,1,1,1,1,1,1,1,1,1,1,1,1,1,1,1,1,1,1,1,1,1,1,1,1,1,1,1,1,1,1,1,1,1,1,1,1,1,1,1,1,1,1,1,1,1,1,1,1,1,1,1,1,1,1,1,1,1,1,1,1,1,1,1,1],"number_of_sets":1,"coherent_direction":[137,41,41,137,41,137,137,41,137,137,41,137,41,41,137,41,137,41,41,137,41,41,41,137,137,137,137,137,137,41,137,137,41,41,137,41,137,41,137,137,137,41,137,41,137,41,137,137,41,137,41,41,137,41,41,137,137,137,137,41,137,137,41,41,41,137,41,41,41,137,41,41,137,41,137,137,137,137,41,137,41,137,41,41,41,41,41,41,137,137,41,137,41,41,41,137,41,137,41,137,41,41,41,137,137,137,137,137,137,137,41,137,41,137,137,41,41,41,137,137,41,41,41,41,41,41,41,41,41,41,41,41,137,41,41,137,137,137,137,137,41,137,137,137,41,137,41,41,41,137,41,137,41,41,137,137,137,41,137,137,137,41,41,41,41,41,137,41,137,137,41,41,41,41,137,137,41,137,137,41,41,137,137,137,41,41,137,41,137,41,137,137,137,137,41,137,41,137,137,137],"coherence":1,"opposite_coherence":0,"dot_radius":2,"dot_side_length":1,"dot_life":-1,"move_distance":1,"aperture_width":300,"aperture_height":300,"dot_color":["white","black","black","white","black","white","white","black","white","white","black","white","black","black","white","black","white","black","black","white","black","black","black","white","white","white","white","white","white","black","white","white","black","black","white","black","white","black","white","white","white","black","white","black","white","black","white","white","black","white","black","black","white","black","black","white","white","white","white","black","white","white","black","black","black","white","black","black","black","white","black","black","white","black","white","white","white","white","black","white","black","white","black","black","black","black","black","black","white","white","black","white","black","black","black","white","black","white","black","white","black","black","black","white","white","white","white","white","white","white","black","white","black","white","white","black","black","black","white","white","black","black","black","black","black","black","black","black","black","black","black","black","white","black","black","white","white","white","white","white","black","white","white","white","black","white","black","black","black","white","black","white","black","black","white","white","white","black","white","white","white","black","black","black","black","black","white","black","white","white","black","black","black","black","white","white","black","white","white","black","black","white","white","white","black","black","white","black","white","black","white","white","white","white","black","white","black","white","white","white"],"dot_shape":"circle","background_color":"#AAA","RDK_type":3,"aperture_type":2,"reinsert_type":2,"frame_rate":16.783333333333335,"frame_rate_array":[17,16,17,17,17,17,17,17,17,17,17,17,17,17,17,17,17,16,16,17,17,17,17,16,17,17,16,17,17,16,17,17,17,17,16,17,17,17,17,16,17,16,17,17,16,17,17,17,17,17,16,17,17,17,16,17,17,17,17,17,17,16,17,16,17,17,16,17,17,17,17,17,17,17,17,16,17,17,17,17,16,17,16,17,16,16,17,16,17,16,17,17,17,17,17,17,16,17,18,16,17,17,17,16,16,17,17,17,17,17,17,17,16,17,17,17,17,17,17,17],"number_of_frames":120,"aperture_center_x":768,"aperture_center_y":432,"fixation_cross":true,"fixation_cross_width":15,"fixation_cross_height":15,"fixation_cross_color":"#111","fixation_cross_thickness":1,"border":true,"border_thickness":2,"border_color":"transparent","canvas_width":1536,"canvas_height":864,"trial_type":"rdk","trial_index":104,"plugin_version":"2.0.0","time_elapsed":316786},{"rt":3356,"stimulus":"\n        <div class=\"response-container\">\n          <div class=\"response-instruction\">\n            <p>rotate the bar by using the left and right arrow keys.</p>\n            <p>when you are determined, press the Enter key.</p>\n          </div>\n          <div class=\"response-circle\">\n            <div class=\"response-fixation\"></div>\n            <div id=\"bar\" class=\"rotating-bar\"></div>\n          </div>\n        </div>\n      ","response":"Enter","trial_type":"html-keyboard-response","trial_index":105,"plugin_version":"2.1.0","time_elapsed":320143,"random_initial_angle":322,"response_angle_css":416,"response_angle_rdk":34,"angular_error_target":-7,"angular_error_distractor":-103,"target_direction":41,"target_group":"black","reward_points":8},{"rt":null,"stimulus":"\n          <p style=\"color: #00FF00;\">Your reward: 8 points</p>\n        ","response":null,"trial_type":"html-keyboard-response","trial_index":106,"plugin_version":"2.1.0","time_elapsed":322148},{"rt":null,"stimulus":"<div class=\"fixation\" style=\"font-size: 60px;\">+</div>","response":null,"trial_type":"html-keyboard-response","trial_index":107,"plugin_version":"2.1.0","time_elapsed":323160},{"phase":"learn