[{"rt":2518,"stimulus":"Welcome to the experiment. Press any key to begin.","response":" ","trial_type":"html-keyboard-response","trial_index":0,"plugin_version":"2.1.0","time_elapsed":2520},{"rt":93646,"stimulus":"\n        <div class=\"instructions-container\">\n          <h2>Instructions</h2>\n\n          <p>\n          In this experiment, you will see <strong>two Random Dot Kinematograms (RDKs)</strong> displayed simultaneously.\n          </p>\n\n          <p>\n          An RDK is a visual stimulus consisting of many small dots that move coherently in a single direction. \n          In this experiment, the dots will be either <strong>white</strong> or <strong>black</strong> \n          (see the short demo below for an example of an RDK stimulus).\n          </p>\n\n          <p>\n          On each trial, the two RDKs will move in different directions. \n          Your task is to decide <strong>which RDK appears to contain more dots</strong>.\n          </p>\n\n          <p>\n          The RDK that you judge to have more dots is called the <strong>target RDK</strong>. \n          For example, if the white RDK appears to have more dots than the black RDK, \n          you should report the motion direction of the white RDK.\n          </p>\n\n          <p>\n          After viewing the RDKs, you will rotate a bar to indicate the perceived direction of the target RDK \n          using the <strong>left</strong> and <strong>right arrow keys</strong>. \n          Press <strong>Enter</strong> when you are satisfied with your response.\n          When the bar is held down, the rotation speed increases.\n          </p>\n\n          <p>\n          You will receive points based on the <strong>accuracy of your response</strong>, \n          and your final <strong>bonus reward</strong> may depend on your overall performance. \n          Please try to respond as accurately as possible.\n          </p>\n\n          <p>\n          You will first complete <strong>16 practice trials</strong>. \n          Press the <strong>Enter</strong> key to start the practice phase.\n          </p>\n\n          <canvas id=\"instruction-demo-rdk\" width=\"200\" height=\"200\"style=\"display:block;margin:12px auto; border-radius: 50%;\"></canvas>\n        </div>\n      ","response":"Enter","trial_type":"html-keyboard-response","trial_index":1,"plugin_version":"2.1.0","time_elapsed":96170},{"rt":null,"stimulus":"<div class=\"fixation\" style=\"font-size: 60px;\">+</div>","response":null,"trial_type":"html-keyboard-response","trial_index":2,"plugin_version":"2.1.0","time_elapsed":97173},{"target_group":"white","target_index":0,"condition_label":"practice","rt":-1,"response":"","correct":false,"choices":"ALL_KEYS","correct_choice":["a"],"trial_duration":2000,"flip_timestamps":[],"response_ends_trial":false,"number_of_apertures":2,"number_of_dots":[100,96],"number_of_sets":1,"coherent_direction":[27,128],"coherence":1,"opposite_coherence":0,"dot_radius":2,"dot_side_length":1,"dot_life":-1,"move_distance":1,"aperture_width":300,"aperture_height":300,"dot_color":["white","black"],"dot_shape":"circle","background_color":"#AAA","RDK_type":3,"aperture_type":2,"reinsert_type":2,"frame_rate":16.933333333333334,"frame_rate_array":[15,17,17,17,17,17,16,17,16,17,17,17,17,17,17,16,17,16,18,17,17,17,17,17,16,17,17,17,17,17,17,17,17,17,16,17,17,17,17,17,17,17,17,17,17,16,18,16,17,17,17,17,17,17,17,17,17,17,17,17,17,17,17,17,17,17,17,17,17,17,17,17,17,17,17,17,17,17,17,17,17,17,17,17,17,17,17,17,17,17,17,17,17,17,17,17,17,17,17,17,16,18,17,17,16,18,17,17,17,17,17,17,17,17,17,17,17,17,17,17],"number_of_frames":120,"aperture_center_x":735,"aperture_center_y":459.5,"fixation_cross":true,"fixation_cross_width":15,"fixation_cross_height":15,"fixation_cross_color":"#111","fixation_cross_thickness":1,"border":true,"border_thickness":2,"border_color":"transparent","canvas_width":1470,"canvas_height":919,"trial_type":"rdk","trial_index":3,"plugin_version":"2.0.0","time_elapsed":99179,"phase":"practice","target_direction":27,"distractor_direction":128},{"rt":15249,"stimulus":"\n        <div class=\"response-container\">\n          <div class=\"response-instruction\">\n            <p>rotate the bar by using the left and right arrow keys.</p>\n            <p>when you are determined, press the Enter key.</p>\n          </div>\n          <div class=\"response-circle\">\n            <div class=\"response-fixation\"></div>\n            <div id=\"bar\" class=\"rotating-bar\"></div>\n          </div>\n        </div>\n      ","response":"Enter","trial_type":"html-keyboard-response","trial_index":4,"plugin_version":"2.1.0","time_elapsed":114429,"random_initial_angle":160,"response_angle_css":309,"response_angle_rdk":141,"angular_error_target":114,"angular_error_distractor":13,"target_direction":27,"target_group":"white","reward_points":0},{"rt":null,"stimulus":"\n          <p style=\"color: #FF3333;\">Your reward: 0 points</p>\n        ","response":null,"trial_type":"html-keyboard-response","trial_index":5,"plugin_version":"2.1.0","time_elapsed":116432},{"rt":null,"stimulus":"<div class=\"fixation\" style=\"font-size: 60px;\">+</div>","response":null,"trial_type":"html-keyboard-response","trial_index":6,"plugin_version":"2.1.0","time_elapsed":117435},{"target_group":"black","target_index":1,"condition_label":"practice","rt":-1,"response":"","correct":false,"choices":"ALL_KEYS","correct_choice":["a"],"trial_duration":2000,"flip_timestamps":[],"response_ends_trial":false,"number_of_apertures":2,"number_of_dots":[82,100],"number_of_sets":1,"coherent_direction":[239,37],"coherence":1,"opposite_coherence":0,"dot_radius":2,"dot_side_length":1,"dot_life":-1,"move_distance":1,"aperture_width":300,"aperture_height":300,"dot_color":["white","black"],"dot_shape":"circle","background_color":"#AAA","RDK_type":3,"aperture_type":2,"reinsert_type":2,"frame_rate":17.04201680672269,"frame_rate_array":[24,17,17,17,17,17,17,17,17,17,17,16,17,17,17,17,17,17,17,17,17,17,17,17,17,17,17,17,17,17,17,17,17,17,17,17,17,17,17,17,17,17,17,17,17,17,17,17,17,17,17,17,17,17,17,17,17,17,17,17,17,17,17,17,17,17,17,17,17,17,17,17,17,17,17,17,17,17,17,17,17,17,17,17,17,17,17,17,17,17,17,17,17,16,18,17,17,17,17,17,17,17,17,17,17,17,17,17,17,17,17,17,17,17,16,17,17,17,17],"number_of_frames":119,"aperture_center_x":735,"aperture_center_y":459.5,"fixation_cross":true,"fixation_cross_width":15,"fixation_cross_height":15,"fixation_cross_color":"#111","fixation_cross_thickness":1,"border":true,"border_thickness":2,"border_color":"transparent","canvas_width":1470,"canvas_height":919,"trial_type":"rdk","trial_index":7,"plugin_version":"2.0.0","time_elapsed":119439,"phase":"practice","target_direction":37,"distractor_direction":239},{"rt":3655,"stimulus":"\n        <div class=\"response-container\">\n          <div class=\"response-instruction\">\n            <p>rotate the bar by using the left and right arrow keys.</p>\n            <p>when you are determined, press the Enter key.</p>\n          </div>\n          <div class=\"response-circle\">\n            <div class=\"response-fixation\"></div>\n            <div id=\"bar\" class=\"rotating-bar\"></div>\n          </div>\n        </div>\n      ","response":"Enter","trial_type":"html-keyboard-response","trial_index":8,"plugin_version":"2.1.0","time_elapsed":123095,"random_initial_angle":4,"response_angle_css":41,"response_angle_rdk":49,"angular_error_target":12,"angular_error_distractor":170,"target_direction":37,"target_group":"black","reward_points":7},{"rt":null,"stimulus":"\n          <p style=\"color: #00FF00;\">Your reward: 7 points</p>\n        ","response":null,"trial_type":"html-keyboard-response","trial_index":9,"plugin_version":"2.1.0","time_elapsed":125097},{"rt":null,"stimulus":"<div class=\"fixation\" style=\"font-size: 60px;\">+</div>","response":null,"trial_type":"html-keyboard-response","trial_index":10,"plugin_version":"2.1.0","time_elapsed":126100},{"target_group":"white","target_index":0,"condition_label":"practice","rt":-1,"response":"","correct":false,"choices":"ALL_KEYS","correct_choice":["a"],"trial_duration":2000,"flip_timestamps":[],"response_ends_trial":false,"number_of_apertures":2,"number_of_dots":[100,72],"number_of_sets":1,"coherent_direction":[152,357],"coherence":1,"opposite_coherence":0,"dot_radius":2,"dot_side_length":1,"dot_life":-1,"move_distance":1,"aperture_width":300,"aperture_height":300,"dot_color":["white","black"],"dot_shape":"circle","background_color":"#AAA","RDK_type":3,"aperture_type":2,"reinsert_type":2,"frame_rate":16.891666666666666,"frame_rate_array":[8,17,16,18,17,16,17,16,18,17,17,16,17,17,17,16,18,17,17,17,17,16,17,17,17,17,17,17,17,17,17,17,17,17,17,17,17,17,17,17,17,17,17,17,17,17,17,17,17,17,17,17,17,17,17,17,17,17,17,17,17,17,17,16,17,17,17,17,17,17,17,17,17,17,17,17,17,17,17,17,17,17,17,17,17,17,17,17,17,17,17,17,17,17,17,17,17,17,17,17,17,17,17,17,17,17,17,17,17,17,17,17,17,17,17,17,17,17,17,17],"number_of_frames":120,"aperture_center_x":735,"aperture_center_y":459.5,"fixation_cross":true,"fixation_cross_width":15,"fixation_cross_height":15,"fixation_cross_color":"#111","fixation_cross_thickness":1,"border":true,"border_thickness":2,"border_color":"transparent","canvas_width":1470,"canvas_height":919,"trial_type":"rdk","trial_index":11,"plugin_version":"2.0.0","time_elapsed":128103,"phase":"practice","target_direction":152,"distractor_direction":357},{"rt":1645,"stimulus":"\n        <div class=\"response-container\">\n          <div class=\"response-instruction\">\n            <p>rotate the bar by using the left and right arrow keys.</p>\n            <p>when you are determined, press the Enter key.</p>\n          </div>\n          <div class=\"response-circle\">\n            <div class=\"response-fixation\"></div>\n            <div id=\"bar\" class=\"rotating-bar\"></div>\n          </div>\n        </div>\n      ","response":"Enter","trial_type":"html-keyboard-response","trial_index":12,"plugin_version":"2.1.0","time_elapsed":129750,"random_initial_angle":290,"response_angle_css":290,"response_angle_rdk":160,"angular_error_target":8,"angular_error_distractor":163,"target_direction":152,"target_group":"white","reward_points":8},{"rt":null,"stimulus":"\n          <p style=\"color: #00FF00;\">Your reward: 8 points</p>\n        ","response":null,"trial_type":"html-keyboard-response","trial_index":13,"plugin_version":"2.1.0","time_elapsed":131753},{"rt":null,"stimulus":"<div class=\"fixation\" style=\"font-size: 60px;\">+</div>","response":null,"trial_type":"html-keyboard-response","trial_index":14,"plugin_version":"2.1.0","time_elapsed":132755},{"target_group":"black","target_index":1,"condition_label":"practice","rt":-1,"response":"","correct":false,"choices":"ALL_KEYS","correct_choice":["a"],"trial_duration":2000,"flip_timestamps":[],"response_ends_trial":false,"number_of_apertures":2,"number_of_dots":[90,100],"number_of_sets":1,"coherent_direction":[160,27],"coherence":1,"opposite_coherence":0,"dot_radius":2,"dot_side_length":1,"dot_life":-1,"move_distance":1,"aperture_width":300,"aperture_height":300,"dot_color":["white","black"],"dot_shape":"circle","background_color":"#AAA","RDK_type":3,"aperture_type":2,"reinsert_type":2,"frame_rate":17.03361344537815,"frame_rate_array":[21,17,17,17,17,17,17,17,17,17,17,17,17,17,17,17,17,17,17,17,17,17,17,17,17,17,17,17,17,17,17,17,17,17,17,17,17,16,18,17,17,17,17,17,17,17,17,17,17,17,17,17,17,17,17,17,17,17,17,17,17,17,17,17,17,17,17,17,17,17,17,17,17,17,17,17,17,17,17,17,17,17,17,17,17,16,18,17,17,17,17,17,17,17,17,17,17,17,17,17,17,17,17,16,18,17,17,17,17,17,17,17,17,17,17,17,17,17,17],"number_of_frames":119,"aperture_center_x":735,"aperture_center_y":459.5,"fixation_cross":true,"fixation_cross_width":15,"fixation_cross_height":15,"fixation_cross_color":"#111","fixation_cross_thickness":1,"border":true,"border_thickness":2,"border_color":"transparent","canvas_width":1470,"canvas_height":919,"trial_type":"rdk","trial_index":15,"plugin_version":"2.0.0","time_elapsed":134758,"phase":"practice","target_direction":27,"distractor_direction":160},{"rt":3193,"stimulus":"\n        <div class=\"response-container\">\n          <div class=\"response-instruction\">\n            <p>rotate the bar by using the left and right arrow keys.</p>\n            <p>when you are determined, press the Enter key.</p>\n          </div>\n          <div class=\"response-circle\">\n            <div class=\"response-fixation\"></div>\n            <div id=\"bar\" class=\"rotating-bar\"></div>\n          </div>\n        </div>\n      ","response":"Enter","trial_type":"html-keyboard-response","trial_index":16,"plugin_version":"2.1.0","time_elapsed":137953,"random_initial_angle":17,"response_angle_css":46,"response_angle_rdk":44,"angular_error_target":17,"angular_error_distractor":-116,"target_direction":27,"target_group":"black","reward_points":6},{"rt":null,"stimulus":"\n          <p style=\"color: #00FF00;\">Your reward: 6 points</p>\n        ","response":null,"trial_type":"html-keyboard-response","trial_index":17,"plugin_version":"2.1.0","time_elapsed":139955},{"rt":null,"stimulus":"<div class=\"fixation\" style=\"font-size: 60px;\">+</div>","response":null,"trial_type":"html-keyboard-response","trial_index":18,"plugin_version":"2.1.0","time_elapsed":140957},{"target_group":"black","target_index":1,"condition_label":"practice","rt":-1,"response":"","correct":false,"choices":"ALL_KEYS","correct_choice":["a"],"trial_duration":2000,"flip_timestamps":[],"response_ends_trial":false,"number_of_apertures":2,"number_of_dots":[80,100],"number_of_sets":1,"coherent_direction":[66,159],"coherence":1,"opposite_coherence":0,"dot_radius":2,"dot_side_length":1,"dot_life":-1,"move_distance":1,"aperture_width":300,"aperture_height":300,"dot_color":["white","black"],"dot_shape":"circle","background_color":"#AAA","RDK_type":3,"aperture_type":2,"reinsert_type":2,"frame_rate":17.008403361344538,"frame_rate_array":[19,17,17,17,17,17,17,17,17,17,17,17,17,17,16,17,17,17,17,17,17,17,17,17,17,17,17,17,17,17,17,17,17,17,17,17,17,17,17,17,17,17,17,17,17,17,17,17,17,17,17,17,17,17,17,17,17,16,18,17,17,17,17,17,17,17,17,17,17,17,17,17,17,17,17,17,17,17,17,17,17,17,17,17,17,17,17,17,17,17,17,17,17,17,17,17,17,17,17,17,17,17,17,17,17,17,17,17,17,17,17,17,17,17,17,17,17,17,17],"number_of_frames":119,"aperture_center_x":735,"aperture_center_y":459.5,"fixation_cross":true,"fixation_cross_width":15,"fixation_cross_height":15,"fixation_cross_color":"#111","fixation_cross_thickness":1,"border":true,"border_thickness":2,"border_color":"transparent","canvas_width":1470,"canvas_height":919,"trial_type":"rdk","trial_index":19,"plugin_version":"2.0.0","time_elapsed":142961,"phase":"practice","target_direction":159,"distractor_direction":66},{"rt":7681,"stimulus":"\n        <div class=\"response-container\">\n          <div class=\"response-instruction\">\n            <p>rotate the bar by using the left and right arrow keys.</p>\n            <p>when you are determined, press the Enter key.</p>\n          </div>\n          <div class=\"response-circle\">\n            <div class=\"response-fixation\"></div>\n            <div id=\"bar\" class=\"rotating-bar\"></div>\n          </div>\n        </div>\n      ","response":"Enter","trial_type":"html-keyboard-response","trial_index":20,"plugin_version":"2.1.0","time_elapsed":150643,"random_initial_angle":128,"response_angle_css":-54,"response_angle_rdk":144,"angular_error_target":-15,"angular_error_distractor":78,"target_direction":159,"target_group":"black","reward_points":7},{"rt":null,"stimulus":"\n          <p style=\"color: #00FF00;\">Your reward: 7 points</p>\n        ","response":null,"trial_type":"html-keyboard-response","trial_index":21,"plugin_version":"2.1.0","time_elapsed":152646},{"rt":null,"stimulus":"<div class=\"fixation\" style=\"font-size: 60px;\">+</div>","response":null,"trial_type":"html-keyboard-response","trial_index":22,"plugin_version":"2.1.0","time_elapsed":153648},{"target_group":"white","target_index":0,"condition_label":"practice","rt":-1,"response":"","correct":false,"choices":"ALL_KEYS","correct_choice":["a"],"trial_duration":2000,"flip_timestamps":[],"response_ends_trial":false,"number_of_apertures":2,"number_of_dots":[100,83],"number_of_sets":1,"coherent_direction":[177,292],"coherence":1,"opposite_coherence":0,"dot_radius":2,"dot_side_length":1,"dot_life":-1,"move_distance":1,"aperture_width":300,"aperture_height":300,"dot_color":["white","black"],"dot_shape":"circle","background_color":"#AAA","RDK_type":3,"aperture_type":2,"reinsert_type":2,"frame_rate":16.941666666666666,"frame_rate_array":[11,17,17,17,17,17,17,17,17,17,17,17,16,17,17,17,16,18,17,17,17,17,17,17,17,17,17,17,17,17,17,17,17,17,17,17,17,17,17,17,17,17,17,17,17,17,17,17,17,17,17,17,17,17,17,17,17,17,17,17,17,17,17,17,17,17,17,17,17,17,17,17,17,17,17,17,17,16,18,17,17,17,17,17,17,17,17,17,17,17,17,17,17,17,17,17,17,17,17,17,17,17,17,17,17,17,16,18,17,17,16,18,17,17,17,17,17,17,17,17],"number_of_frames":120,"aperture_center_x":735,"aperture_center_y":459.5,"fixation_cross":true,"fixation_cross_width":15,"fixation_cross_height":15,"fixation_cross_color":"#111","fixation_cross_thickness":1,"border":true,"border_thickness":2,"border_color":"transparent","canvas_width":1470,"canvas_height":919,"trial_type":"rdk","trial_index":23,"plugin_version":"2.0.0","time_elapsed":155651,"phase":"practice","target_direction":177,"distractor_direction":292},{"rt":6422,"stimulus":"\n        <div class=\"response-container\">\n          <div class=\"response-instruction\">\n            <p>rotate the bar by using the left and right arrow keys.</p>\n            <p>when you are determined, press the Enter key.</p>\n          </div>\n          <div class=\"response-circle\">\n            <div class=\"response-fixation\"></div>\n            <div id=\"bar\" class=\"rotating-bar\"></div>\n          </div>\n        </div>\n      ","response":"Enter","trial_type":"html-keyboard-response","trial_index":24,"plugin_version":"2.1.0","time_elapsed":162073,"random_initial_angle":237,"response_angle_css":295,"response_angle_rdk":155,"angular_error_target":-22,"angular_error_distractor":-137,"target_direction":177,"target_group":"white","reward_points":5},{"rt":null,"stimulus":"\n          <p style=\"color: #00FF00;\">Your reward: 5 points</p>\n        ","response":null,"trial_type":"html-keyboard-response","trial_index":25,"plugin_version":"2.1.0","time_elapsed":164075},{"rt":null,"stimulus":"<div class=\"fixation\" style=\"font-size: 60px;\">+</div>","response":null,"trial_type":"html-keyboard-response","trial_index":26,"plugin_version":"2.1.0","time_elapsed":165077},{"target_group":"black","target_index":1,"condition_label":"practice","rt":-1,"response":"","correct":false,"choices":"ALL_KEYS","correct_choice":["a"],"trial_duration":2000,"flip_timestamps":[],"response_ends_trial":false,"number_of_apertures":2,"number_of_dots":[84,100],"number_of_sets":1,"coherent_direction":[168,291],"coherence":1,"opposite_coherence":0,"dot_radius":2,"dot_side_length":1,"dot_life":-1,"move_distance":1,"aperture_width":300,"aperture_height":300,"dot_color":["white","black"],"dot_shape":"circle","background_color":"#AAA","RDK_type":3,"aperture_type":2,"reinsert_type":2,"frame_rate":16.966666666666665,"frame_rate_array":[15,17,17,17,17,17,16,18,17,17,17,17,17,17,17,17,17,17,17,17,17,16,17,17,17,17,17,17,17,17,17,17,17,17,17,17,17,17,17,17,17,17,17,17,17,17,16,17,17,17,17,16,18,17,17,17,17,17,17,17,17,17,17,17,17,17,17,17,17,17,17,17,17,17,17,17,17,17,17,17,17,17,17,16,18,17,17,17,17,17,17,17,17,17,17,17,17,17,17,17,17,17,17,17,16,18,17,17,17,17,17,16,18,17,17,17,17,17,17,17],"number_of_frames":120,"aperture_center_x":735,"aperture_center_y":459.5,"fixation_cross":true,"fixation_cross_width":15,"fixation_cross_height":15,"fixation_cross_color":"#111","fixation_cross_thickness":1,"border":true,"border_thickness":2,"border_color":"transparent","canvas_width":1470,"canvas_height":919,"trial_type":"rdk","trial_index":27,"plugin_version":"2.0.0","time_elapsed":167080,"phase":"practice","target_direction":291,"distractor_direction":168},{"rt":7643,"stimulus":"\n        <div class=\"response-container\">\n          <div class=\"response-instruction\">\n            <p>rotate the bar by using the left and right arrow keys.</p>\n            <p>when you are determined, press the Enter key.</p>\n          </div>\n          <div class=\"response-circle\">\n            <div class=\"response-fixation\"></div>\n            <div id=\"bar\" class=\"rotating-bar\"></div>\n          </div>\n        </div>\n      ","response":"Enter","trial_type":"html-keyboard-response","trial_index":28,"plugin_version":"2.1.0","time_elapsed":174724,"random_initial_angle":241,"response_angle_css":295,"response_angle_rdk":155,"angular_error_target":-136,"angular_error_distractor":-13,"target_direction":291,"target_group":"black","reward_points":0},{"rt":null,"stimulus":"\n          <p style=\"color: #FF3333;\">Your reward: 0 points</p>\n        ","response":null,"trial_type":"html-keyboard-response","trial_index":29,"plugin_version":"2.1.0","time_elapsed":176727},{"rt":null,"stimulus":"<div class=\"fixation\" style=\"font-size: 60px;\">+</div>","response":null,"trial_type":"html-keyboard-response","trial_index":30,"plugin_version":"2.1.0","time_elapsed":177730},{"target_group":"white","target_index":0,"condition_label":"practice","rt":-1,"response":"","correct":false,"choices":"ALL_KEYS","correct_choice":["a"],"trial_duration":2000,"flip_timestamps":[],"response_ends_trial":false,"number_of_apertures":2,"number_of_dots":[100,100],"number_of_sets":1,"coherent_direction":[272,98],"coherence":1,"opposite_coherence":0,"dot_radius":2,"dot_side_length":1,"dot_life":-1,"move_distance":1,"aperture_width":300,"aperture_height":300,"dot_color":["white","black"],"dot_shape":"circle","background_color":"#AAA","RDK_type":3,"aperture_type":2,"reinsert_type":2,"frame_rate":16.966666666666665,"frame_rate_array":[13,17,17,17,17,17,17,17,17,17,17,17,17,17,17,17,17,16,18,17,17,17,17,17,17,17,17,17,17,17,17,17,16,18,17,17,17,17,17,17,17,17,17,17,17,17,17,17,17,17,17,17,17,17,16,18,17,17,17,17,17,17,17,17,17,17,17,17,17,17,17,17,17,17,17,17,17,17,17,17,17,17,17,17,17,17,17,17,17,17,17,17,17,17,17,17,17,17,17,17,17,17,17,17,17,17,17,17,17,17,17,17,17,17,17,17,17,17,17,17],"number_of_frames":120,"aperture_center_x":735,"aperture_center_y":459.5,"fixation_cross":true,"fixation_cross_width":15,"fixation_cross_height":15,"fixation_cross_color":"#111","fixation_cross_thickness":1,"border":true,"border_thickness":2,"border_color":"transparent","canvas_width":1470,"canvas_height":919,"trial_type":"rdk","trial_index":31,"plugin_version":"2.0.0","time_elapsed":179732,"phase":"practice","target_direction":272,"distractor_direction":98},{"rt":3336,"stimulus":"\n        <div class=\"response-container\">\n          <div class=\"response-instruction\">\n            <p>rotate the bar by using the left and right arrow keys.</p>\n            <p>when you are determined, press the Enter key.</p>\n          </div>\n          <div class=\"response-circle\">\n            <div class=\"response-fixation\"></div>\n            <div id=\"bar\" class=\"rotating-bar\"></div>\n          </div>\n        </div>\n      ","response":"Enter","trial_type":"html-keyboard-response","trial_index":32,"plugin_version":"2.1.0","time_elapsed":183070,"random_initial_angle":293,"response_angle_css":345,"response_angle_rdk":105,"angular_error_target":-167,"angular_error_distractor":7,"target_direction":272,"target_group":"white","reward_points":0},{"rt":null,"stimulus":"\n          <p style=\"color: #FF3333;\">Your reward: 0 points</p>\n        ","response":null,"trial_type":"html-keyboard-response","trial_index":33,"plugin_version":"2.1.0","time_elapsed":185072},{"rt":null,"stimulus":"<div class=\"fixation\" style=\"font-size: 60px;\">+</div>","response":null,"trial_type":"html-keyboard-response","trial_index":34,"plugin_version":"2.1.0","time_elapsed":186074},{"target_group":"white","target_index":0,"condition_label":"practice","rt":-1,"response":"","correct":false,"choices":"ALL_KEYS","correct_choice":["a"],"trial_duration":2000,"flip_timestamps":[],"response_ends_trial":false,"number_of_apertures":2,"number_of_dots":[100,84],"number_of_sets":1,"coherent_direction":[119,293],"coherence":1,"opposite_coherence":0,"dot_radius":2,"dot_side_length":1,"dot_life":-1,"move_distance":1,"aperture_width":300,"aperture_height":300,"dot_color":["white","black"],"dot_shape":"circle","background_color":"#AAA","RDK_type":3,"aperture_type":2,"reinsert_type":2,"frame_rate":17,"frame_rate_array":[18,17,17,17,17,17,17,17,17,17,17,16,18,17,17,17,17,17,17,17,17,16,18,17,17,17,17,17,17,16,18,17,17,17,17,17,16,18,17,17,17,17,17,17,17,17,17,17,17,17,17,17,17,17,17,17,17,17,17,17,17,17,17,17,17,17,17,17,17,17,17,17,17,17,17,17,17,17,16,17,17,17,17,17,17,17,17,17,17,17,17,17,17,17,17,17,16,18,17,17,17,17,17,17,17,17,17,17,17,16,18,17,17,17,17,17,17,17,17],"number_of_frames":119,"aperture_center_x":735,"aperture_center_y":459.5,"fixation_cross":true,"fixation_cross_width":15,"fixation_cross_height":15,"fixation_cross_color":"#111","fixation_cross_thickness":1,"border":true,"border_thickness":2,"border_color":"transparent","canvas_width":1470,"canvas_height":919,"trial_type":"rdk","trial_index":35,"plugin_version":"2.0.0","time_elapsed":188077,"phase":"practice","target_direction":119,"distractor_direction":293},{"rt":5943,"stimulus":"\n        <div class=\"response-container\">\n          <div class=\"response-instruction\">\n            <p>rotate the bar by using the left and right arrow keys.</p>\n            <p>when you are determined, press the Enter key.</p>\n          </div>\n          <div class=\"response-circle\">\n            <div class=\"response-fixation\"></div>\n            <div id=\"bar\" class=\"rotating-bar\"></div>\n          </div>\n        </div>\n      ","response":"Enter","trial_type":"html-keyboard-response","trial_index":36,"plugin_version":"2.1.0","time_elapsed":194021,"random_initial_angle":8,"response_angle_css":153,"response_angle_rdk":297,"angular_error_target":178,"angular_error_distractor":4,"target_direction":119,"target_group":"white","reward_points":0},{"rt":null,"stimulus":"\n          <p style=\"color: #FF3333;\">Your reward: 0 points</p>\n        ","response":null,"trial_type":"html-keyboard-response","trial_index":37,"plugin_version":"2.1.0","time_elapsed":196024},{"rt":null,"stimulus":"<div class=\"fixation\" style=\"font-size: 60px;\">+</div>","response":null,"trial_type":"html-keyboard-response","trial_index":38,"plugin_version":"2.1.0","time_elapsed":197026},{"target_group":"white","target_index":0,"condition_label":"practice","rt":-1,"response":"","correct":false,"choices":"ALL_KEYS","correct_choice":["a"],"trial_duration":2000,"flip_timestamps":[],"response_ends_trial":false,"number_of_apertures":2,"number_of_dots":[100,64],"number_of_sets":1,"coherent_direction":[268,28],"coherence":1,"opposite_coherence":0,"dot_radius":2,"dot_side_length":1,"dot_life":-1,"move_distance":1,"aperture_width":300,"aperture_height":300,"dot_color":["white","black"],"dot_shape":"circle","background_color":"#AAA","RDK_type":3,"aperture_type":2,"reinsert_type":2,"frame_rate":16.991666666666667,"frame_rate_array":[16,16,18,17,17,17,17,17,17,17,17,17,17,17,17,17,17,17,17,17,17,17,17,17,17,17,17,16,18,17,17,17,17,16,18,17,17,17,17,16,18,17,17,17,17,17,17,17,17,17,17,17,17,17,17,17,17,17,17,17,17,17,17,16,18,17,17,17,17,17,17,17,17,17,17,17,17,17,17,17,17,17,17,16,18,17,17,17,17,17,17,17,17,17,17,17,17,17,17,17,17,17,17,17,17,17,17,17,17,17,17,17,17,17,17,17,17,17,17,17],"number_of_frames":120,"aperture_center_x":735,"aperture_center_y":459.5,"fixation_cross":true,"fixation_cross_width":15,"fixation_cross_height":15,"fixation_cross_color":"#111","fixation_cross_thickness":1,"border":true,"border_thickness":2,"border_color":"transparent","canvas_width":1470,"canvas_height":919,"trial_type":"rdk","trial_index":39,"plugin_version":"2.0.0","time_elapsed":199029,"phase":"practice","target_direction":268,"distractor_direction":28},{"rt":4773,"stimulus":"\n        <div class=\"response-container\">\n          <div class=\"response-instruction\">\n            <p>rotate the bar by using the left and right arrow keys.</p>\n            <p>when you are determined, press the Enter key.</p>\n          </div>\n          <div class=\"response-circle\">\n            <div class=\"response-fixation\"></div>\n            <div id=\"bar\" class=\"rotating-bar\"></div>\n          </div>\n        </div>\n      ","response":"Enter","trial_type":"html-keyboard-response","trial_index":40,"plugin_version":"2.1.0","time_elapsed":203803,"random_initial_angle":96,"response_angle_css":59,"response_angle_rdk":31,"angular_error_target":123,"angular_error_distractor":3,"target_direction":268,"target_group":"white","reward_points":0},{"rt":null,"stimulus":"\n          <p style=\"color: #FF3333;\">Your reward: 0 points</p>\n        ","response":null,"trial_type":"html-keyboard-response","trial_index":41,"plugin_version":"2.1.0","time_elapsed":205806},{"rt":null,"stimulus":"<div class=\"fixation\" style=\"font-size: 60px;\">+</div>","response":null,"trial_type":"html-keyboard-response","trial_index":42,"plugin_version":"2.1.0","time_elapsed":206808},{"target_group":"black","target_index":1,"condition_label":"practice","rt":-1,"response":"","correct":false,"choices":"ALL_KEYS","correct_choice":["a"],"trial_duration":2000,"flip_timestamps":[],"response_ends_trial":false,"number_of_apertures":2,"number_of_dots":[91,100],"number_of_sets":1,"coherent_direction":[276,26],"coherence":1,"opposite_coherence":0,"dot_radius":2,"dot_side_length":1,"dot_life":-1,"move_distance":1,"aperture_width":300,"aperture_height":300,"dot_color":["white","black"],"dot_shape":"circle","background_color":"#AAA","RDK_type":3,"aperture_type":2,"reinsert_type":2,"frame_rate":17.016806722689076,"frame_rate_array":[19,17,17,17,17,17,17,17,17,17,17,17,17,17,17,17,17,17,17,17,17,17,17,17,17,17,17,17,17,17,17,17,17,17,17,17,17,17,17,17,17,17,17,17,17,17,17,17,17,17,17,17,17,17,17,17,17,17,17,17,17,17,17,17,17,17,17,17,17,17,17,17,17,17,17,17,17,17,17,17,17,17,17,17,17,17,17,17,17,17,17,17,17,17,17,17,17,17,17,17,17,17,17,17,17,17,17,17,17,17,17,17,17,17,17,17,17,17,17],"number_of_frames":119,"aperture_center_x":735,"aperture_center_y":459.5,"fixation_cross":true,"fixation_cross_width":15,"fixation_cross_height":15,"fixation_cross_color":"#111","fixation_cross_thickness":1,"border":true,"border_thickness":2,"border_color":"transparent","canvas_width":1470,"canvas_height":919,"trial_type":"rdk","trial_index":43,"plugin_version":"2.0.0","time_elapsed":208811,"phase":"practice","target_direction":26,"distractor_direction":276},{"rt":4512,"stimulus":"\n        <div class=\"response-container\">\n          <div class=\"response-instruction\">\n            <p>rotate the bar by using the left and right arrow keys.</p>\n            <p>when you are determined, press the Enter key.</p>\n          </div>\n          <div class=\"response-circle\">\n            <div class=\"response-fixation\"></div>\n            <div id=\"bar\" class=\"rotating-bar\"></div>\n          </div>\n        </div>\n      ","response":"Enter","trial_type":"html-keyboard-response","trial_index":44,"plugin_version":"2.1.0","time_elapsed":213324,"random_initial_angle":318,"response_angle_css":394,"response_angle_rdk":56,"angular_error_target":30,"angular_error_distractor":140,"target_direction":26,"target_group":"black","reward_points":4},{"rt":null,"stimulus":"\n          <p style=\"color: #00FF00;\">Your reward: 4 points</p>\n        ","response":null,"trial_type":"html-keyboard-response","trial_index":45,"plugin_version":"2.1.0","time_elapsed":215326},{"rt":null,"stimulus":"<div class=\"fixation\" style=\"font-size: 60px;\">+</div>","response":null,"trial_type":"html-keyboard-response","trial_index":46,"plugin_version":"2.1.0","time_elapsed":216328},{"target_group":"white","target_index":0,"condition_label":"practice","rt":-1,"response":"","correct":false,"choices":"ALL_KEYS","correct_choice":["a"],"trial_duration":2000,"flip_timestamps":[],"response_ends_trial":false,"number_of_apertures":2,"number_of_dots":[100,55],"number_of_sets":1,"coherent_direction":[104,327],"coherence":1,"opposite_coherence":0,"dot_radius":2,"dot_side_length":1,"dot_life":-1,"move_distance":1,"aperture_width":300,"aperture_height":300,"dot_color":["white","black"],"dot_shape":"circle","background_color":"#AAA","RDK_type":3,"aperture_type":2,"reinsert_type":2,"frame_rate":16.966666666666665,"frame_rate_array":[15,17,17,17,17,17,17,17,17,17,17,17,17,17,17,17,17,17,17,17,17,17,17,17,17,17,17,17,17,17,17,17,17,17,17,17,17,17,17,17,17,17,17,17,17,17,17,17,17,17,17,17,17,17,17,17,17,17,17,17,17,17,17,17,17,17,16,18,17,16,18,17,16,18,17,16,18,16,17,17,17,16,18,17,16,18,17,17,17,17,17,17,17,17,17,17,17,17,17,16,18,17,16,18,17,16,18,17,17,17,17,17,17,17,17,17,16,17,17,17],"number_of_frames":120,"aperture_center_x":735,"aperture_center_y":459.5,"fixation_cross":true,"fixation_cross_width":15,"fixation_cross_height":15,"fixation_cross_color":"#111","fixation_cross_thickness":1,"border":true,"border_thickness":2,"border_color":"transparent","canvas_width":1470,"canvas_height":919,"trial_type":"rdk","trial_index":47,"plugin_version":"2.0.0","time_elapsed":218330,"phase":"practice","target_direction":104,"distractor_direction":327},{"rt":1942,"stimulus":"\n        <div class=\"response-container\">\n          <div class=\"response-instruction\">\n            <p>rotate the bar by using the left and right arrow keys.</p>\n            <p>when you are determined, press the Enter key.</p>\n          </div>\n          <div class=\"response-circle\">\n            <div class=\"response-fixation\"></div>\n            <div id=\"bar\" class=\"rotating-bar\"></div>\n          </div>\n        </div>\n      ","response":"Enter","trial_type":"html-keyboard-response","trial_index":48,"plugin_version":"2.1.0","time_elapsed":220273,"random_initial_angle":301,"response_angle_css":301,"response_angle_rdk":149,"angular_error_target":45,"angular_error_distractor":-178,"target_direction":104,"target_group":"white","reward_points":0},{"rt":null,"stimulus":"\n          <p style=\"color: #FF3333;\">Your reward: 0 points</p>\n        ","response":null,"trial_type":"html-keyboard-response","trial_index":49,"plugin_version":"2.1.0","time_elapsed":222276},{"rt":null,"stimulus":"<div class=\"fixation\" style=\"font-size: 60px;\">+</div>","response":null,"trial_type":"html-keyboard-response","trial_index":50,"plugin_version":"2.1.0","time_elapsed":223277},{"target_group":"black","target_index":1,"condition_label":"practice","rt":-1,"response":"","correct":false,"choices":"ALL_KEYS","correct_choice":["a"],"trial_duration":2000,"flip_timestamps":[],"response_ends_trial":false,"number_of_apertures":2,"number_of_dots":[92,100],"number_of_sets":1,"coherent_direction":[117,284],"coherence":1,"opposite_coherence":0,"dot_radius":2,"dot_side_length":1,"dot_life":-1,"move_distance":1,"aperture_width":300,"aperture_height":300,"dot_color":["white","black"],"dot_shape":"circle","background_color":"#AAA","RDK_type":3,"aperture_type":2,"reinsert_type":2,"frame_rate":16.975,"frame_rate_array":[15,17,17,16,18,17,17,17,17,17,17,17,17,17,17,17,17,17,17,17,17,17,17,17,17,17,17,17,17,17,17,17,17,17,17,17,17,17,17,17,17,17,16,18,17,17,17,17,17,17,17,17,17,17,17,17,17,17,17,17,17,17,17,16,18,17,17,17,17,17,17,17,17,17,17,17,16,17,17,17,17,17,17,17,16,18,17,17,17,17,17,17,17,16,18,17,17,16,18,17,16,18,17,17,17,17,17,17,17,17,17,17,17,17,17,17,17,17,17,17],"number_of_frames":120,"aperture_center_x":735,"aperture_center_y":459.5,"fixation_cross":true,"fixation_cross_width":15,"fixation_cross_height":15,"fixation_cross_color":"#111","fixation_cross_thickness":1,"border":true,"border_thickness":2,"border_color":"transparent","canvas_width":1470,"canvas_height":919,"trial_type":"rdk","trial_index":51,"plugin_version":"2.0.0","time_elapsed":225280,"phase":"practice","target_direction":284,"distractor_direction":117},{"rt":6389,"stimulus":"\n        <div class=\"response-container\">\n          <div class=\"response-instruction\">\n            <p>rotate the bar by using the left and right arrow keys.</p>\n            <p>when you are determined, press the Enter key.</p>\n          </div>\n          <div class=\"response-circle\">\n            <div class=\"response-fixation\"></div>\n            <div id=\"bar\" class=\"rotating-bar\"></div>\n          </div>\n        </div>\n      ","response":"Enter","trial_type":"html-keyboard-response","trial_index":52,"plugin_version":"2.1.0","time_elapsed":231669,"random_initial_angle":219,"response_angle_css":332,"response_angle_rdk":118,"angular_error_target":-166,"angular_error_distractor":1,"target_direction":284,"target_group":"black","reward_points":0},{"rt":null,"stimulus":"\n          <p style=\"color: #FF3333;\">Your reward: 0 points</p>\n        ","response":null,"trial_type":"html-keyboard-response","trial_index":53,"plugin_version":"2.1.0","time_elapsed":233671},{"rt":null,"stimulus":"<div class=\"fixation\" style=\"font-size: 60px;\">+</div>","response":null,"trial_type":"html-keyboard-response","trial_index":54,"plugin_version":"2.1.0","time_elapsed":234674},{"target_group":"black","target_index":1,"condition_label":"practice","rt":-1,"response":"","correct":false,"choices":"ALL_KEYS","correct_choice":["a"],"trial_duration":2000,"flip_timestamps":[],"response_ends_trial":false,"number_of_apertures":2,"number_of_dots":[89,100],"number_of_sets":1,"coherent_direction":[289,144],"coherence":1,"opposite_coherence":0,"dot_radius":2,"dot_side_length":1,"dot_life":-1,"move_distance":1,"aperture_width":300,"aperture_height":300,"dot_color":["white","black"],"dot_shape":"circle","background_color":"#AAA","RDK_type":3,"aperture_type":2,"reinsert_type":2,"frame_rate":17.008403361344538,"frame_rate_array":[19,17,17,17,17,17,17,17,17,17,17,17,17,17,17,17,17,17,17,17,17,17,17,17,17,17,17,17,17,17,17,17,17,17,17,17,17,17,17,17,17,17,17,17,17,17,17,17,17,17,17,17,17,17,16,17,17,17,17,17,17,17,17,17,17,17,17,17,17,17,17,17,17,17,17,17,17,17,17,17,17,17,17,17,17,17,17,16,18,17,17,17,17,17,17,17,17,17,17,17,17,17,17,17,17,17,16,18,17,17,17,17,17,17,17,17,17,17,17],"number_of_frames":119,"aperture_center_x":735,"aperture_center_y":459.5,"fixation_cross":true,"fixation_cross_width":15,"fixation_cross_height":15,"fixation_cross_color":"#111","fixation_cross_thickness":1,"border":true,"border_thickness":2,"border_color":"transparent","canvas_width":1470,"canvas_height":919,"trial_type":"rdk","trial_index":55,"plugin_version":"2.0.0","time_elapsed":236677,"phase":"practice","target_direction":144,"distractor_direction":289},{"rt":4595,"stimulus":"\n        <div class=\"response-container\">\n          <div class=\"response-instruction\">\n            <p>rotate the bar by using the left and right arrow keys.</p>\n            <p>when you are determined, press the Enter key.</p>\n          </div>\n          <div class=\"response-circle\">\n            <div class=\"response-fixation\"></div>\n            <div id=\"bar\" class=\"rotating-bar\"></div>\n          </div>\n        </div>\n      ","response":"Enter","trial_type":"html-keyboard-response","trial_index":56,"plugin_version":"2.1.0","time_elapsed":241273,"random_initial_angle":213,"response_angle_css":293,"response_angle_rdk":157,"angular_error_target":13,"angular_error_distractor":-132,"target_direction":144,"target_group":"black","reward_points":7},{"rt":null,"stimulus":"\n          <p style=\"color: #00FF00;\">Your reward: 7 points</p>\n        ","response":null,"trial_type":"html-keyboard-response","trial_index":57,"plugin_version":"2.1.0","time_elapsed":243275},{"rt":null,"stimulus":"<div class=\"fixation\" style=\"font-size: 60px;\">+</div>","response":null,"trial_type":"html-keyboard-response","trial_index":58,"plugin_version":"2.1.0","time_elapsed":244276},{"target_group":"black","target_index":1,"condition_label":"practice","rt":-1,"response":"","correct":false,"choices":"ALL_KEYS","correct_choice":["a"],"trial_duration":2000,"flip_timestamps":[],"response_ends_trial":false,"number_of_apertures":2,"number_of_dots":[51,100],"number_of_sets":1,"coherent_direction":[88,321],"coherence":1,"opposite_coherence":0,"dot_radius":2,"dot_side_length":1,"dot_life":-1,"move_distance":1,"aperture_width":300,"aperture_height":300,"dot_color":["white","black"],"dot_shape":"circle","background_color":"#AAA","RDK_type":3,"aperture_type":2,"reinsert_type":2,"frame_rate":16.991666666666667,"frame_rate_array":[16,17,17,17,16,18,17,17,16,18,17,17,17,17,17,17,17,17,17,17,17,17,17,17,17,17,17,17,17,17,17,17,17,17,17,17,17,17,17,17,17,17,17,17,17,17,17,17,17,17,17,17,17,17,17,17,17,17,17,17,17,17,17,17,17,17,17,17,17,17,17,17,17,17,17,17,17,17,17,17,17,17,17,17,17,17,17,17,17,17,17,17,17,17,17,17,17,17,17,17,17,17,17,17,17,17,17,17,17,17,17,17,17,17,17,17,17,17,17,17],"number_of_frames":120,"aperture_center_x":735,"aperture_center_y":459.5,"fixation_cross":true,"fixation_cross_width":15,"fixation_cross_height":15,"fixation_cross_color":"#111","fixation_cross_thickness":1,"border":true,"border_thickness":2,"border_color":"transparent","canvas_width":1470,"canvas_height":919,"trial_type":"rdk","trial_index":59,"plugin_version":"2.0.0","time_elapsed":246279,"phase":"practice","target_direction":321,"distractor_direction":88},{"rt":4699,"stimulus":"\n        <div class=\"response-container\">\n          <div class=\"response-instruction\">\n            <p>rotate the bar by using the left and right arrow keys.</p>\n            <p>when you are determined, press the Enter key.</p>\n          </div>\n          <div class=\"response-circle\">\n            <div class=\"response-fixation\"></div>\n            <div id=\"bar\" class=\"rotating-bar\"></div>\n          </div>\n        </div>\n      ","response":"Enter","trial_type":"html-keyboard-response","trial_index":60,"plugin_version":"2.1.0","time_elapsed":250979,"random_initial_angle":330,"response_angle_css":485,"response_angle_rdk":325,"angular_error_target":4,"angular_error_distractor":-123,"target_direction":321,"target_group":"black","reward_points":9},{"rt":null,"stimulus":"\n          <p style=\"color: #00FF00;\">Your reward: 9 points</p>\n        ","response":null,"trial_type":"html-keyboard-response","trial_index":61,"plugin_version":"2.1.0","time_elapsed":252981},{"rt":null,"stimulus":"<div class=\"fixation\" style=\"font-size: 60px;\">+</div>","response":null,"trial_type":"html-keyboard-response","trial_index":62,"plugin_version":"2.1.0","time_elapsed":253984},{"target_group":"white","target_index":0,"condition_label":"practice","rt":-1,"response":"","correct":false,"choices":"ALL_KEYS","correct_choice":["a"],"trial_duration":2000,"flip_timestamps":[],"response_ends_trial":false,"number_of_apertures":2,"number_of_dots":[100,60],"number_of_sets":1,"coherent_direction":[119,269],"coherence":1,"opposite_coherence":0,"dot_radius":2,"dot_side_length":1,"dot_life":-1,"move_distance":1,"aperture_width":300,"aperture_height":300,"dot_color":["white","black"],"dot_shape":"circle","background_color":"#AAA","RDK_type":3,"aperture_type":2,"reinsert_type":2,"frame_rate":16.933333333333334,"frame_rate_array":[9,18,17,17,17,17,17,17,17,17,17,17,17,17,17,17,17,17,17,17,17,17,17,17,17,17,17,17,17,17,17,17,17,17,17,17,17,17,17,17,17,17,17,17,17,17,17,17,17,17,17,17,17,17,17,17,17,17,17,17,17,17,17,17,17,17,17,17,17,17,17,17,17,17,17,17,16,17,17,17,17,17,17,17,17,17,17,17,17,17,17,17,17,17,17,17,17,16,18,17,17,17,17,17,17,17,17,16,18,17,17,17,17,17,17,17,17,17,17,17],"number_of_frames":120,"aperture_center_x":735,"aperture_center_y":459.5,"fixation_cross":true,"fixation_cross_width":15,"fixation_cross_height":15,"fixation_cross_color":"#111","fixation_cross_thickness":1,"border":true,"border_thickness":2,"border_color":"transparent","canvas_width":1470,"canvas_height":919,"trial_type":"rdk","trial_index":63,"plugin_version":"2.0.0","time_elapsed":255987,"phase":"practice","target_direction":119,"distractor_direction":269},{"rt":5458,"stimulus":"\n        <div class=\"response-container\">\n          <div class=\"response-instruction\">\n            <p>rotate the bar by using the left and right arrow keys.</p>\n            <p>when you are determined, press the Enter key.</p>\n          </div>\n          <div class=\"response-circle\">\n            <div class=\"response-fixation\"></div>\n            <div id=\"bar\" class=\"rotating-bar\"></div>\n          </div>\n        </div>\n      ","response":"Enter","trial_type":"html-keyboard-response","trial_index":64,"plugin_version":"2.1.0","time_elapsed":261446,"random_initial_angle":169,"response_angle_css":324,"response_angle_rdk":126,"angular_error_target":7,"angular_error_distractor":-143,"target_direction":119,"target_group":"white","reward_points":8},{"rt":null,"stimulus":"\n          <p style=\"color: #00FF00;\">Your reward: 8 points</p>\n        ","response":null,"trial_type":"html-keyboard-response","trial_index":65,"plugin_version":"2.1.0","time_elapsed":263448},{"rt":1984,"stimulus":"\n        <div class=\"instructions-container\">\n          <h2>End of Practice</h2>\n          <p>You have completed the practice trials.</p>\n          <p>Press <strong>Enter</strong> key to begin the main experiment.</p>\n        </div>\n      ","response":"Enter","trial_type":"html-keyboard-response","trial_index":66,"plugin_version":"2.1.0","time_elapsed":265433},{"rt":null,"stimulus":"<div class=\"fixation\" style=\"font-size: 60px;\">+</div>","response":null,"trial_type":"html-keyboard-response","trial_index":67,"plugin_version":"2.1.0","time_elapsed":266435},{"phase":"learning-awareness","target_group":"white","condition_label":"W_H_vs_B_L_rep16","target_direction":163,"distractor_direction":73,"session_rotation":123,"rt":-1,"response":"","correct":false,"choices":"ALL_KEYS","correct_choice":["a"],"trial_duration":2000,"flip_timestamps":[],"response_ends_trial":false,"number_of_apertures":200,"number_of_dots":[1,1,1,1,1,1,1,1,1,1,1,1,1,1,1,1,1,1,1,1,1,1,1,1,1,1,1,1,1,1,1,1,1,1,1,1,1,1,1,1,1,1,1,1,1,1,1,1,1,1,1,1,1,1,1,1,1,1,1,1,1,1,1,1,1,1,1,1,1,1,1,1,1,1,1,1,1,1,1,1,1,1,1,1,1,1,1,1,1,1,1,1,1,1,1,1,1,1,1,1,1,1,1,1,1,1,1,1,1,1,1,1,1,1,1,1,1,1,1,1,1,1,1,1,1,1,1,1,1,1,1,1,1,1,1,1,1,1,1,1,1,1,1,1,1,1,1,1,1,1,1,1,1,1,1,1,1,1,1,1,1,1,1,1,1,1,1,1,1,1,1,1,1,1,1,1,1,1,1,1,1,1,1,1,1,1,1,1,1,1,1,1,1,1,1,1,1,1,1,1],"number_of_sets":1,"coherent_direction":[163,163,163,163,73,163,163,73,73,163,163,73,73,163,73,163,73,163,163,73,73,163,73,73,73,163,73,73,163,73,73,73,163,73,163,163,163,163,73,163,73,73,73,163,73,73,163,73,163,73,163,73,73,163,163,73,73,163,73,163,73,73,163,73,73,163,73,163,163,163,73,163,73,163,163,73,73,163,73,163,73,163,73,163,163,73,73,73,163,73,73,73,163,73,163,73,163,163,163,73,163,163,73,163,163,73,73,73,163,73,73,73,73,73,73,163,163,73,73,163,163,163,73,163,163,163,163,163,73,73,73,73,163,163,73,163,73,163,73,163,73,73,73,163,73,73,163,163,163,73,163,73,73,73,73,73,73,73,163,73,163,73,163,163,73,73,73,163,163,163,163,163,163,163,73,73,163,163,163,163,73,73,163,163,73,73,163,163,163,73,163,163,163,163,163,73,73,73,163,163],"coherence":1,"opposite_coherence":0,"dot_radius":2,"dot_side_length":1,"dot_life":-1,"move_distance":1,"aperture_width":300,"aperture_height":300,"dot_color":["white","white","white","white","black","white","white","black","black","white","white","black","black","white","black","white","black","white","white","black","black","white","black","black","black","white","black","black","white","black","black","black","white","black","white","white","white","white","black","white","black","black","black","white","black","black","white","black","white","black","white","black","black","white","white","black","black","white","black","white","black","black","white","black","black","white","black","white","white","white","black","white","black","white","white","black","black","white","black","white","black","white","black","white","white","black","black","black","white","black","black","black","white","black","white","black","white","white","white","black","white","white","black","white","white","black","black","black","white","black","black","black","black","black","black","white","white","black","black","white","white","white","black","white","white","white","white","white","black","black","black","black","white","white","black","white","black","white","black","white","black","black","black","white","black","black","white","white","white","black","white","black","black","black","black","black","black","black","white","black","white","black","white","white","black","black","black","white","white","white","white","white","white","white","black","black","white","white","white","white","black","black","white","white","black","black","white","white","white","black","white","white","white","white","white","black","black","black","white","white"],"dot_shape":"circle","background_color":"#AAA","RDK_type":3,"aperture_type":2,"reinsert_type":2,"frame_rate":16.908333333333335,"frame_rate_array":[7,17,17,17,17,17,17,17,17,17,17,17,17,17,17,17,17,17,17,17,17,17,17,17,17,17,17,17,17,17,17,17,17,17,17,16,18,17,16,18,17,16,18,17,17,17,17,17,17,17,17,17,17,17,17,17,17,17,17,17,16,17,17,17,17,17,16,18,17,17,17,17,17,17,17,17,17,17,17,17,17,16,18,17,17,17,17,17,17,17,16,18,17,17,17,17,17,17,17,17,17,17,17,17,17,17,17,17,16,18,17,17,17,17,16,18,17,16,18,17],"number_of_frames":120,"aperture_center_x":735,"aperture_center_y":459.5,"fixation_cross":true,"fixation_cross_width":15,"fixation_cross_height":15,"fixation_cross_color":"#111","fixation_cross_thickness":1,"border":true,"border_thickness":2,"border_color":"transparent","canvas_width":1470,"canvas_height":919,"trial_type":"rdk","trial_index":68,"plugin_version":"2.0.0","time_elapsed":268438},{"rt":5196,"stimulus":"\n        <div class=\"response-container\">\n          <div class=\"response-instruction\">\n            <p>rotate the bar by using the left and right arrow keys.</p>\n            <p>when you are determined, press the Enter key.</p>\n          </div>\n          <div class=\"response-circle\">\n            <div class=\"response-fixation\"></div>\n            <div id=\"bar\" class=\"rotating-bar\"></div>\n          </div>\n        </div>\n      ","response":"Enter","trial_type":"html-keyboard-response","trial_index":69,"plugin_version":"2.1.0","time_elapsed":273636,"random_initial_angle":177,"response_angle_css":292,"response_angle_rdk":158,"angular_error_target":-5,"angular_error_distractor":85,"target_direction":163,"target_group":"white","reward_points":9},{"rt":null,"stimulus":"\n          <p style=\"color: #00FF00;\">Your reward: 9 points</p>\n        ","response":null,"trial_type":"html-keyboard-response","trial_index":70,"plugin_version":"2.1.0","time_elapsed":275638},{"rt":null,"stimulus":"<div class=\"fixation\" style=\"font-size: 60px;\">+</div>","response":null,"trial_type":"html-keyboard-response","trial_index":71,"plugin_version":"2.1.0","time_elapsed":276640},{"phase":"learning-awareness","target_group":"black","condition_label":"B_H_vs_W_L_rep1","target_direction":239,"distractor_direction":334,"session_rotation":123,"rt":-1,"response":"","correct":false,"choices":"ALL_KEYS","correct_choice":["a"],"trial_duration":2000,"flip_timestamps":[],"response_ends_trial":false,"number_of_apertures":200,"number_of_dots":[1,1,1,1,1,1,1,1,1,1,1,1,1,1,1,1,1,1,1,1,1,1,1,1,1,1,1,1,1,1,1,1,1,1,1,1,1,1,1,1,1,1,1,1,1,1,1,1,1,1,1,1,1,1,1,1,1,1,1,1,1,1,1,1,1,1,1,1,1,1,1,1,1,1,1,1,1,1,1,1,1,1,1,1,1,1,1,1,1,1,1,1,1,1,1,1,1,1,1,1,1,1,1,1,1,1,1,1,1,1,1,1,1,1,1,1,1,1,1,1,1,1,1,1,1,1,1,1,1,1,1,1,1,1,1,1,1,1,1,1,1,1,1,1,1,1,1,1,1,1,1,1,1,1,1,1,1,1,1,1,1,1,1,1,1,1,1,1,1,1,1,1,1,1,1,1,1,1,1,1,1,1,1,1,1,1,1,1,1,1,1,1,1,1,1,1,1,1,1,1],"number_of_sets":1,"coherent_direction":[334,334,334,239,239,239,239,334,334,239,334,239,334,239,334,334,334,239,334,334,239,239,239,334,334,239,239,334,239,239,334,239,334,239,239,334,239,334,239,239,334,239,239,239,239,334,334,239,334,334,239,334,239,334,334,239,239,239,239,334,334,334,239,334,334,334,239,239,334,239,334,334,334,334,334,334,239,334,334,334,239,334,239,334,239,239,239,239,334,239,239,334,334,239,334,334,239,239,239,334,334,239,334,334,239,239,334,239,334,239,239,239,239,334,239,239,239,334,334,239,239,239,239,334,239,334,334,334,239,334,239,334,334,239,334,239,334,239,239,239,239,239,334,334,334,334,334,239,334,334,334,239,239,334,239,334,334,239,334,239,334,239,334,239,239,334,334,239,334,334,334,334,334,239,334,334,239,334,239,239,239,334,239,334,334,334,239,239,334,239,334,239,334,239,239,239,239,334,239,239],"coherence":1,"opposite_coherence":0,"dot_radius":2,"dot_side_length":1,"dot_life":-1,"move_distance":1,"aperture_width":300,"aperture_height":300,"dot_color":["white","white","white","black","black","black","black","white","white","black","white","black","white","black","white","white","white","black","white","white","black","black","black","white","white","black","black","white","black","black","white","black","white","black","black","white","black","white","black","black","white","black","black","black","black","white","white","black","white","white","black","white","black","white","white","black","black","black","black","white","white","white","black","white","white","white","black","black","white","black","white","white","white","white","white","white","black","white","white","white","black","white","black","white","black","black","black","black","white","black","black","white","white","black","white","white","black","black","black","white","white","black","white","white","black","black","white","black","white","black","black","black","black","white","black","black","black","white","white","black","black","black","black","white","black","white","white","white","black","white","black","white","white","black","white","black","white","black","black","black","black","black","white","white","white","white","white","black","white","white","white","black","black","white","black","white","white","black","white","black","white","black","white","black","black","white","white","black","white","white","white","white","white","black","white","white","black","white","black","black","black","white","black","white","white","white","black","black","white","black","white","black","white","black","black","black","black","white","black","black"],"dot_shape":"circle","background_color":"#AAA","RDK_type":3,"aperture_type":2,"reinsert_type":2,"frame_rate":16.983193277310924,"frame_rate_array":[20,17,17,17,17,17,17,17,17,17,17,17,17,17,16,18,17,17,17,17,17,16,18,17,16,18,17,17,17,17,17,17,17,17,17,17,17,17,17,17,17,17,17,17,17,17,17,17,17,17,17,17,17,17,17,17,17,17,17,17,17,16,18,17,17,17,17,17,17,17,16,18,17,17,17,17,16,16,17,16,18,17,17,17,17,16,18,17,17,17,17,17,17,17,17,16,17,17,17,17,17,17,17,17,17,17,17,17,17,17,17,17,17,16,17,17,17,17,16],"number_of_frames":119,"aperture_center_x":735,"aperture_center_y":459.5,"fixation_cross":true,"fixation_cross_width":15,"fixation_cross_height":15,"fixation_cross_color":"#111","fixation_cross_thickness":1,"border":true,"border_thickness":2,"border_color":"transparent","canvas_width":1470,"canvas_height":919,"trial_type":"rdk","trial_index":72,"plugin_version":"2.0.0","time_elapsed":278644},{"rt":2842,"stimulus":"\n        <div class=\"response-container\">\n          <div class=\"response-instruction\">\n            <p>rotate the bar by using the left and right arrow keys.</p>\n            <p>when you are determined, press the Enter key.</p>\n          </div>\n          <div class=\"response-circle\">\n            <div class=\"response-fixation\"></div>\n            <div id=\"bar\" class=\"rotating-bar\"></div>\n          </div>\n        </div>\n      ","response":"Enter","trial_type":"html-keyboard-response","trial_index":73,"plugin_version":"2.1.0","time_elapsed":281487,"random_initial_angle":213,"response_angle_css":226,"response_angle_rdk":224,"angular_error_target":-15,"angular_error_distractor":-110,"target_direction":239,"target_group":"black","reward_points":7},{"rt":null,"stimulus":"\n          <p style=\"color: #00FF00;\">Your reward: 7 points</p>\n        ","response":null,"trial_type":"html-keyboard-response","trial_index":74,"plugin_version":"2.1.0","time_elapsed":283488},{"rt":null,"stimulus":"<div class=\"fixation\" style=\"font-size: 60px;\">+</div>","response":null,"trial_type":"html-keyboard-response","trial_index":75,"plugin_version":"2.1.0","time_elapsed":284491},{"phase":"learning-awareness","target_group":"white","condition_label":"W_H_vs_B_L_rep23","target_direction":160,"distractor_direction":49,"session_rotation":123,"rt":-1,"response":"","correct":false,"choices":"ALL_KEYS","correct_choice":["a"],"trial_duration":2000,"flip_timestamps":[],"response_ends_trial":false,"number_of_apertures":200,"number_of_dots":[1,1,1,1,1,1,1,1,1,1,1,1,1,1,1,1,1,1,1,1,1,1,1,1,1,1,1,1,1,1,1,1,1,1,1,1,1,1,1,1,1,1,1,1,1,1,1,1,1,1,1,1,1,1,1,1,1,1,1,1,1,1,1,1,1,1,1,1,1,1,1,1,1,1,1,1,1,1,1,1,1,1,1,1,1,1,1,1,1,1,1,1,1,1,1,1,1,1,1,1,1,1,1,1,1,1,1,1,1,1,1,1,1,1,1,1,1,1,1,1,1,1,1,1,1,1,1,1,1,1,1,1,1,1,1,1,1,1,1,1,1,1,1,1,1,1,1,1,1,1,1,1,1,1,1,1,1,1,1,1,1,1,1,1,1,1,1,1,1,1,1,1,1,1,1,1,1,1,1,1,1,1,1,1,1,1,1,1,1,1,1,1,1,1,1,1,1,1,1,1],"number_of_sets":1,"coherent_direction":[160,49,160,49,49,160,49,49,160,160,160,49,49,160,49,49,160,160,49,160,160,49,160,49,160,49,49,49,160,160,160,49,49,49,160,160,49,49,49,49,49,160,49,49,49,160,49,160,160,49,160,49,160,49,160,49,160,49,49,49,49,160,160,160,49,160,49,49,49,49,49,160,160,160,160,49,160,49,160,49,49,160,49,160,49,49,160,160,49,49,49,160,160,49,160,160,160,49,160,160,160,160,49,49,160,49,160,49,49,49,160,160,49,160,160,49,49,160,49,49,49,49,160,49,160,49,49,160,160,49,160,160,49,160,160,160,49,49,49,160,160,160,160,160,160,160,49,160,160,160,49,49,160,49,49,49,49,49,160,49,160,49,160,49,160,49,160,160,160,160,160,160,160,49,160,160,49,49,49,160,49,160,49,160,49,160,160,49,160,49,160,49,160,49,49,49,49,160,160,160],"coherence":1,"opposite_coherence":0,"dot_radius":2,"dot_side_length":1,"dot_life":-1,"move_distance":1,"aperture_width":300,"aperture_height":300,"dot_color":["white","black","white","black","black","white","black","black","white","white","white","black","black","white","black","black","white","white","black","white","white","black","white","black","white","black","black","black","white","white","white","black","black","black","white","white","black","black","black","black","black","white","black","black","black","white","black","white","white","black","white","black","white","black","white","black","white","black","black","black","black","white","white","white","black","white","black","black","black","black","black","white","white","white","white","black","white","black","white","black","black","white","black","white","black","black","white","white","black","black","black","white","white","black","white","white","white","black","white","white","white","white","black","black","white","black","white","black","black","black","white","white","black","white","white","black","black","white","black","black","black","black","white","black","white","black","black","white","white","black","white","white","black","white","white","white","black","black","black","white","white","white","white","white","white","white","black","white","white","white","black","black","white","black","black","black","black","black","white","black","white","black","white","black","white","black","white","white","white","white","white","white","white","black","white","white","black","black","black","white","black","white","black","white","black","white","white","black","white","black","white","black","white","black","black","black","black","white","white","white"],"dot_shape":"circle","background_color":"#AAA","RDK_type":3,"aperture_type":2,"reinsert_type":2,"frame_rate":16.991596638655462,"frame_rate_array":[20,16,17,17,17,16,17,17,17,17,17,17,17,17,17,17,17,17,17,17,17,17,17,17,17,17,17,17,17,17,16,17,17,17,17,17,17,17,17,17,16,18,17,16,18,17,17,17,17,16,18,17,16,18,17,17,17,17,16,18,17,17,17,17,17,17,17,16,18,17,16,17,17,16,18,17,17,17,17,17,17,17,16,18,17,17,17,17,17,17,17,17,17,17,16,18,17,16,18,17,17,17,17,17,17,17,17,17,17,16,18,17,17,17,17,17,17,17,17],"number_of_frames":119,"aperture_center_x":735,"aperture_center_y":459.5,"fixation_cross":true,"fixation_cross_width":15,"fixation_cross_height":15,"fixation_cross_color":"#111","fixation_cross_thickness":1,"border":true,"border_thickness":2,"border_color":"transparent","canvas_width":1470,"canvas_height":919,"trial_type":"rdk","trial_index":76,"plugin_version":"2.0.0","time_elapsed":286494},{"rt":2556,"stimulus":"\n        <div class=\"response-container\">\n          <div class=\"response-instruction\">\n            <p>rotate the bar by using the left and right arrow keys.</p>\n            <p>when you are determined, press the Enter key.</p>\n          </div>\n          <div class=\"response-circle\">\n            <div class=\"response-fixation\"></div>\n            <div id=\"bar\" class=\"rotating-bar\"></div>\n          </div>\n        </div>\n      ","response":"Enter","trial_type":"html-keyboard-response","trial_index":77,"plugin_version":"2.1.0","time_elapsed":289050,"random_initial_angle":55,"response_angle_css":55,"response_angle_rdk":35,"angular_error_target":-125,"angular_error_distractor":-14,"target_direction":160,"target_group":"white","reward_points":0},{"rt":null,"stimulus":"\n          <p style=\"color: #FF3333;\">Your reward: 0 points</p>\n        ","response":null,"trial_type":"html-keyboard-response","trial_index":78,"plugin_version":"2.1.0","time_elapsed":291052},{"rt":null,"stimulus":"<div class=\"fixation\" style=\"font-size: 60px;\">+</div>","response":null,"trial_type":"html-keyboard-response","trial_index":79,"plugin_version":"2.1.0","time_elapsed":292055},{"phase":"learning-awareness","target_group":"white","condition_label":"W_H_vs_B_L_rep6","target_direction":159,"distractor_direction":56,"session_rotation":123,"rt":-1,"response":"","correct":false,"choices":"ALL_KEYS","correct_choice":["a"],"trial_duration":2000,"flip_timestamps":[],"response_ends_trial":false,"number_of_apertures":200,"number_of_dots":[1,1,1,1,1,1,1,1,1,1,1,1,1,1,1,1,1,1,1,1,1,1,1,1,1,1,1,1,1,1,1,1,1,1,1,1,1,1,1,1,1,1,1,1,1,1,1,1,1,1,1,1,1,1,1,1,1,1,1,1,1,1,1,1,1,1,1,1,1,1,1,1,1,1,1,1,1,1,1,1,1,1,1,1,1,1,1,1,1,1,1,1,1,1,1,1,1,1,1,1,1,1,1,1,1,1,1,1,1,1,1,1,1,1,1,1,1,1,1,1,1,1,1,1,1,1,1,1,1,1,1,1,1,1,1,1,1,1,1,1,1,1,1,1,1,1,1,1,1,1,1,1,1,1,1,1,1,1,1,1,1,1,1,1,1,1,1,1,1,1,1,1,1,1,1,1,1,1,1,1,1,1,1,1,1,1,1,1,1,1,1,1,1,1,1,1,1,1,1,1],"number_of_sets":1,"coherent_direction":[159,159,159,56,159,56,159,56,159,56,159,56,56,159,56,159,56,159,159,56,56,56,159,56,159,56,56,56,56,159,159,159,159,159,159,56,159,56,56,159,56,56,159,56,56,159,56,56,56,56,159,56,159,159,159,56,56,56,56,56,159,159,159,56,159,159,159,159,159,159,159,56,56,159,159,56,159,159,159,159,159,56,56,159,159,56,56,159,159,159,159,56,56,56,56,56,56,159,56,56,159,56,159,159,56,56,159,56,56,56,56,159,159,56,159,56,56,56,159,159,56,159,159,56,56,56,159,56,56,159,159,159,159,56,56,56,159,56,159,159,56,159,56,159,56,56,56,56,159,56,159,159,159,56,159,159,159,159,159,159,56,56,56,159,159,159,56,56,159,159,56,56,56,56,159,56,159,56,159,159,56,159,159,56,159,56,56,159,56,159,56,56,56,159,56,56,56,159,159,159],"coherence":1,"opposite_coherence":0,"dot_radius":2,"dot_side_length":1,"dot_life":-1,"move_distance":1,"aperture_width":300,"aperture_height":300,"dot_color":["white","white","white","black","white","black","white","black","white","black","white","black","black","white","black","white","black","white","white","black","black","black","white","black","white","black","black","black","black","white","white","white","white","white","white","black","white","black","black","white","black","black","white","black","black","white","black","black","black","black","white","black","white","white","white","black","black","black","black","black","white","white","white","black","white","white","white","white","white","white","white","black","black","white","white","black","white","white","white","white","white","black","black","white","white","black","black","white","white","white","white","black","black","black","black","black","black","white","black","black","white","black","white","white","black","black","white","black","black","black","black","white","white","black","white","black","black","black","white","white","black","white","white","black","black","black","white","black","black","white","white","white","white","black","black","black","white","black","white","white","black","white","black","white","black","black","black","black","white","black","white","white","white","black","white","white","white","white","white","white","black","black","black","white","white","white","black","black","white","white","black","black","black","black","white","black","white","black","white","white","black","white","white","black","white","black","black","white","black","white","black","black","black","white","black","black","black","white","white","white"],"dot_shape":"circle","background_color":"#AAA","RDK_type":3,"aperture_type":2,"reinsert_type":2,"frame_rate":17.025210084033613,"frame_rate_array":[22,17,17,17,17,17,17,16,18,17,16,18,17,17,17,17,17,17,17,17,17,17,17,17,17,17,17,17,17,16,18,17,16,17,17,17,17,17,17,17,17,17,17,17,16,18,17,17,17,17,17,17,17,17,17,17,17,17,17,17,17,17,17,17,17,17,17,17,17,17,17,17,17,17,17,17,17,17,17,17,17,16,18,17,16,18,17,17,17,17,17,17,17,16,18,17,17,17,17,16,18,17,16,18,17,17,17,17,17,17,17,16,17,17,16,18,17,17,17],"number_of_frames":119,"aperture_center_x":735,"aperture_center_y":459.5,"fixation_cross":true,"fixation_cross_width":15,"fixation_cross_height":15,"fixation_cross_color":"#111","fixation_cross_thickness":1,"border":true,"border_thickness":2,"border_color":"transparent","canvas_width":1470,"canvas_height":919,"trial_type":"rdk","trial_index":80,"plugin_version":"2.0.0","time_elapsed":294058},{"rt":2797,"stimulus":"\n        <div class=\"response-container\">\n          <div class=\"response-instruction\">\n            <p>rotate the bar by using the left and right arrow keys.</p>\n            <p>when you are determined, press the Enter key.</p>\n          </div>\n          <div class=\"response-circle\">\n            <div class=\"response-fixation\"></div>\n            <div id=\"bar\" class=\"rotating-bar\"></div>\n          </div>\n        </div>\n      ","response":"Enter","trial_type":"html-keyboard-response","trial_index":81,"plugin_version":"2.1.0","time_elapsed":296855,"random_initial_angle":338,"response_angle_css":308,"response_angle_rdk":142,"angular_error_target":-17,"angular_error_distractor":86,"target_direction":159,"target_group":"white","reward_points":6},{"rt":null,"stimulus":"\n          <p style=\"color: #00FF00;\">Your reward: 6 points</p>\n        ","response":null,"trial_type":"html-keyboard-response","trial_index":82,"plugin_version":"2.1.0","time_elapsed":298857},{"rt":null,"stimulus":"<div class=\"fixation\" style=\"font-size: 60px;\">+</div>","response":null,"trial_type":"html-keyboard-response","trial_index":83,"plugin_version":"2.1.0","time_elapsed":299859},{"phase":"learning-awareness","target_group":"black","condition_label":"B_H_vs_W_L_rep18","target_direction":247,"distractor_direction":344,"session_rotation":123,"rt":-1,"response":"","correct":false,"choices":"ALL_KEYS","correct_choice":["a"],"trial_duration":2000,"flip_timestamps":[],"response_ends_trial":false,"number_of_apertures":200,"number_of_dots":[1,1,1,1,1,1,1,1,1,1,1,1,1,1,1,1,1,1,1,1,1,1,1,1,1,1,1,1,1,1,1,1,1,1,1,1,1,1,1,1,1,1,1,1,1,1,1,1,1,1,1,1,1,1,1,1,1,1,1,1,1,1,1,1,1,1,1,1,1,1,1,1,1,1,1,1,1,1,1,1,1,1,1,1,1,1,1,1,1,1,1,1,1,1,1,1,1,1,1,1,1,1,1,1,1,1,1,1,1,1,1,1,1,1,1,1,1,1,1,1,1,1,1,1,1,1,1,1,1,1,1,1,1,1,1,1,1,1,1,1,1,1,1,1,1,1,1,1,1,1,1,1,1,1,1,1,1,1,1,1,1,1,1,1,1,1,1,1,1,1,1,1,1,1,1,1,1,1,1,1,1,1,1,1,1,1,1,1,1,1,1,1,1,1,1,1,1,1,1,1],"number_of_sets":1,"coherent_direction":[247,344,247,344,344,247,247,247,247,344,344,344,344,247,247,344,344,344,344,344,344,344,344,247,247,344,344,247,344,247,247,247,247,247,247,344,247,247,247,247,344,247,344,344,247,247,247,247,344,344,247,344,344,344,344,344,344,344,344,247,247,344,344,344,344,344,247,344,344,344,247,247,247,247,247,344,247,344,344,247,247,247,247,247,344,344,344,344,344,344,344,247,344,344,344,247,247,344,247,247,247,344,344,247,344,247,247,247,344,344,344,344,344,344,247,247,344,344,247,247,247,344,344,247,344,247,247,247,247,247,247,344,344,344,247,344,344,247,247,247,247,344,247,247,247,344,344,247,344,344,344,247,247,247,247,247,247,344,247,344,344,344,344,247,344,247,247,344,344,344,247,247,344,247,344,247,247,247,344,247,247,247,247,344,344,247,247,344,247,247,247,344,344,344,247,247,247,344,344,344],"coherence":1,"opposite_coherence":0,"dot_radius":2,"dot_side_length":1,"dot_life":-1,"move_distance":1,"aperture_width":300,"aperture_height":300,"dot_color":["black","white","black","white","white","black","black","black","black","white","white","white","white","black","black","white","white","white","white","white","white","white","white","black","black","white","white","black","white","black","black","black","black","black","black","white","black","black","black","black","white","black","white","white","black","black","black","black","white","white","black","white","white","white","white","white","white","white","white","black","black","white","white","white","white","white","black","white","white","white","black","black","black","black","black","white","black","white","white","black","black","black","black","black","white","white","white","white","white","white","white","black","white","white","white","black","black","white","black","black","black","white","white","black","white","black","black","black","white","white","white","white","white","white","black","black","white","white","black","black","black","white","white","black","white","black","black","black","black","black","black","white","white","white","black","white","white","black","black","black","black","white","black","black","black","white","white","black","white","white","white","black","black","black","black","black","black","white","black","white","white","white","white","black","white","black","black","white","white","white","black","black","white","black","white","black","black","black","white","black","black","black","black","white","white","black","black","white","black","black","black","white","white","white","black","black","black","white","white","white"],"dot_shape":"circle","background_color":"#AAA","RDK_type":3,"aperture_type":2,"reinsert_type":2,"frame_rate":16.983333333333334,"frame_rate_array":[17,17,17,16,18,17,17,17,17,17,17,17,17,17,17,17,16,18,17,17,17,17,16,18,17,17,17,17,17,17,17,17,17,17,17,17,17,17,17,17,17,17,17,17,16,17,17,17,17,17,17,17,17,17,17,17,17,17,17,17,17,17,17,17,17,17,17,17,17,17,17,17,17,17,17,17,17,17,17,17,17,17,17,17,17,17,17,17,17,17,17,17,17,17,17,17,17,17,17,17,17,17,17,17,17,17,15,18,17,17,17,17,17,17,17,17,17,17,17,17],"number_of_frames":120,"aperture_center_x":735,"aperture_center_y":459.5,"fixation_cross":true,"fixation_cross_width":15,"fixation_cross_height":15,"fixation_cross_color":"#111","fixation_cross_thickness":1,"border":true,"border_thickness":2,"border_color":"transparent","canvas_width":1470,"canvas_height":919,"trial_type":"rdk","trial_index":84,"plugin_version":"2.0.0","time_elapsed":301864},{"rt":3232,"stimulus":"\n        <div class=\"response-container\">\n          <div class=\"response-instruction\">\n            <p>rotate the bar by using the left and right arrow keys.</p>\n            <p>when you are determined, press the Enter key.</p>\n          </div>\n          <div class=\"response-circle\">\n            <div class=\"response-fixation\"></div>\n            <div id=\"bar\" class=\"rotating-bar\"></div>\n          </div>\n        </div>\n      ","response":"Enter","trial_type":"html-keyboard-response","trial_index":85,"plugin_version":"2.1.0","time_elapsed":305097,"random_initial_angle":155,"response_angle_css":194,"response_angle_rdk":256,"angular_error_target":9,"angular_error_distractor":-88,"target_direction":247,"target_group":"black","reward_points":8},{"rt":null,"stimulus":"\n          <p style=\"color: #00FF00;\">Your reward: 8 points</p>\n        ","response":null,"trial_type":"html-keyboard-response","trial_index":86,"plugin_version":"2.1.0","time_elapsed":307100},{"rt":null,"stimulus":"<div class=\"fixation\" style=\"font-size: 60px;\">+</div>","response":null,"trial_type":"html-keyboard-response","trial_index":87,"plugin_version":"2.1.0","time_elapsed":308102},{"phase":"learning-awareness","target_group":"black","condition_label":"B_H_vs_W_L_rep21","target_direction":213,"distractor_direction":335,"session_rotation":123,"rt":-1,"response":"","correct":false,"choices":"ALL_KEYS","correct_choice":["a"],"trial_duration":2000,"flip_timestamps":[],"response_ends_trial":false,"number_of_apertures":200,"number_of_dots":[1,1,1,1,1,1,1,1,1,1,1,1,1,1,1,1,1,1,1,1,1,1,1,1,1,1,1,1,1,1,1,1,1,1,1,1,1,1,1,1,1,1,1,1,1,1,1,1,1,1,1,1,1,1,1,1,1,1,1,1,1,1,1,1,1,1,1,1,1,1,1,1,1,1,1,1,1,1,1,1,1,1,1,1,1,1,1,1,1,1,1,1,1,1,1,1,1,1,1,1,1,1,1,1,1,1,1,1,1,1,1,1,1,1,1,1,1,1,1,1,1,1,1,1,1,1,1,1,1,1,1,1,1,1,1,1,1,1,1,1,1,1,1,1,1,1,1,1,1,1,1,1,1,1,1,1,1,1,1,1,1,1,1,1,1,1,1,1,1,1,1,1,1,1,1,1,1,1,1,1,1,1,1,1,1,1,1,1,1,1,1,1,1,1,1,1,1,1,1,1],"number_of_sets":1,"coherent_direction":[213,213,213,213,335,335,335,213,213,335,213,335,213,213,213,335,213,335,335,213,335,213,335,335,335,335,213,213,213,335,213,335,213,335,213,213,335,335,335,335,335,213,213,335,213,335,213,335,335,213,213,335,335,335,213,213,335,335,213,335,213,335,213,213,335,213,213,335,213,335,335,335,213,335,213,335,213,335,213,213,335,335,335,213,213,213,335,335,213,335,335,335,213,213,213,335,335,335,335,335,213,213,213,335,335,213,213,335,335,213,335,335,335,213,335,213,335,213,335,335,213,335,213,213,213,335,335,213,213,335,335,213,335,335,335,213,213,335,213,213,335,335,335,213,213,335,213,213,335,213,335,213,213,335,213,213,213,335,213,335,335,213,335,335,213,335,213,335,335,335,335,213,213,335,213,213,213,335,213,213,213,213,213,335,213,213,335,335,213,213,213,213,213,335,335,335,213,213,335,335],"coherence":1,"opposite_coherence":0,"dot_radius":2,"dot_side_length":1,"dot_life":-1,"move_distance":1,"aperture_width":300,"aperture_height":300,"dot_color":["black","black","black","black","white","white","white","black","black","white","black","white","black","black","black","white","black","white","white","black","white","black","white","white","white","white","black","black","black","white","black","white","black","white","black","black","white","white","white","white","white","black","black","white","black","white","black","white","white","black","black","white","white","white","black","black","white","white","black","white","black","white","black","black","white","black","black","white","black","white","white","white","black","white","black","white","black","white","black","black","white","white","white","black","black","black","white","white","black","white","white","white","black","black","black","white","white","white","white","white","black","black","black","white","white","black","black","white","white","black","white","white","white","black","white","black","white","black","white","white","black","white","black","black","black","white","white","black","black","white","white","black","white","white","white","black","black","white","black","black","white","white","white","black","black","white","black","black","white","black","white","black","black","white","black","black","black","white","black","white","white","black","white","white","black","white","black","white","white","white","white","black","black","white","black","black","black","white","black","black","black","black","black","white","black","black","white","white","black","black","black","black","black","white","white","white","black","black","white","white"],"dot_shape":"circle","background_color":"#AAA","RDK_type":3,"aperture_type":2,"reinsert_type":2,"frame_rate":16.916666666666668,"frame_rate_array":[8,17,17,17,17,17,17,17,17,17,17,17,17,17,17,17,17,17,17,17,17,17,17,17,17,17,17,17,17,17,17,17,17,17,17,17,17,17,17,17,17,17,17,17,17,17,17,17,17,17,16,17,16,18,17,17,17,17,17,17,17,17,17,17,16,18,17,16,18,17,17,17,17,17,17,17,17,17,17,17,17,17,17,17,17,17,17,17,17,17,17,17,17,17,17,17,17,17,17,17,17,17,17,17,16,18,17,17,17,17,17,17,17,17,17,17,17,17,17,17],"number_of_frames":120,"aperture_center_x":735,"aperture_center_y":459.5,"fixation_cross":true,"fixation_cross_width":15,"fixation_cross_height":15,"fixation_cross_color":"#111","fixation_cross_thickness":1,"border":true,"border_thickness":2,"border_color":"transparent","canvas_width":1470,"canvas_height":919,"trial_type":"rdk","trial_index":88,"plugin_version":"2.0.0","time_elapsed":310105},{"rt":5872,"stimulus":"\n        <div class=\"response-container\">\n          <div class=\"response-instruction\">\n            <p>rotate the bar by using the left and right arrow keys.</p>\n            <p>when you are determined, press the Enter key.</p>\n          </div>\n          <div class=\"response-circle\">\n            <div class=\"response-fixation\"></div>\n            <div id=\"bar\" class=\"rotating-bar\"></div>\n          </div>\n        </div>\n      ","response":"Enter","trial_type":"html-keyboard-response","trial_index":89,"plugin_version":"2.1.0","time_elapsed":315978,"random_initial_angle":44,"response_angle_css":-105,"response_angle_rdk":195,"angular_error_target":-18,"angular_error_distractor":-140,"target_direction":213,"target_group":"black","reward_points":6},{"rt":null,"stimulus":"\n          <p style=\"color: #00FF00;\">Your reward: 6 points</p>\n        ","response":null,"trial_type":"html-keyboard-response","trial_index":90,"plugin_version":"2.1.0","time_elapsed":317980},{"rt":null,"stimulus":"<div class=\"fixation\" style=\"font-size: 60px;\">+</div>","response":null,"trial_type":"html-keyboard-response","trial_index":91,"plugin_version":"2.1.0","time_elapsed":318983},{"phase":"learning-awareness","target_group":"white","condition_label":"W_H_vs_B_L_rep13","target_direction":129,"distractor_direction":39,"session_rotation":123,"rt":-1,"response":"","correct":false,"choices":"ALL_KEYS","correct_choice":["a"],"trial_duration":2000,"flip_timestamps":[],"response_ends_trial":false,"number_of_apertures":200,"number_of_dots":[1,1,1,1,1,1,1,1,1,1,1,1,1,1,1,1,1,1,1,1,1,1,1,1,1,1,1,1,1,1,1,1,1,1,1,1,1,1,1,1,1,1,1,1,1,1,1,1,1,1,1,1,1,1,1,1,1,1,1,1,1,1,1,1,1,1,1,1,1,1,1,1,1,1,1,1,1,1,1,1,1,1,1,1,1,1,1,1,1,1,1,1,1,1,1,1,1,1,1,1,1,1,1,1,1,1,1,1,1,1,1,1,1,1,1,1,1,1,1,1,1,1,1,1,1,1,1,1,1,1,1,1,1,1,1,1,1,1,1,1,1,1,1,1,1,1,1,1,1,1,1,1,1,1,1,1,1,1,1,1,1,1,1,1,1,1,1,1,1,1,1,1,1,1,1,1,1,1,1,1,1,1,1,1,1,1,1,1,1,1,1,1,1,1,1,1,1,1,1,1],"number_of_sets":1,"coherent_direction":[129,129,39,129,129,39,39,129,129,129,129,39,129,129,129,39,129,129,39,129,39,39,39,129,129,129,39,39,129,39,39,39,129,39,39,39,39,129,129,39,129,129,39,129,129,39,129,39,129,39,129,39,39,39,129,39,129,39,129,129,39,129,129,39,129,39,129,129,129,39,129,39,129,39,39,129,129,129,129,39,39,129,129,39,129,39,39,39,129,39,39,129,129,129,129,39,39,39,39,39,129,129,39,39,129,39,39,39,39,129,39,39,129,129,39,39,129,129,129,39,129,129,39,39,129,129,39,39,129,39,129,129,39,129,39,129,39,129,39,39,39,39,39,129,129,129,39,39,129,129,39,39,39,39,129,39,39,129,39,39,39,129,39,39,129,39,129,39,129,129,129,129,39,129,39,129,39,39,129,39,39,129,129,129,39,129,129,129,39,39,129,129,39,129,129,39,39,129,129,39],"coherence":1,"opposite_coherence":0,"dot_radius":2,"dot_side_length":1,"dot_life":-1,"move_distance":1,"aperture_width":300,"aperture_height":300,"dot_color":["white","white","black","white","white","black","black","white","white","white","white","black","white","white","white","black","white","white","black","white","black","black","black","white","white","white","black","black","white","black","black","black","white","black","black","black","black","white","white","black","white","white","black","white","white","black","white","black","white","black","white","black","black","black","white","black","white","black","white","white","black","white","white","black","white","black","white","white","white","black","white","black","white","black","black","white","white","white","white","black","black","white","white","black","white","black","black","black","white","black","black","white","white","white","white","black","black","black","black","black","white","white","black","black","white","black","black","black","black","white","black","black","white","white","black","black","white","white","white","black","white","white","black","black","white","white","black","black","white","black","white","white","black","white","black","white","black","white","black","black","black","black","black","white","white","white","black","black","white","white","black","black","black","black","white","black","black","white","black","black","black","white","black","black","white","black","white","black","white","white","white","white","black","white","black","white","black","black","white","black","black","white","white","white","black","white","white","white","black","black","white","white","black","white","white","black","black","white","white","black"],"dot_shape":"circle","background_color":"#AAA","RDK_type":3,"aperture_type":2,"reinsert_type":2,"frame_rate":16.925,"frame_rate_array":[10,17,17,17,17,17,17,17,17,17,17,17,17,17,17,17,17,17,17,17,17,17,17,17,17,17,17,16,18,17,17,17,17,17,17,17,17,17,17,17,17,17,17,17,17,17,17,17,17,17,17,16,18,17,17,17,16,17,17,17,17,17,17,17,17,17,17,17,17,17,17,17,17,17,16,18,17,17,17,17,17,17,17,17,17,17,17,17,17,17,17,17,17,17,17,17,17,17,17,17,17,17,17,17,17,17,16,17,17,17,17,17,17,17,16,18,17,17,17,17],"number_of_frames":120,"aperture_center_x":735,"aperture_center_y":459.5,"fixation_cross":true,"fixation_cross_width":15,"fixation_cross_height":15,"fixation_cross_color":"#111","fixation_cross_thickness":1,"border":true,"border_thickness":2,"border_color":"transparent","canvas_width":1470,"canvas_height":919,"trial_type":"rdk","trial_index":92,"plugin_version":"2.0.0","time_elapsed":320985},{"rt":4821,"stimulus":"\n        <div class=\"response-container\">\n          <div class=\"response-instruction\">\n            <p>rotate the bar by using the left and right arrow keys.</p>\n            <p>when you are determined, press the Enter key.</p>\n          </div>\n          <div class=\"response-circle\">\n            <div class=\"response-fixation\"></div>\n            <div id=\"bar\" class=\"rotating-bar\"></div>\n          </div>\n        </div>\n      ","response":"Enter","trial_type":"html-keyboard-response","trial_index":93,"plugin_version":"2.1.0","time_elapsed":325807,"random_initial_angle":193,"response_angle_css":298,"response_angle_rdk":152,"angular_error_target":23,"angular_error_distractor":113,"target_direction":129,"target_group":"white","reward_points":5},{"rt":null,"stimulus":"\n          <p style=\"color: #00FF00;\">Your reward: 5 points</p>\n        ","response":null,"trial_type":"html-keyboard-response","trial_index":94,"plugin_version":"2.1.0","time_elapsed":327810},{"rt":null,"stimulus":"<div class=\"fixation\" style=\"font-size: 60px;\">+</div>","response":null,"trial_type":"html-keyboard-response","trial_index":95,"plugin_version":"2.1.0","time_elapsed":328813},{"phase":"learning-awareness","target_group":"black","condition_label":"B_H_vs_W_L_rep8","target_direction":221,"distractor_direction":331,"session_rotation":123,"rt":-1,"response":"","correct":false,"choices":"ALL_KEYS","correct_choice":["a"],"trial_duration":2000,"flip_timestamps":[],"response_ends_trial":false,"number_of_apertures":200,"number_of_dots":[1,1,1,1,1,1,1,1,1,1,1,1,1,1,1,1,1,1,1,1,1,1,1,1,1,1,1,1,1,1,1,1,1,1,1,1,1,1,1,1,1,1,1,1,1,1,1,1,1,1,1,1,1,1,1,1,1,1,1,1,1,1,1,1,1,1,1,1,1,1,1,1,1,1,1,1,1,1,1,1,1,1,1,1,1,1,1,1,1,1,1,1,1,1,1,1,1,1,1,1,1,1,1,1,1,1,1,1,1,1,1,1,1,1,1,1,1,1,1,1,1,1,1,1,1,1,1,1,1,1,1,1,1,1,1,1,1,1,1,1,1,1,1,1,1,1,1,1,1,1,1,1,1,1,1,1,1,1,1,1,1,1,1,1,1,1,1,1,1,1,1,1,1,1,1,1,1,1,1,1,1,1,1,1,1,1,1,1,1,1,1,1,1,1,1,1,1,1,1,1],"number_of_sets":1,"coherent_direction":[331,331,331,331,221,221,331,221,221,331,221,331,221,221,331,331,221,331,221,331,221,331,331,221,331,331,331,221,221,221,331,331,221,221,331,331,221,221,331,331,331,221,221,221,221,221,331,331,331,221,221,331,331,221,221,331,331,331,331,221,331,331,221,331,331,221,221,221,221,331,221,331,331,331,331,221,221,221,331,221,331,331,331,221,331,221,331,331,331,221,331,331,221,221,221,221,221,221,221,331,331,221,331,221,331,221,331,221,331,221,221,331,221,331,221,221,331,331,221,331,221,331,221,331,331,221,221,221,221,331,221,331,221,331,221,221,331,331,221,331,331,331,331,221,221,221,221,221,331,221,221,221,331,331,331,331,331,331,331,221,331,221,331,331,221,221,221,331,221,221,221,331,221,221,331,331,221,331,221,331,221,331,221,331,331,221,221,331,331,221,221,331,221,331,221,221,221,331,331,221],"coherence":1,"opposite_coherence":0,"dot_radius":2,"dot_side_length":1,"dot_life":-1,"move_distance":1,"aperture_width":300,"aperture_height":300,"dot_color":["white","white","white","white","black","black","white","black","black","white","black","white","black","black","white","white","black","white","black","white","black","white","white","black","white","white","white","black","black","black","white","white","black","black","white","white","black","black","white","white","white","black","black","black","black","black","white","white","white","black","black","white","white","black","black","white","white","white","white","black","white","white","black","white","white","black","black","black","black","white","black","white","white","white","white","black","black","black","white","black","white","white","white","black","white","black","white","white","white","black","white","white","black","black","black","black","black","black","black","white","white","black","white","black","white","black","white","black","white","black","black","white","black","white","black","black","white","white","black","white","black","white","black","white","white","black","black","black","black","white","black","white","black","white","black","black","white","white","black","white","white","white","white","black","black","black","black","black","white","black","black","black","white","white","white","white","white","white","white","black","white","black","white","white","black","black","black","white","black","black","black","white","black","black","white","white","black","white","black","white","black","white","black","white","white","black","black","white","white","black","black","white","black","white","black","black","black","white","white","black"],"dot_shape":"circle","background_color":"#AAA","RDK_type":3,"aperture_type":2,"reinsert_type":2,"frame_rate":16.925,"frame_rate_array":[14,17,16,17,17,17,17,17,17,17,17,17,17,17,17,17,15,18,17,17,17,17,16,18,17,16,18,17,17,17,17,17,16,17,17,17,17,17,17,17,17,17,17,17,17,17,17,17,17,17,17,17,17,17,17,17,16,18,17,17,17,16,17,17,17,17,17,17,17,17,17,17,17,17,17,17,17,17,17,17,17,17,17,17,17,17,17,17,16,17,17,17,17,17,17,17,17,16,18,17,17,17,17,17,17,17,17,17,17,17,17,17,17,16,17,17,17,17,16,18],"number_of_frames":120,"aperture_center_x":735,"aperture_center_y":459.5,"fixation_cross":true,"fixation_cross_width":15,"fixation_cross_height":15,"fixation_cross_color":"#111","fixation_cross_thickness":1,"border":true,"border_thickness":2,"border_color":"transparent","canvas_width":1470,"canvas_height":919,"trial_type":"rdk","trial_index":96,"plugin_version":"2.0.0","time_elapsed":330815},{"rt":5549,"stimulus":"\n        <div class=\"response-container\">\n          <div class=\"response-instruction\">\n            <p>rotate the bar by using the left and right arrow keys.</p>\n            <p>when you are determined, press the Enter key.</p>\n          </div>\n          <div class=\"response-circle\">\n            <div class=\"response-fixation\"></div>\n            <div id=\"bar\" class=\"rotating-bar\"></div>\n          </div>\n        </div>\n      ","response":"Enter","trial_type":"html-keyboard-response","trial_index":97,"plugin_version":"2.1.0","time_elapsed":336365,"random_initial_angle":63,"response_angle_css":-133,"response_angle_rdk":223,"angular_error_target":2,"angular_error_distractor":-108,"target_direction":221,"target_group":"black","reward_points":9},{"rt":null,"stimulus":"\n          <p style=\"color: #00FF00;\">Your reward: 9 points</p>\n        ","response":null,"trial_type":"html-keyboard-response","trial_index":98,"plugin_version":"2.1.0","time_elapsed":338367},{"rt":null,"stimulus":"<div class=\"fixation\" style=\"font-size: 60px;\">+</div>","response":null,"trial_type":"html-keyboard-response","trial_index":99,"plugin_version":"2.1.0","time_elapsed":339369},{"phase":"learning-awareness","target_group":"black","condition_label":"B_H_vs_W_L_rep15","target_direction":224,"distractor_direction":318,"session_rotation":123,"rt":-1,"response":"","correct":false,"choices":"ALL_KEYS","correct_choice":["a"],"trial_duration":2000,"flip_timestamps":[],"response_ends_trial":false,"number_of_apertures":200,"number_of_dots":[1,1,1,1,1,1,1,1,1,1,1,1,1,1,1,1,1,1,1,1,1,1,1,1,1,1,1,1,1,1,1,1,1,1,1,1,1,1,1,1,1,1,1,1,1,1,1,1,1,1,1,1,1,1,1,1,1,1,1,1,1,1,1,1,1,1,1,1,1,1,1,1,1,1,1,1,1,1,1,1,1,1,1,1,1,1,1,1,1,1,1,1,1,1,1,1,1,1,1,1,1,1,1,1,1,1,1,1,1,1,1,1,1,1,1,1,1,1,1,1,1,1,1,1,1,1,1,1,1,1,1,1,1,1,1,1,1,1,1,1,1,1,1,1,1,1,1,1,1,1,1,1,1,1,1,1,1,1,1,1,1,1,1,1,1,1,1,1,1,1,1,1,1,1,1,1,1,1,1,1,1,1,1,1,1,1,1,1,1,1,1,1,1,1,1,1,1,1,1,1],"number_of_sets":1,"coherent_direction":[318,318,318,318,224,224,318,224,224,318,318,224,318,224,318,224,224,318,318,224,224,318,224,224,224,224,224,224,224,318,224,224,318,224,318,318,318,224,224,224,318,224,224,318,224,318,318,318,318,318,318,224,224,318,318,318,224,224,318,318,318,318,318,318,224,318,224,224,318,318,224,318,224,318,224,318,224,318,224,224,318,318,224,224,318,224,224,318,224,318,318,318,318,318,224,318,318,224,224,224,318,224,318,224,224,318,318,318,224,318,224,224,224,224,318,318,224,224,224,318,224,318,318,318,318,224,224,318,318,318,318,224,318,318,318,318,224,318,224,224,318,224,318,318,224,318,318,224,224,224,318,224,224,318,224,224,318,318,224,318,224,318,224,318,224,224,224,224,224,224,318,224,224,318,224,318,318,318,318,224,224,224,224,224,318,318,318,318,318,224,224,224,224,318,224,224,318,318,224,224],"coherence":1,"opposite_coherence":0,"dot_radius":2,"dot_side_length":1,"dot_life":-1,"move_distance":1,"aperture_width":300,"aperture_height":300,"dot_color":["white","white","white","white","black","black","white","black","black","white","white","black","white","black","white","black","black","white","white","black","black","white","black","black","black","black","black","black","black","white","black","black","white","black","white","white","white","black","black","black","white","black","black","white","black","white","white","white","white","white","white","black","black","white","white","white","black","black","white","white","white","white","white","white","black","white","black","black","white","white","black","white","black","white","black","white","black","white","black","black","white","white","black","black","white","black","black","white","black","white","white","white","white","white","black","white","white","black","black","black","white","black","white","black","black","white","white","white","black","white","black","black","black","black","white","white","black","black","black","white","black","white","white","white","white","black","black","white","white","white","white","black","white","white","white","white","black","white","black","black","white","black","white","white","black","white","white","black","black","black","white","black","black","white","black","black","white","white","black","white","black","white","black","white","black","black","black","black","black","black","white","black","black","white","black","white","white","white","white","black","black","black","black","black","white","white","white","white","white","black","black","black","black","white","black","black","white","white","black","black"],"dot_shape":"circle","background_color":"#AAA","RDK_type":3,"aperture_type":2,"reinsert_type":2,"frame_rate":17.058823529411764,"frame_rate_array":[25,17,16,17,17,17,17,17,17,17,17,17,17,17,17,17,17,17,17,17,17,17,17,17,17,17,17,17,17,17,17,17,17,17,17,17,17,17,17,17,17,17,17,17,17,16,18,17,17,17,17,17,17,17,17,17,17,17,17,17,17,17,17,17,17,17,17,17,17,17,17,17,17,17,17,17,17,17,17,17,17,17,17,17,17,17,17,17,17,17,17,17,17,17,17,17,17,17,17,17,17,17,17,17,17,17,17,17,17,17,17,17,17,17,17,17,17,17,17],"number_of_frames":119,"aperture_center_x":735,"aperture_center_y":459.5,"fixation_cross":true,"fixation_cross_width":15,"fixation_cross_height":15,"fixation_cross_color":"#111","fixation_cross_thickness":1,"border":true,"border_thickness":2,"border_color":"transparent","canvas_width":1470,"canvas_height":919,"trial_type":"rdk","trial_index":100,"plugin_version":"2.0.0","time_elapsed":341373},{"rt":3523,"stimulus":"\n        <div class=\"response-container\">\n          <div class=\"response-instruction\">\n            <p>rotate the bar by using the left and right arrow keys.</p>\n            <p>when you are determined, press the Enter key.</p>\n          </div>\n          <div class=\"response-circle\">\n            <div class=\"response-fixation\"></div>\n            <div id=\"bar\" class=\"rotating-bar\"></div>\n          </div>\n        </div>\n      ","response":"Enter","trial_type":"html-keyboard-response","trial_index":101,"plugin_version":"2.1.0","time_elapsed":344897,"random_initial_angle":333,"response_angle_css":243,"response_angle_rdk":207,"angular_error_target":-17,"angular_error_distractor":-111,"target_direction":224,"target_group":"black","reward_points":6},{"rt":null,"stimulus":"\n          <p style=\"color: #00FF00;\">Your reward: 6 points</p>\n        ","response":null,"trial_type":"html-keyboard-response","trial_index":102,"plugin_version":"2.1.0","time_elapsed":346899},{"rt":null,"stimulus":"<div class=\"fixation\" style=\"font-size: 60px;\">+</div>","response":null,"trial_type":"html-keyboard-response","trial_index":103,"plugin_version":"2.1.0","time_elapsed":347902},{"phase":"learning-awareness","target_group":"white","condition_label":"W_H_vs_B_L_rep20","target_direction":153,"distractor_direction":45,"session_rotation":123,"rt":-1,"response":"","correct":false,"choices":"ALL_KEYS","correct_choice":["a"],"trial_duration":2000,"flip_timestamps":[],"response_ends_trial":false,"number_of_apertures":200,"number_of_dots":[1,1,1,1,1,1,1,1,1,1,1,1,1,1,1,1,1,1,1,1,1,1,1,1,1,1,1,1,1,1,1,1,1,1,1,1,1,1,1,1,1,1,1,1,1,1,1,1,1,1,1,1,1,1,1,1,1,1,1,1,1,1,1,1,1,1,1,1,1,1,1,1,1,1,1,1,1,1,1,1,1,1,1,1,1,1,1,1,1,1,1,1,1,1,1,1,1,1,1,1,1,1,1,1,1,1,1,1,1,1,1,1,1,1,1,1,1,1,1,1,1,1,1,1,1,1,1,1,1,1,1,1,1,1,1,1,1,1,1,1,1,1,1,1,1,1,1,1,1,1,1,1,1,1,1,1,1,1,1,1,1,1,1,1,1,1,1,1,1,1,1,1,1,1,1,1,1,1,1,1,1,1,1,1,1,1,1,1,1,1,1,1,1,1,1,1,1,1,1,1],"number_of_sets":1,"coherent_direction":[45,153,45,153,45,153,45,153,153,153,45,153,45,45,153,153,45,45,153,45,45,153,153,45,45,45,153,153,45,45,45,153,153,153,153,45,153,153,45,45,45,153,45,153,45,153,45,45,45,153,45,153,153,153,153,153,153,153,153,153,153,153,45,45,45,153,153,153,153,45,45,153,153,153,153,153,45,153,153,153,45,45,45,153,153,45,45,45,45,153,45,45,45,45,45,45,153,153,45,153,45,45,153,153,45,45,153,45,153,153,45,45,45,153,153,45,45,45,153,45,45,45,45,153,45,153,45,45,45,153,45,45,153,153,45,45,45,45,45,153,153,45,45,153,153,153,153,45,45,45,45,153,45,45,45,153,45,153,153,153,45,153,153,153,153,153,45,153,45,45,45,45,45,45,153,45,153,153,153,45,153,153,45,153,45,153,45,153,153,45,153,153,45,153,153,153,45,153,153,45],"coherence":1,"opposite_coherence":0,"dot_radius":2,"dot_side_length":1,"dot_life":-1,"move_distance":1,"aperture_width":300,"aperture_height":300,"dot_color":["black","white","black","white","black","white","black","white","white","white","black","white","black","black","white","white","black","black","white","black","black","white","white","black","black","black","white","white","black","black","black","white","white","white","white","black","white","white","black","black","black","white","black","white","black","white","black","black","black","white","black","white","white","white","white","white","white","white","white","white","white","white","black","black","black","white","white","white","white","black","black","white","white","white","white","white","black","white","white","white","black","black","black","white","white","black","black","black","black","white","black","black","black","black","black","black","white","white","black","white","black","black","white","white","black","black","white","black","white","white","black","black","black","white","white","black","black","black","white","black","black","black","black","white","black","white","black","black","black","white","black","black","white","white","black","black","black","black","black","white","white","black","black","white","white","white","white","black","black","black","black","white","black","black","black","white","black","white","white","white","black","white","white","white","white","white","black","white","black","black","black","black","black","black","white","black","white","white","white","black","white","white","black","white","black","white","black","white","white","black","white","white","black","white","white","white","black","white","white","black"],"dot_shape":"circle","background_color":"#AAA","RDK_type":3,"aperture_type":2,"reinsert_type":2,"frame_rate":16.908333333333335,"frame_rate_array":[8,17,16,17,17,17,17,17,17,17,17,17,17,17,17,17,17,17,17,17,17,17,17,17,17,17,17,17,17,17,17,17,17,16,18,17,17,17,17,17,17,17,16,17,17,17,17,17,17,17,17,17,17,17,17,17,17,17,17,17,17,17,17,17,17,17,17,17,17,17,17,17,17,17,17,17,16,18,17,17,17,17,17,17,17,17,17,17,17,17,17,17,17,17,17,17,17,17,17,17,17,17,17,17,17,17,17,17,17,17,17,17,17,17,17,17,17,17,17,17],"number_of_frames":120,"aperture_center_x":735,"aperture_center_y":459.5,"fixation_cross":true,"fixation_cross_width":15,"fixation_cross_height":15,"fixation_cross_color":"#111","fixation_cross_thickness":1,"border":true,"border_thickness":2,"border_color":"transparent","canvas_width":1470,"canvas_height":919,"trial_type":"rdk","trial_index":104,"plugin_version":"2.0.0","time_elapsed":349904},{"rt":3438,"stimulus":"\n        <div class=\"response-container\">\n          <div class=\"response-instruction\">\n            <p>rotate the bar by using the left and right arrow keys.</p>\n            <p>when you are determined, press the Enter key.</p>\n          </div>\n          <div class=\"response-circle\">\n            <div class=\"response-fixation\"></div>\n            <div id=\"bar\" class=\"rotating-bar\"></div>\n          </div>\n        </div>\n      ","response":"Enter","trial_type":"html-keyboard-response","trial_index":105,"plugin_version":"2.1.0","time_elapsed":353343,"random_initial_angle":330,"response_angle_css":393,"response_angle_rdk":57,"angular_error_target":-96,"angular_error_distractor":12,"target_direction":153,"target_group":"white","reward_points":0},{"rt":null,"stimulus":"\n          <p style=\"color: #FF3333;\">Your reward: 0 points</p>\n        ","response":null,"trial_type":"html-keyboard-response","trial_index":106,"plugin_version":"2.1.0","time_elapsed":