[{"rt":3622,"stimulus":"Welcome to the experiment. Press any key to begin.","response":" ","trial_type":"html-keyboard-response","trial_index":0,"plugin_version":"2.1.0","time_elapsed":3627},{"rt":70109,"stimulus":"\n        <div class=\"instructions-container\">\n          <h2>Instructions</h2>\n\n          <p>\n          In this experiment, you will see <strong>two Random Dot Kinematograms (RDKs)</strong> displayed simultaneously.\n          </p>\n\n          <p>\n          An RDK is a visual stimulus consisting of many small dots that move coherently in a single direction. \n          In this experiment, the dots will be either <strong>white</strong> or <strong>black</strong> \n          (see the short demo below for an example of an RDK stimulus).\n          </p>\n\n          <p>\n          On each trial, the two RDKs will move in different directions. \n          Your task is to decide <strong>which RDK appears to contain more dots</strong>.\n          </p>\n\n          <p>\n          The RDK that you judge to have more dots is called the <strong>target RDK</strong>. \n          For example, if the white RDK appears to have more dots than the black RDK, \n          you should report the motion direction of the white RDK.\n          </p>\n\n          <p>\n          After viewing the RDKs, you will rotate a bar to indicate the perceived direction of the target RDK \n          using the <strong>left</strong> and <strong>right arrow keys</strong>. \n          Press <strong>Enter</strong> when you are satisfied with your response.\n          When the bar is held down, the rotation speed increases.\n          </p>\n\n          <p>\n          You will receive points based on the <strong>accuracy of your response</strong>, \n          and your final <strong>bonus reward</strong> may depend on your overall performance. \n          Please try to respond as accurately as possible.\n          </p>\n\n          <p>\n          You will first complete <strong>16 practice trials</strong>. \n          Press the <strong>Enter</strong> key to start the practice phase.\n          </p>\n\n          <canvas id=\"instruction-demo-rdk\" width=\"200\" height=\"200\"style=\"display:block;margin:12px auto; border-radius: 50%;\"></canvas>\n        </div>\n      ","response":"Enter","trial_type":"html-keyboard-response","trial_index":1,"plugin_version":"2.1.0","time_elapsed":73738},{"rt":null,"stimulus":"<div class=\"fixation\" style=\"font-size: 60px;\">+</div>","response":null,"trial_type":"html-keyboard-response","trial_index":2,"plugin_version":"2.1.0","time_elapsed":74740},{"target_group":"black","target_index":1,"condition_label":"practice","rt":-1,"response":"","correct":false,"choices":"ALL_KEYS","correct_choice":["a"],"trial_duration":2000,"flip_timestamps":[],"response_ends_trial":false,"number_of_apertures":2,"number_of_dots":[61,100],"number_of_sets":1,"coherent_direction":[277,56],"coherence":1,"opposite_coherence":0,"dot_radius":2,"dot_side_length":1,"dot_life":-1,"move_distance":1,"aperture_width":300,"aperture_height":300,"dot_color":["white","black"],"dot_shape":"circle","background_color":"#AAA","RDK_type":3,"aperture_type":2,"reinsert_type":2,"frame_rate":20.03,"frame_rate_array":[18,20,20,21,20,20,20,20,20,20,20,20,20,20,20,20,30,12,20,27,11,21,20,19,21,20,19,20,22,19,20,24,21,29,6,25,28,10,18,20,19,20,20,20,20,20,20,20,20,20,21,20,20,20,20,20,20,20,20,21,20,20,20,20,20,20,20,20,20,20,20,21,20,20,20,20,20,20,20,20,20,20,20,20,20,20,20,20,20,20,20,20,20,20,20,20,20,20,20,20],"number_of_frames":100,"aperture_center_x":640,"aperture_center_y":360,"fixation_cross":true,"fixation_cross_width":15,"fixation_cross_height":15,"fixation_cross_color":"#111","fixation_cross_thickness":1,"border":true,"border_thickness":2,"border_color":"transparent","canvas_width":1280,"canvas_height":720,"trial_type":"rdk","trial_index":3,"plugin_version":"2.0.0","time_elapsed":76753,"phase":"practice","target_direction":56,"distractor_direction":277},{"rt":28247,"stimulus":"\n        <div class=\"response-container\">\n          <div class=\"response-instruction\">\n            <p>rotate the bar by using the left and right arrow keys.</p>\n            <p>when you are determined, press the Enter key.</p>\n          </div>\n          <div class=\"response-circle\">\n            <div class=\"response-fixation\"></div>\n            <div id=\"bar\" class=\"rotating-bar\"></div>\n          </div>\n        </div>\n      ","response":"Enter","trial_type":"html-keyboard-response","trial_index":4,"plugin_version":"2.1.0","time_elapsed":105002,"random_initial_angle":83,"response_angle_css":63,"response_angle_rdk":27,"angular_error_target":-29,"angular_error_distractor":110,"target_direction":56,"target_group":"black","reward_points":4},{"rt":null,"stimulus":"\n          <p style=\"color: #00FF00;\">Your reward: 4 points</p>\n        ","response":null,"trial_type":"html-keyboard-response","trial_index":5,"plugin_version":"2.1.0","time_elapsed":107004},{"rt":null,"stimulus":"<div class=\"fixation\" style=\"font-size: 60px;\">+</div>","response":null,"trial_type":"html-keyboard-response","trial_index":6,"plugin_version":"2.1.0","time_elapsed":108006},{"target_group":"black","target_index":1,"condition_label":"practice","rt":-1,"response":"","correct":false,"choices":"ALL_KEYS","correct_choice":["a"],"trial_duration":2000,"flip_timestamps":[],"response_ends_trial":false,"number_of_apertures":2,"number_of_dots":[84,100],"number_of_sets":1,"coherent_direction":[222,0],"coherence":1,"opposite_coherence":0,"dot_radius":2,"dot_side_length":1,"dot_life":-1,"move_distance":1,"aperture_width":300,"aperture_height":300,"dot_color":["white","black"],"dot_shape":"circle","background_color":"#AAA","RDK_type":3,"aperture_type":2,"reinsert_type":2,"frame_rate":19.81188118811881,"frame_rate_array":[4,10,20,20,20,20,21,21,20,20,20,20,20,20,20,21,19,21,19,20,20,21,20,20,20,21,20,20,19,20,19,20,20,20,20,20,20,20,20,20,21,20,20,21,21,20,20,21,20,21,20,20,20,20,20,19,20,19,20,20,20,21,20,20,20,21,20,21,19,20,20,21,19,20,20,20,20,21,19,20,20,21,18,20,20,20,20,20,20,20,20,20,20,20,21,20,21,19,21,19,20],"number_of_frames":101,"aperture_center_x":640,"aperture_center_y":360,"fixation_cross":true,"fixation_cross_width":15,"fixation_cross_height":15,"fixation_cross_color":"#111","fixation_cross_thickness":1,"border":true,"border_thickness":2,"border_color":"transparent","canvas_width":1280,"canvas_height":720,"trial_type":"rdk","trial_index":7,"plugin_version":"2.0.0","time_elapsed":110015,"phase":"practice","target_direction":0,"distractor_direction":222},{"rt":11585,"stimulus":"\n        <div class=\"response-container\">\n          <div class=\"response-instruction\">\n            <p>rotate the bar by using the left and right arrow keys.</p>\n            <p>when you are determined, press the Enter key.</p>\n          </div>\n          <div class=\"response-circle\">\n            <div class=\"response-fixation\"></div>\n            <div id=\"bar\" class=\"rotating-bar\"></div>\n          </div>\n        </div>\n      ","response":"Enter","trial_type":"html-keyboard-response","trial_index":8,"plugin_version":"2.1.0","time_elapsed":121602,"random_initial_angle":305,"response_angle_css":452,"response_angle_rdk":358,"angular_error_target":-2,"angular_error_distractor":136,"target_direction":0,"target_group":"black","reward_points":9},{"rt":null,"stimulus":"\n          <p style=\"color: #00FF00;\">Your reward: 9 points</p>\n        ","response":null,"trial_type":"html-keyboard-response","trial_index":9,"plugin_version":"2.1.0","time_elapsed":123605},{"rt":null,"stimulus":"<div class=\"fixation\" style=\"font-size: 60px;\">+</div>","response":null,"trial_type":"html-keyboard-response","trial_index":10,"plugin_version":"2.1.0","time_elapsed":124607},{"target_group":"black","target_index":1,"condition_label":"practice","rt":-1,"response":"","correct":false,"choices":"ALL_KEYS","correct_choice":["a"],"trial_duration":2000,"flip_timestamps":[],"response_ends_trial":false,"number_of_apertures":2,"number_of_dots":[78,100],"number_of_sets":1,"coherent_direction":[280,48],"coherence":1,"opposite_coherence":0,"dot_radius":2,"dot_side_length":1,"dot_life":-1,"move_distance":1,"aperture_width":300,"aperture_height":300,"dot_color":["white","black"],"dot_shape":"circle","background_color":"#AAA","RDK_type":3,"aperture_type":2,"reinsert_type":2,"frame_rate":19.831683168316832,"frame_rate_array":[2,19,20,20,22,20,19,20,20,20,20,20,20,20,20,20,20,20,20,20,20,21,18,20,21,20,19,20,20,20,20,20,20,20,21,20,21,19,19,20,20,20,20,20,19,21,20,20,20,20,20,20,20,20,20,20,20,20,20,20,20,21,19,20,20,21,20,20,20,19,20,21,20,20,20,20,20,20,20,19,20,20,20,20,20,22,20,20,20,19,21,19,21,20,20,20,20,20,19,21,20],"number_of_frames":101,"aperture_center_x":640,"aperture_center_y":360,"fixation_cross":true,"fixation_cross_width":15,"fixation_cross_height":15,"fixation_cross_color":"#111","fixation_cross_thickness":1,"border":true,"border_thickness":2,"border_color":"transparent","canvas_width":1280,"canvas_height":720,"trial_type":"rdk","trial_index":11,"plugin_version":"2.0.0","time_elapsed":126614,"phase":"practice","target_direction":48,"distractor_direction":280},{"rt":10324,"stimulus":"\n        <div class=\"response-container\">\n          <div class=\"response-instruction\">\n            <p>rotate the bar by using the left and right arrow keys.</p>\n            <p>when you are determined, press the Enter key.</p>\n          </div>\n          <div class=\"response-circle\">\n            <div class=\"response-fixation\"></div>\n            <div id=\"bar\" class=\"rotating-bar\"></div>\n          </div>\n        </div>\n      ","response":"Enter","trial_type":"html-keyboard-response","trial_index":12,"plugin_version":"2.1.0","time_elapsed":136939,"random_initial_angle":346,"response_angle_css":545,"response_angle_rdk":265,"angular_error_target":-143,"angular_error_distractor":-15,"target_direction":48,"target_group":"black","reward_points":0},{"rt":null,"stimulus":"\n          <p style=\"color: #FF3333;\">Your reward: 0 points</p>\n        ","response":null,"trial_type":"html-keyboard-response","trial_index":13,"plugin_version":"2.1.0","time_elapsed":138940},{"rt":null,"stimulus":"<div class=\"fixation\" style=\"font-size: 60px;\">+</div>","response":null,"trial_type":"html-keyboard-response","trial_index":14,"plugin_version":"2.1.0","time_elapsed":139944},{"target_group":"black","target_index":1,"condition_label":"practice","rt":-1,"response":"","correct":false,"choices":"ALL_KEYS","correct_choice":["a"],"trial_duration":2000,"flip_timestamps":[],"response_ends_trial":false,"number_of_apertures":2,"number_of_dots":[72,100],"number_of_sets":1,"coherent_direction":[339,138],"coherence":1,"opposite_coherence":0,"dot_radius":2,"dot_side_length":1,"dot_life":-1,"move_distance":1,"aperture_width":300,"aperture_height":300,"dot_color":["white","black"],"dot_shape":"circle","background_color":"#AAA","RDK_type":3,"aperture_type":2,"reinsert_type":2,"frame_rate":19.86,"frame_rate_array":[3,20,20,20,20,21,20,21,20,20,20,21,20,19,20,20,20,20,20,20,20,20,20,20,20,20,20,18,20,20,20,20,20,21,20,20,20,20,20,20,20,21,20,20,20,20,20,20,20,20,21,19,20,20,19,20,20,20,20,20,20,20,20,20,20,20,20,20,21,20,20,20,20,20,20,20,20,20,20,20,20,19,20,20,20,20,20,20,20,21,20,20,20,20,20,20,20,20,20,21],"number_of_frames":100,"aperture_center_x":640,"aperture_center_y":360,"fixation_cross":true,"fixation_cross_width":15,"fixation_cross_height":15,"fixation_cross_color":"#111","fixation_cross_thickness":1,"border":true,"border_thickness":2,"border_color":"transparent","canvas_width":1280,"canvas_height":720,"trial_type":"rdk","trial_index":15,"plugin_version":"2.0.0","time_elapsed":141949,"phase":"practice","target_direction":138,"distractor_direction":339},{"rt":7480,"stimulus":"\n        <div class=\"response-container\">\n          <div class=\"response-instruction\">\n            <p>rotate the bar by using the left and right arrow keys.</p>\n            <p>when you are determined, press the Enter key.</p>\n          </div>\n          <div class=\"response-circle\">\n            <div class=\"response-fixation\"></div>\n            <div id=\"bar\" class=\"rotating-bar\"></div>\n          </div>\n        </div>\n      ","response":"Enter","trial_type":"html-keyboard-response","trial_index":16,"plugin_version":"2.1.0","time_elapsed":149432,"random_initial_angle":243,"response_angle_css":294,"response_angle_rdk":156,"angular_error_target":18,"angular_error_distractor":177,"target_direction":138,"target_group":"black","reward_points":6},{"rt":null,"stimulus":"\n          <p style=\"color: #00FF00;\">Your reward: 6 points</p>\n        ","response":null,"trial_type":"html-keyboard-response","trial_index":17,"plugin_version":"2.1.0","time_elapsed":151433},{"rt":null,"stimulus":"<div class=\"fixation\" style=\"font-size: 60px;\">+</div>","response":null,"trial_type":"html-keyboard-response","trial_index":18,"plugin_version":"2.1.0","time_elapsed":152437},{"target_group":"white","target_index":0,"condition_label":"practice","rt":-1,"response":"","correct":false,"choices":"ALL_KEYS","correct_choice":["a"],"trial_duration":2000,"flip_timestamps":[],"response_ends_trial":false,"number_of_apertures":2,"number_of_dots":[100,77],"number_of_sets":1,"coherent_direction":[93,321],"coherence":1,"opposite_coherence":0,"dot_radius":2,"dot_side_length":1,"dot_life":-1,"move_distance":1,"aperture_width":300,"aperture_height":300,"dot_color":["white","black"],"dot_shape":"circle","background_color":"#AAA","RDK_type":3,"aperture_type":2,"reinsert_type":2,"frame_rate":19.92,"frame_rate_array":[10,19,20,20,21,20,20,20,20,20,20,20,20,20,20,20,20,20,20,19,20,20,20,20,20,20,21,20,20,20,20,20,20,21,20,20,20,20,20,20,19,20,20,20,20,20,20,21,20,20,20,20,20,20,20,19,21,20,20,20,20,20,20,20,20,19,20,20,20,20,20,20,20,20,20,20,20,20,20,21,20,20,20,20,20,20,20,20,20,21,20,20,20,20,20,20,20,20,20,20],"number_of_frames":100,"aperture_center_x":640,"aperture_center_y":360,"fixation_cross":true,"fixation_cross_width":15,"fixation_cross_height":15,"fixation_cross_color":"#111","fixation_cross_thickness":1,"border":true,"border_thickness":2,"border_color":"transparent","canvas_width":1280,"canvas_height":720,"trial_type":"rdk","trial_index":19,"plugin_version":"2.0.0","time_elapsed":154443,"phase":"practice","target_direction":93,"distractor_direction":321},{"rt":11285,"stimulus":"\n        <div class=\"response-container\">\n          <div class=\"response-instruction\">\n            <p>rotate the bar by using the left and right arrow keys.</p>\n            <p>when you are determined, press the Enter key.</p>\n          </div>\n          <div class=\"response-circle\">\n            <div class=\"response-fixation\"></div>\n            <div id=\"bar\" class=\"rotating-bar\"></div>\n          </div>\n        </div>\n      ","response":"Enter","trial_type":"html-keyboard-response","trial_index":20,"plugin_version":"2.1.0","time_elapsed":165730,"random_initial_angle":12,"response_angle_css":343,"response_angle_rdk":107,"angular_error_target":14,"angular_error_distractor":146,"target_direction":93,"target_group":"white","reward_points":7},{"rt":null,"stimulus":"\n          <p style=\"color: #00FF00;\">Your reward: 7 points</p>\n        ","response":null,"trial_type":"html-keyboard-response","trial_index":21,"plugin_version":"2.1.0","time_elapsed":167732},{"rt":null,"stimulus":"<div class=\"fixation\" style=\"font-size: 60px;\">+</div>","response":null,"trial_type":"html-keyboard-response","trial_index":22,"plugin_version":"2.1.0","time_elapsed":168735},{"target_group":"white","target_index":0,"condition_label":"practice","rt":-1,"response":"","correct":false,"choices":"ALL_KEYS","correct_choice":["a"],"trial_duration":2000,"flip_timestamps":[],"response_ends_trial":false,"number_of_apertures":2,"number_of_dots":[100,62],"number_of_sets":1,"coherent_direction":[127,219],"coherence":1,"opposite_coherence":0,"dot_radius":2,"dot_side_length":1,"dot_life":-1,"move_distance":1,"aperture_width":300,"aperture_height":300,"dot_color":["white","black"],"dot_shape":"circle","background_color":"#AAA","RDK_type":3,"aperture_type":2,"reinsert_type":2,"frame_rate":19.95,"frame_rate_array":[14,19,19,20,20,20,20,20,20,20,20,21,20,20,20,20,20,21,20,20,20,20,20,20,20,20,21,20,20,20,21,20,20,20,20,19,20,20,20,21,20,20,20,20,20,20,20,20,20,20,20,20,20,20,20,20,20,20,20,20,20,20,19,20,20,20,20,20,20,20,20,20,20,20,20,20,20,20,20,20,20,20,20,21,20,20,20,20,20,19,20,20,20,20,20,20,20,20,20,20],"number_of_frames":100,"aperture_center_x":640,"aperture_center_y":360,"fixation_cross":true,"fixation_cross_width":15,"fixation_cross_height":15,"fixation_cross_color":"#111","fixation_cross_thickness":1,"border":true,"border_thickness":2,"border_color":"transparent","canvas_width":1280,"canvas_height":720,"trial_type":"rdk","trial_index":23,"plugin_version":"2.0.0","time_elapsed":170740,"phase":"practice","target_direction":127,"distractor_direction":219},{"rt":5935,"stimulus":"\n        <div class=\"response-container\">\n          <div class=\"response-instruction\">\n            <p>rotate the bar by using the left and right arrow keys.</p>\n            <p>when you are determined, press the Enter key.</p>\n          </div>\n          <div class=\"response-circle\">\n            <div class=\"response-fixation\"></div>\n            <div id=\"bar\" class=\"rotating-bar\"></div>\n          </div>\n        </div>\n      ","response":"Enter","trial_type":"html-keyboard-response","trial_index":24,"plugin_version":"2.1.0","time_elapsed":176675,"random_initial_angle":170,"response_angle_css":323,"response_angle_rdk":127,"angular_error_target":0,"angular_error_distractor":-92,"target_direction":127,"target_group":"white","reward_points":10},{"rt":null,"stimulus":"\n          <p style=\"color: #00FF00;\">Your reward: 10 points</p>\n        ","response":null,"trial_type":"html-keyboard-response","trial_index":25,"plugin_version":"2.1.0","time_elapsed":178677},{"rt":null,"stimulus":"<div class=\"fixation\" style=\"font-size: 60px;\">+</div>","response":null,"trial_type":"html-keyboard-response","trial_index":26,"plugin_version":"2.1.0","time_elapsed":179679},{"target_group":"black","target_index":1,"condition_label":"practice","rt":-1,"response":"","correct":false,"choices":"ALL_KEYS","correct_choice":["a"],"trial_duration":2000,"flip_timestamps":[],"response_ends_trial":false,"number_of_apertures":2,"number_of_dots":[73,100],"number_of_sets":1,"coherent_direction":[354,84],"coherence":1,"opposite_coherence":0,"dot_radius":2,"dot_side_length":1,"dot_life":-1,"move_distance":1,"aperture_width":300,"aperture_height":300,"dot_color":["white","black"],"dot_shape":"circle","background_color":"#AAA","RDK_type":3,"aperture_type":2,"reinsert_type":2,"frame_rate":19.93,"frame_rate_array":[10,20,20,20,20,20,20,21,20,20,20,20,20,20,20,20,20,20,20,20,19,20,20,21,20,19,20,20,20,20,20,20,20,20,20,20,20,20,20,20,20,21,20,20,20,20,20,20,20,20,20,20,19,20,20,20,20,20,21,20,20,20,20,20,20,20,20,20,20,20,20,20,20,20,20,20,20,21,20,19,20,20,20,21,20,20,20,20,20,20,21,20,20,20,20,20,20,20,20,20],"number_of_frames":100,"aperture_center_x":640,"aperture_center_y":360,"fixation_cross":true,"fixation_cross_width":15,"fixation_cross_height":15,"fixation_cross_color":"#111","fixation_cross_thickness":1,"border":true,"border_thickness":2,"border_color":"transparent","canvas_width":1280,"canvas_height":720,"trial_type":"rdk","trial_index":27,"plugin_version":"2.0.0","time_elapsed":181683,"phase":"practice","target_direction":84,"distractor_direction":354},{"rt":7221,"stimulus":"\n        <div class=\"response-container\">\n          <div class=\"response-instruction\">\n            <p>rotate the bar by using the left and right arrow keys.</p>\n            <p>when you are determined, press the Enter key.</p>\n          </div>\n          <div class=\"response-circle\">\n            <div class=\"response-fixation\"></div>\n            <div id=\"bar\" class=\"rotating-bar\"></div>\n          </div>\n        </div>\n      ","response":"Enter","trial_type":"html-keyboard-response","trial_index":28,"plugin_version":"2.1.0","time_elapsed":188905,"random_initial_angle":165,"response_angle_css":359,"response_angle_rdk":91,"angular_error_target":7,"angular_error_distractor":97,"target_direction":84,"target_group":"black","reward_points":8},{"rt":null,"stimulus":"\n          <p style=\"color: #00FF00;\">Your reward: 8 points</p>\n        ","response":null,"trial_type":"html-keyboard-response","trial_index":29,"plugin_version":"2.1.0","time_elapsed":190906},{"rt":null,"stimulus":"<div class=\"fixation\" style=\"font-size: 60px;\">+</div>","response":null,"trial_type":"html-keyboard-response","trial_index":30,"plugin_version":"2.1.0","time_elapsed":191909},{"target_group":"white","target_index":0,"condition_label":"practice","rt":-1,"response":"","correct":false,"choices":"ALL_KEYS","correct_choice":["a"],"trial_duration":2000,"flip_timestamps":[],"response_ends_trial":false,"number_of_apertures":2,"number_of_dots":[100,90],"number_of_sets":1,"coherent_direction":[332,156],"coherence":1,"opposite_coherence":0,"dot_radius":2,"dot_side_length":1,"dot_life":-1,"move_distance":1,"aperture_width":300,"aperture_height":300,"dot_color":["white","black"],"dot_shape":"circle","background_color":"#AAA","RDK_type":3,"aperture_type":2,"reinsert_type":2,"frame_rate":19.81188118811881,"frame_rate_array":[2,16,19,20,20,21,20,20,20,20,20,21,20,20,20,20,21,19,20,20,20,21,20,20,18,20,20,20,20,22,20,19,20,20,20,20,20,19,20,20,20,20,21,20,20,20,20,20,20,19,20,19,20,20,20,20,20,20,20,22,20,20,20,21,20,20,20,20,18,20,20,20,20,20,20,20,20,20,20,20,21,20,20,20,20,20,20,20,20,20,21,20,23,17,20,19,21,20,21,19,21],"number_of_frames":101,"aperture_center_x":640,"aperture_center_y":360,"fixation_cross":true,"fixation_cross_width":15,"fixation_cross_height":15,"fixation_cross_color":"#111","fixation_cross_thickness":1,"border":true,"border_thickness":2,"border_color":"transparent","canvas_width":1280,"canvas_height":720,"trial_type":"rdk","trial_index":31,"plugin_version":"2.0.0","time_elapsed":193915,"phase":"practice","target_direction":332,"distractor_direction":156},{"rt":6186,"stimulus":"\n        <div class=\"response-container\">\n          <div class=\"response-instruction\">\n            <p>rotate the bar by using the left and right arrow keys.</p>\n            <p>when you are determined, press the Enter key.</p>\n          </div>\n          <div class=\"response-circle\">\n            <div class=\"response-fixation\"></div>\n            <div id=\"bar\" class=\"rotating-bar\"></div>\n          </div>\n        </div>\n      ","response":"Enter","trial_type":"html-keyboard-response","trial_index":32,"plugin_version":"2.1.0","time_elapsed":200103,"random_initial_angle":252,"response_angle_css":307,"response_angle_rdk":143,"angular_error_target":171,"angular_error_distractor":-13,"target_direction":332,"target_group":"white","reward_points":0},{"rt":null,"stimulus":"\n          <p style=\"color: #FF3333;\">Your reward: 0 points</p>\n        ","response":null,"trial_type":"html-keyboard-response","trial_index":33,"plugin_version":"2.1.0","time_elapsed":202103},{"rt":null,"stimulus":"<div class=\"fixation\" style=\"font-size: 60px;\">+</div>","response":null,"trial_type":"html-keyboard-response","trial_index":34,"plugin_version":"2.1.0","time_elapsed":203106},{"target_group":"black","target_index":1,"condition_label":"practice","rt":-1,"response":"","correct":false,"choices":"ALL_KEYS","correct_choice":["a"],"trial_duration":2000,"flip_timestamps":[],"response_ends_trial":false,"number_of_apertures":2,"number_of_dots":[89,100],"number_of_sets":1,"coherent_direction":[140,231],"coherence":1,"opposite_coherence":0,"dot_radius":2,"dot_side_length":1,"dot_life":-1,"move_distance":1,"aperture_width":300,"aperture_height":300,"dot_color":["white","black"],"dot_shape":"circle","background_color":"#AAA","RDK_type":3,"aperture_type":2,"reinsert_type":2,"frame_rate":19.821782178217823,"frame_rate_array":[3,15,20,20,20,20,20,20,21,20,20,20,20,21,20,21,20,20,20,20,20,20,20,20,20,20,20,20,19,20,20,20,20,20,20,20,20,21,20,21,20,20,20,20,20,20,20,21,19,20,20,20,20,20,19,19,20,20,20,20,20,20,20,20,20,20,20,21,20,20,20,20,20,20,20,20,20,21,19,19,21,20,18,20,20,20,20,21,20,20,20,20,21,20,20,20,20,20,21,20,20],"number_of_frames":101,"aperture_center_x":640,"aperture_center_y":360,"fixation_cross":true,"fixation_cross_width":15,"fixation_cross_height":15,"fixation_cross_color":"#111","fixation_cross_thickness":1,"border":true,"border_thickness":2,"border_color":"transparent","canvas_width":1280,"canvas_height":720,"trial_type":"rdk","trial_index":35,"plugin_version":"2.0.0","time_elapsed":205114,"phase":"practice","target_direction":231,"distractor_direction":140},{"rt":9234,"stimulus":"\n        <div class=\"response-container\">\n          <div class=\"response-instruction\">\n            <p>rotate the bar by using the left and right arrow keys.</p>\n            <p>when you are determined, press the Enter key.</p>\n          </div>\n          <div class=\"response-circle\">\n            <div class=\"response-fixation\"></div>\n            <div id=\"bar\" class=\"rotating-bar\"></div>\n          </div>\n        </div>\n      ","response":"Enter","trial_type":"html-keyboard-response","trial_index":36,"plugin_version":"2.1.0","time_elapsed":214349,"random_initial_angle":75,"response_angle_css":207,"response_angle_rdk":243,"angular_error_target":12,"angular_error_distractor":103,"target_direction":231,"target_group":"black","reward_points":7},{"rt":null,"stimulus":"\n          <p style=\"color: #00FF00;\">Your reward: 7 points</p>\n        ","response":null,"trial_type":"html-keyboard-response","trial_index":37,"plugin_version":"2.1.0","time_elapsed":216350},{"rt":null,"stimulus":"<div class=\"fixation\" style=\"font-size: 60px;\">+</div>","response":null,"trial_type":"html-keyboard-response","trial_index":38,"plugin_version":"2.1.0","time_elapsed":217354},{"target_group":"white","target_index":0,"condition_label":"practice","rt":-1,"response":"","correct":false,"choices":"ALL_KEYS","correct_choice":["a"],"trial_duration":2000,"flip_timestamps":[],"response_ends_trial":false,"number_of_apertures":2,"number_of_dots":[100,97],"number_of_sets":1,"coherent_direction":[251,85],"coherence":1,"opposite_coherence":0,"dot_radius":2,"dot_side_length":1,"dot_life":-1,"move_distance":1,"aperture_width":300,"aperture_height":300,"dot_color":["white","black"],"dot_shape":"circle","background_color":"#AAA","RDK_type":3,"aperture_type":2,"reinsert_type":2,"frame_rate":19.95,"frame_rate_array":[14,20,20,20,20,20,20,19,20,20,20,20,20,20,20,20,20,20,20,20,20,20,20,20,20,20,20,20,21,20,20,20,20,20,19,20,20,20,21,20,20,20,20,20,20,20,20,20,20,20,20,20,20,20,20,20,20,20,20,21,20,19,20,20,20,21,20,19,20,20,20,20,20,20,20,20,20,20,20,20,20,20,20,20,20,20,21,20,19,20,20,20,20,20,20,21,20,20,20,20],"number_of_frames":100,"aperture_center_x":640,"aperture_center_y":360,"fixation_cross":true,"fixation_cross_width":15,"fixation_cross_height":15,"fixation_cross_color":"#111","fixation_cross_thickness":1,"border":true,"border_thickness":2,"border_color":"transparent","canvas_width":1280,"canvas_height":720,"trial_type":"rdk","trial_index":39,"plugin_version":"2.0.0","time_elapsed":219359,"phase":"practice","target_direction":251,"distractor_direction":85},{"rt":7481,"stimulus":"\n        <div class=\"response-container\">\n          <div class=\"response-instruction\">\n            <p>rotate the bar by using the left and right arrow keys.</p>\n            <p>when you are determined, press the Enter key.</p>\n          </div>\n          <div class=\"response-circle\">\n            <div class=\"response-fixation\"></div>\n            <div id=\"bar\" class=\"rotating-bar\"></div>\n          </div>\n        </div>\n      ","response":"Enter","trial_type":"html-keyboard-response","trial_index":40,"plugin_version":"2.1.0","time_elapsed":226842,"random_initial_angle":352,"response_angle_css":559,"response_angle_rdk":251,"angular_error_target":0,"angular_error_distractor":166,"target_direction":251,"target_group":"white","reward_points":10},{"rt":null,"stimulus":"\n          <p style=\"color: #00FF00;\">Your reward: 10 points</p>\n        ","response":null,"trial_type":"html-keyboard-response","trial_index":41,"plugin_version":"2.1.0","time_elapsed":228843},{"rt":null,"stimulus":"<div class=\"fixation\" style=\"font-size: 60px;\">+</div>","response":null,"trial_type":"html-keyboard-response","trial_index":42,"plugin_version":"2.1.0","time_elapsed":229845},{"target_group":"white","target_index":0,"condition_label":"practice","rt":-1,"response":"","correct":false,"choices":"ALL_KEYS","correct_choice":["a"],"trial_duration":2000,"flip_timestamps":[],"response_ends_trial":false,"number_of_apertures":2,"number_of_dots":[100,91],"number_of_sets":1,"coherent_direction":[262,24],"coherence":1,"opposite_coherence":0,"dot_radius":2,"dot_side_length":1,"dot_life":-1,"move_distance":1,"aperture_width":300,"aperture_height":300,"dot_color":["white","black"],"dot_shape":"circle","background_color":"#AAA","RDK_type":3,"aperture_type":2,"reinsert_type":2,"frame_rate":19.84,"frame_rate_array":[4,19,20,20,20,20,19,20,20,20,20,21,20,20,20,20,20,20,20,20,21,20,20,19,20,19,20,20,20,20,20,20,20,20,20,20,20,20,20,20,21,19,20,20,20,20,20,20,20,20,20,20,21,20,20,20,20,21,20,20,20,20,21,19,20,20,20,19,20,20,20,20,20,20,20,21,19,21,20,20,20,20,19,20,20,20,20,20,20,20,20,20,20,20,20,20,20,20,21,20],"number_of_frames":100,"aperture_center_x":640,"aperture_center_y":360,"fixation_cross":true,"fixation_cross_width":15,"fixation_cross_height":15,"fixation_cross_color":"#111","fixation_cross_thickness":1,"border":true,"border_thickness":2,"border_color":"transparent","canvas_width":1280,"canvas_height":720,"trial_type":"rdk","trial_index":43,"plugin_version":"2.0.0","time_elapsed":231852,"phase":"practice","target_direction":262,"distractor_direction":24},{"rt":10526,"stimulus":"\n        <div class=\"response-container\">\n          <div class=\"response-instruction\">\n            <p>rotate the bar by using the left and right arrow keys.</p>\n            <p>when you are determined, press the Enter key.</p>\n          </div>\n          <div class=\"response-circle\">\n            <div class=\"response-fixation\"></div>\n            <div id=\"bar\" class=\"rotating-bar\"></div>\n          </div>\n        </div>\n      ","response":"Enter","trial_type":"html-keyboard-response","trial_index":44,"plugin_version":"2.1.0","time_elapsed":242380,"random_initial_angle":66,"response_angle_css":404,"response_angle_rdk":46,"angular_error_target":144,"angular_error_distractor":22,"target_direction":262,"target_group":"white","reward_points":0},{"rt":null,"stimulus":"\n          <p style=\"color: #FF3333;\">Your reward: 0 points</p>\n        ","response":null,"trial_type":"html-keyboard-response","trial_index":45,"plugin_version":"2.1.0","time_elapsed":244381},{"rt":null,"stimulus":"<div class=\"fixation\" style=\"font-size: 60px;\">+</div>","response":null,"trial_type":"html-keyboard-response","trial_index":46,"plugin_version":"2.1.0","time_elapsed":245384},{"target_group":"black","target_index":1,"condition_label":"practice","rt":-1,"response":"","correct":false,"choices":"ALL_KEYS","correct_choice":["a"],"trial_duration":2000,"flip_timestamps":[],"response_ends_trial":false,"number_of_apertures":2,"number_of_dots":[51,100],"number_of_sets":1,"coherent_direction":[80,170],"coherence":1,"opposite_coherence":0,"dot_radius":2,"dot_side_length":1,"dot_life":-1,"move_distance":1,"aperture_width":300,"aperture_height":300,"dot_color":["white","black"],"dot_shape":"circle","background_color":"#AAA","RDK_type":3,"aperture_type":2,"reinsert_type":2,"frame_rate":19.82,"frame_rate_array":[4,19,19,20,20,21,21,18,20,20,20,20,20,21,20,20,19,20,20,20,21,20,20,20,20,20,20,20,20,20,20,20,20,20,20,21,20,20,20,20,20,20,20,19,20,20,20,21,20,20,20,20,20,20,20,20,20,20,20,20,20,20,20,20,19,20,20,20,20,20,19,20,20,20,21,20,20,20,20,20,20,20,20,20,20,20,20,20,20,20,20,20,20,20,20,19,20,20,20,20],"number_of_frames":100,"aperture_center_x":640,"aperture_center_y":360,"fixation_cross":true,"fixation_cross_width":15,"fixation_cross_height":15,"fixation_cross_color":"#111","fixation_cross_thickness":1,"border":true,"border_thickness":2,"border_color":"transparent","canvas_width":1280,"canvas_height":720,"trial_type":"rdk","trial_index":47,"plugin_version":"2.0.0","time_elapsed":247388,"phase":"practice","target_direction":170,"distractor_direction":80},{"rt":8275,"stimulus":"\n        <div class=\"response-container\">\n          <div class=\"response-instruction\">\n            <p>rotate the bar by using the left and right arrow keys.</p>\n            <p>when you are determined, press the Enter key.</p>\n          </div>\n          <div class=\"response-circle\">\n            <div class=\"response-fixation\"></div>\n            <div id=\"bar\" class=\"rotating-bar\"></div>\n          </div>\n        </div>\n      ","response":"Enter","trial_type":"html-keyboard-response","trial_index":48,"plugin_version":"2.1.0","time_elapsed":255664,"random_initial_angle":344,"response_angle_css":578,"response_angle_rdk":232,"angular_error_target":62,"angular_error_distractor":152,"target_direction":170,"target_group":"black","reward_points":0},{"rt":null,"stimulus":"\n          <p style=\"color: #FF3333;\">Your reward: 0 points</p>\n        ","response":null,"trial_type":"html-keyboard-response","trial_index":49,"plugin_version":"2.1.0","time_elapsed":257666},{"rt":null,"stimulus":"<div class=\"fixation\" style=\"font-size: 60px;\">+</div>","response":null,"trial_type":"html-keyboard-response","trial_index":50,"plugin_version":"2.1.0","time_elapsed":258669},{"target_group":"white","target_index":0,"condition_label":"practice","rt":-1,"response":"","correct":false,"choices":"ALL_KEYS","correct_choice":["a"],"trial_duration":2000,"flip_timestamps":[],"response_ends_trial":false,"number_of_apertures":2,"number_of_dots":[100,50],"number_of_sets":1,"coherent_direction":[214,31],"coherence":1,"opposite_coherence":0,"dot_radius":2,"dot_side_length":1,"dot_life":-1,"move_distance":1,"aperture_width":300,"aperture_height":300,"dot_color":["white","black"],"dot_shape":"circle","background_color":"#AAA","RDK_type":3,"aperture_type":2,"reinsert_type":2,"frame_rate":20,"frame_rate_array":[18,19,20,20,20,20,20,21,19,20,20,20,20,20,20,20,20,20,20,20,21,20,20,20,20,20,20,20,20,20,20,20,20,20,20,20,21,20,20,20,20,20,21,19,19,21,20,20,20,20,20,20,20,20,20,20,20,20,20,20,20,20,20,20,20,20,20,20,20,20,20,20,20,20,21,20,20,21,20,20,20,20,20,20,20,20,20,20,20,20,20,21,19,20,20,20,20,20,19,20],"number_of_frames":100,"aperture_center_x":640,"aperture_center_y":360,"fixation_cross":true,"fixation_cross_width":15,"fixation_cross_height":15,"fixation_cross_color":"#111","fixation_cross_thickness":1,"border":true,"border_thickness":2,"border_color":"transparent","canvas_width":1280,"canvas_height":720,"trial_type":"rdk","trial_index":51,"plugin_version":"2.0.0","time_elapsed":260674,"phase":"practice","target_direction":214,"distractor_direction":31},{"rt":6274,"stimulus":"\n        <div class=\"response-container\">\n          <div class=\"response-instruction\">\n            <p>rotate the bar by using the left and right arrow keys.</p>\n            <p>when you are determined, press the Enter key.</p>\n          </div>\n          <div class=\"response-circle\">\n            <div class=\"response-fixation\"></div>\n            <div id=\"bar\" class=\"rotating-bar\"></div>\n          </div>\n        </div>\n      ","response":"Enter","trial_type":"html-keyboard-response","trial_index":52,"plugin_version":"2.1.0","time_elapsed":266949,"random_initial_angle":99,"response_angle_css":213,"response_angle_rdk":237,"angular_error_target":23,"angular_error_distractor":-154,"target_direction":214,"target_group":"white","reward_points":5},{"rt":null,"stimulus":"\n          <p style=\"color: #00FF00;\">Your reward: 5 points</p>\n        ","response":null,"trial_type":"html-keyboard-response","trial_index":53,"plugin_version":"2.1.0","time_elapsed":268951},{"rt":null,"stimulus":"<div class=\"fixation\" style=\"font-size: 60px;\">+</div>","response":null,"trial_type":"html-keyboard-response","trial_index":54,"plugin_version":"2.1.0","time_elapsed":269954},{"target_group":"white","target_index":0,"condition_label":"practice","rt":-1,"response":"","correct":false,"choices":"ALL_KEYS","correct_choice":["a"],"trial_duration":2000,"flip_timestamps":[],"response_ends_trial":false,"number_of_apertures":2,"number_of_dots":[100,88],"number_of_sets":1,"coherent_direction":[289,170],"coherence":1,"opposite_coherence":0,"dot_radius":2,"dot_side_length":1,"dot_life":-1,"move_distance":1,"aperture_width":300,"aperture_height":300,"dot_color":["white","black"],"dot_shape":"circle","background_color":"#AAA","RDK_type":3,"aperture_type":2,"reinsert_type":2,"frame_rate":19.92,"frame_rate_array":[16,18,18,20,20,20,20,20,20,20,20,20,20,20,20,20,20,20,20,20,20,20,20,20,20,20,20,20,20,20,20,20,20,21,20,20,20,20,21,18,20,20,21,20,20,21,20,20,20,20,20,20,20,20,20,20,20,20,20,20,20,20,20,20,20,20,18,20,20,20,20,20,20,20,20,21,20,20,20,20,20,20,20,20,20,20,20,20,20,20,20,20,20,18,20,20,20,20,21,20],"number_of_frames":100,"aperture_center_x":640,"aperture_center_y":360,"fixation_cross":true,"fixation_cross_width":15,"fixation_cross_height":15,"fixation_cross_color":"#111","fixation_cross_thickness":1,"border":true,"border_thickness":2,"border_color":"transparent","canvas_width":1280,"canvas_height":720,"trial_type":"rdk","trial_index":55,"plugin_version":"2.0.0","time_elapsed":271959,"phase":"practice","target_direction":289,"distractor_direction":170},{"rt":8126,"stimulus":"\n        <div class=\"response-container\">\n          <div class=\"response-instruction\">\n            <p>rotate the bar by using the left and right arrow keys.</p>\n            <p>when you are determined, press the Enter key.</p>\n          </div>\n          <div class=\"response-circle\">\n            <div class=\"response-fixation\"></div>\n            <div id=\"bar\" class=\"rotating-bar\"></div>\n          </div>\n        </div>\n      ","response":"Enter","trial_type":"html-keyboard-response","trial_index":56,"plugin_version":"2.1.0","time_elapsed":280087,"random_initial_angle":141,"response_angle_css":509,"response_angle_rdk":301,"angular_error_target":12,"angular_error_distractor":131,"target_direction":289,"target_group":"white","reward_points":7},{"rt":null,"stimulus":"\n          <p style=\"color: #00FF00;\">Your reward: 7 points</p>\n        ","response":null,"trial_type":"html-keyboard-response","trial_index":57,"plugin_version":"2.1.0","time_elapsed":282088},{"rt":null,"stimulus":"<div class=\"fixation\" style=\"font-size: 60px;\">+</div>","response":null,"trial_type":"html-keyboard-response","trial_index":58,"plugin_version":"2.1.0","time_elapsed":283091},{"target_group":"white","target_index":0,"condition_label":"practice","rt":-1,"response":"","correct":false,"choices":"ALL_KEYS","correct_choice":["a"],"trial_duration":2000,"flip_timestamps":[],"response_ends_trial":false,"number_of_apertures":2,"number_of_dots":[100,85],"number_of_sets":1,"coherent_direction":[71,204],"coherence":1,"opposite_coherence":0,"dot_radius":2,"dot_side_length":1,"dot_life":-1,"move_distance":1,"aperture_width":300,"aperture_height":300,"dot_color":["white","black"],"dot_shape":"circle","background_color":"#AAA","RDK_type":3,"aperture_type":2,"reinsert_type":2,"frame_rate":19.97,"frame_rate_array":[16,20,20,20,20,20,20,20,20,20,20,20,20,20,20,20,20,20,20,20,20,21,20,20,19,20,20,20,20,20,20,20,20,20,20,20,20,20,20,20,20,20,20,20,20,21,20,20,20,20,20,19,20,20,20,20,21,20,20,20,20,20,20,20,20,20,20,20,20,19,20,20,20,20,20,21,20,20,19,20,20,20,20,20,21,20,20,20,20,20,20,20,20,20,20,20,20,20,20,20],"number_of_frames":100,"aperture_center_x":640,"aperture_center_y":360,"fixation_cross":true,"fixation_cross_width":15,"fixation_cross_height":15,"fixation_cross_color":"#111","fixation_cross_thickness":1,"border":true,"border_thickness":2,"border_color":"transparent","canvas_width":1280,"canvas_height":720,"trial_type":"rdk","trial_index":59,"plugin_version":"2.0.0","time_elapsed":285094,"phase":"practice","target_direction":71,"distractor_direction":204},{"rt":8124,"stimulus":"\n        <div class=\"response-container\">\n          <div class=\"response-instruction\">\n            <p>rotate the bar by using the left and right arrow keys.</p>\n            <p>when you are determined, press the Enter key.</p>\n          </div>\n          <div class=\"response-circle\">\n            <div class=\"response-fixation\"></div>\n            <div id=\"bar\" class=\"rotating-bar\"></div>\n          </div>\n        </div>\n      ","response":"Enter","trial_type":"html-keyboard-response","trial_index":60,"plugin_version":"2.1.0","time_elapsed":293220,"random_initial_angle":36,"response_angle_css":398,"response_angle_rdk":52,"angular_error_target":-19,"angular_error_distractor":-152,"target_direction":71,"target_group":"white","reward_points":6},{"rt":null,"stimulus":"\n          <p style=\"color: #00FF00;\">Your reward: 6 points</p>\n        ","response":null,"trial_type":"html-keyboard-response","trial_index":61,"plugin_version":"2.1.0","time_elapsed":295221},{"rt":null,"stimulus":"<div class=\"fixation\" style=\"font-size: 60px;\">+</div>","response":null,"trial_type":"html-keyboard-response","trial_index":62,"plugin_version":"2.1.0","time_elapsed":296224},{"target_group":"black","target_index":1,"condition_label":"practice","rt":-1,"response":"","correct":false,"choices":"ALL_KEYS","correct_choice":["a"],"trial_duration":2000,"flip_timestamps":[],"response_ends_trial":false,"number_of_apertures":2,"number_of_dots":[65,100],"number_of_sets":1,"coherent_direction":[122,262],"coherence":1,"opposite_coherence":0,"dot_radius":2,"dot_side_length":1,"dot_life":-1,"move_distance":1,"aperture_width":300,"aperture_height":300,"dot_color":["white","black"],"dot_shape":"circle","background_color":"#AAA","RDK_type":3,"aperture_type":2,"reinsert_type":2,"frame_rate":19.86,"frame_rate_array":[5,18,20,20,21,20,20,20,20,20,19,20,20,20,20,20,20,20,20,20,20,21,21,20,20,20,20,20,20,20,20,20,22,18,20,20,20,20,20,20,20,20,20,20,20,21,20,20,20,20,21,19,20,20,20,20,20,20,20,20,20,20,20,19,20,20,20,20,20,20,21,20,20,20,20,20,20,20,20,20,20,20,20,20,20,20,20,20,20,20,19,20,20,20,20,20,22,20,20,19],"number_of_frames":100,"aperture_center_x":640,"aperture_center_y":360,"fixation_cross":true,"fixation_cross_width":15,"fixation_cross_height":15,"fixation_cross_color":"#111","fixation_cross_thickness":1,"border":true,"border_thickness":2,"border_color":"transparent","canvas_width":1280,"canvas_height":720,"trial_type":"rdk","trial_index":63,"plugin_version":"2.0.0","time_elapsed":298228,"phase":"practice","target_direction":262,"distractor_direction":122},{"rt":6299,"stimulus":"\n        <div class=\"response-container\">\n          <div class=\"response-instruction\">\n            <p>rotate the bar by using the left and right arrow keys.</p>\n            <p>when you are determined, press the Enter key.</p>\n          </div>\n          <div class=\"response-circle\">\n            <div class=\"response-fixation\"></div>\n            <div id=\"bar\" class=\"rotating-bar\"></div>\n          </div>\n        </div>\n      ","response":"Enter","trial_type":"html-keyboard-response","trial_index":64,"plugin_version":"2.1.0","time_elapsed":304529,"random_initial_angle":308,"response_angle_css":505,"response_angle_rdk":305,"angular_error_target":43,"angular_error_distractor":-177,"target_direction":262,"target_group":"black","reward_points":1},{"rt":null,"stimulus":"\n          <p style=\"color: #FF3333;\">Your reward: 1 points</p>\n        ","response":null,"trial_type":"html-keyboard-response","trial_index":65,"plugin_version":"2.1.0","time_elapsed":306531},{"rt":16285,"stimulus":"\n        <div class=\"instructions-container\">\n          <h2>End of Practice</h2>\n          <p>You have completed the practice trials.</p>\n          <p>Press <strong>Enter</strong> key to begin the main experiment.</p>\n        </div>\n      ","response":"Enter","trial_type":"html-keyboard-response","trial_index":66,"plugin_version":"2.1.0","time_elapsed":322817},{"rt":null,"stimulus":"<div class=\"fixation\" style=\"font-size: 60px;\">+</div>","response":null,"trial_type":"html-keyboard-response","trial_index":67,"plugin_version":"2.1.0","time_elapsed":323820},{"phase":"learning-awareness","target_group":"black","condition_label":"B_H_vs_W_L_rep12","target_direction":83,"distractor_direction":184,"session_rotation":351,"rt":-1,"response":"","correct":false,"choices":"ALL_KEYS","correct_choice":["a"],"trial_duration":2000,"flip_timestamps":[],"response_ends_trial":false,"number_of_apertures":200,"number_of_dots":[1,1,1,1,1,1,1,1,1,1,1,1,1,1,1,1,1,1,1,1,1,1,1,1,1,1,1,1,1,1,1,1,1,1,1,1,1,1,1,1,1,1,1,1,1,1,1,1,1,1,1,1,1,1,1,1,1,1,1,1,1,1,1,1,1,1,1,1,1,1,1,1,1,1,1,1,1,1,1,1,1,1,1,1,1,1,1,1,1,1,1,1,1,1,1,1,1,1,1,1,1,1,1,1,1,1,1,1,1,1,1,1,1,1,1,1,1,1,1,1,1,1,1,1,1,1,1,1,1,1,1,1,1,1,1,1,1,1,1,1,1,1,1,1,1,1,1,1,1,1,1,1,1,1,1,1,1,1,1,1,1,1,1,1,1,1,1,1,1,1,1,1,1,1,1,1,1,1,1,1,1,1,1,1,1,1,1,1,1,1,1,1,1,1,1,1,1,1,1,1],"number_of_sets":1,"coherent_direction":[83,83,83,184,83,83,184,184,184,184,184,184,184,83,184,83,83,184,83,83,184,83,83,83,184,184,184,83,83,184,184,83,83,83,184,184,83,83,184,83,184,184,184,83,83,83,83,184,184,83,184,184,83,184,184,184,83,184,83,83,83,184,83,184,83,83,184,184,83,83,83,83,184,184,184,83,83,184,184,83,184,184,83,83,184,83,83,184,184,184,184,184,184,184,83,184,184,184,184,83,83,184,184,83,83,83,184,184,83,184,83,83,184,83,83,184,184,184,83,83,83,83,184,184,83,83,83,184,184,184,83,184,83,83,83,83,184,83,184,83,184,83,83,83,83,83,184,184,83,184,184,184,83,184,184,83,184,184,83,83,184,83,184,184,83,184,184,83,83,83,83,184,83,83,184,83,83,83,184,83,83,83,184,184,83,83,83,184,184,184,184,184,184,83,83,184,184,83,184,184],"coherence":1,"opposite_coherence":0,"dot_radius":2,"dot_side_length":1,"dot_life":-1,"move_distance":1,"aperture_width":300,"aperture_height":300,"dot_color":["black","black","black","white","black","black","white","white","white","white","white","white","white","black","white","black","black","white","black","black","white","black","black","black","white","white","white","black","black","white","white","black","black","black","white","white","black","black","white","black","white","white","white","black","black","black","black","white","white","black","white","white","black","white","white","white","black","white","black","black","black","white","black","white","black","black","white","white","black","black","black","black","white","white","white","black","black","white","white","black","white","white","black","black","white","black","black","white","white","white","white","white","white","white","black","white","white","white","white","black","black","white","white","black","black","black","white","white","black","white","black","black","white","black","black","white","white","white","black","black","black","black","white","white","black","black","black","white","white","white","black","white","black","black","black","black","white","black","white","black","white","black","black","black","black","black","white","white","black","white","white","white","black","white","white","black","white","white","black","black","white","black","white","white","black","white","white","black","black","black","black","white","black","black","white","black","black","black","white","black","black","black","white","white","black","black","black","white","white","white","white","white","white","black","black","white","white","black","white","white"],"dot_shape":"circle","background_color":"#AAA","RDK_type":3,"aperture_type":2,"reinsert_type":2,"frame_rate":19.86,"frame_rate_array":[7,18,20,18,20,20,20,20,20,20,23,20,20,20,19,21,20,20,18,20,20,21,20,20,20,20,20,21,22,22,17,19,21,20,21,20,20,19,21,20,20,20,20,20,20,18,20,20,20,20,20,20,20,20,20,25,20,17,20,20,20,19,21,20,20,20,20,20,21,19,21,18,19,20,20,23,20,20,20,20,21,19,20,20,20,19,21,20,20,20,20,20,20,20,20,20,20,17,20,20],"number_of_frames":100,"aperture_center_x":640,"aperture_center_y":360,"fixation_cross":true,"fixation_cross_width":15,"fixation_cross_height":15,"fixation_cross_color":"#111","fixation_cross_thickness":1,"border":true,"border_thickness":2,"border_color":"transparent","canvas_width":1280,"canvas_height":720,"trial_type":"rdk","trial_index":68,"plugin_version":"2.0.0","time_elapsed":325826},{"rt":8710,"stimulus":"\n        <div class=\"response-container\">\n          <div class=\"response-instruction\">\n            <p>rotate the bar by using the left and right arrow keys.</p>\n            <p>when you are determined, press the Enter key.</p>\n          </div>\n          <div class=\"response-circle\">\n            <div class=\"response-fixation\"></div>\n            <div id=\"bar\" class=\"rotating-bar\"></div>\n          </div>\n        </div>\n      ","response":"Enter","trial_type":"html-keyboard-response","trial_index":69,"plugin_version":"2.1.0","time_elapsed":334537,"random_initial_angle":111,"response_angle_css":390,"response_angle_rdk":60,"angular_error_target":-23,"angular_error_distractor":-124,"target_direction":83,"target_group":"black","reward_points":5},{"rt":null,"stimulus":"\n          <p style=\"color: #00FF00;\">Your reward: 5 points</p>\n        ","response":null,"trial_type":"html-keyboard-response","trial_index":70,"plugin_version":"2.1.0","time_elapsed":336539},{"rt":null,"stimulus":"<div class=\"fixation\" style=\"font-size: 60px;\">+</div>","response":null,"trial_type":"html-keyboard-response","trial_index":71,"plugin_version":"2.1.0","time_elapsed":337542},{"phase":"learning-awareness","target_group":"white","condition_label":"W_H_vs_B_L_rep18","target_direction":16,"distractor_direction":265,"session_rotation":351,"rt":-1,"response":"","correct":false,"choices":"ALL_KEYS","correct_choice":["a"],"trial_duration":2000,"flip_timestamps":[],"response_ends_trial":false,"number_of_apertures":200,"number_of_dots":[1,1,1,1,1,1,1,1,1,1,1,1,1,1,1,1,1,1,1,1,1,1,1,1,1,1,1,1,1,1,1,1,1,1,1,1,1,1,1,1,1,1,1,1,1,1,1,1,1,1,1,1,1,1,1,1,1,1,1,1,1,1,1,1,1,1,1,1,1,1,1,1,1,1,1,1,1,1,1,1,1,1,1,1,1,1,1,1,1,1,1,1,1,1,1,1,1,1,1,1,1,1,1,1,1,1,1,1,1,1,1,1,1,1,1,1,1,1,1,1,1,1,1,1,1,1,1,1,1,1,1,1,1,1,1,1,1,1,1,1,1,1,1,1,1,1,1,1,1,1,1,1,1,1,1,1,1,1,1,1,1,1,1,1,1,1,1,1,1,1,1,1,1,1,1,1,1,1,1,1,1,1,1,1,1,1,1,1,1,1,1,1,1,1,1,1,1,1,1,1],"number_of_sets":1,"coherent_direction":[16,16,16,265,16,16,265,16,16,265,16,265,16,265,265,16,265,16,265,16,16,265,16,16,16,16,265,265,265,265,16,16,265,16,16,16,16,16,16,16,265,265,16,265,16,265,16,16,265,16,265,265,16,16,265,16,16,265,16,16,265,265,265,265,16,265,16,16,265,265,16,16,265,16,265,265,16,265,265,16,16,265,16,16,16,265,265,16,265,16,16,16,265,16,265,265,16,265,16,265,16,16,265,16,16,16,16,16,265,265,265,265,16,16,265,265,265,265,16,265,265,265,16,265,16,265,265,265,16,265,16,265,16,265,16,265,265,265,16,16,265,16,265,16,265,265,265,265,16,265,16,16,16,265,265,16,16,16,265,16,16,16,16,16,16,16,265,16,265,16,16,265,265,16,265,265,16,16,265,265,265,265,16,265,16,265,265,265,265,265,265,16,265,265,265,265,265,265,265,16],"coherence":1,"opposite_coherence":0,"dot_radius":2,"dot_side_length":1,"dot_life":-1,"move_distance":1,"aperture_width":300,"aperture_height":300,"dot_color":["white","white","white","black","white","white","black","white","white","black","white","black","white","black","black","white","black","white","black","white","white","black","white","white","white","white","black","black","black","black","white","white","black","white","white","white","white","white","white","white","black","black","white","black","white","black","white","white","black","white","black","black","white","white","black","white","white","black","white","white","black","black","black","black","white","black","white","white","black","black","white","white","black","white","black","black","white","black","black","white","white","black","white","white","white","black","black","white","black","white","white","white","black","white","black","black","white","black","white","black","white","white","black","white","white","white","white","white","black","black","black","black","white","white","black","black","black","black","white","black","black","black","white","black","white","black","black","black","white","black","white","black","white","black","white","black","black","black","white","white","black","white","black","white","black","black","black","black","white","black","white","white","white","black","black","white","white","white","black","white","white","white","white","white","white","white","black","white","black","white","white","black","black","white","black","black","white","white","black","black","black","black","white","black","white","black","black","black","black","black","black","white","black","black","black","black","black","black","black","white"],"dot_shape":"circle","background_color":"#AAA","RDK_type":3,"aperture_type":2,"reinsert_type":2,"frame_rate":20.12121212121212,"frame_rate_array":[26,22,19,18,20,20,20,20,20,19,20,20,20,21,20,20,20,21,20,19,20,20,23,21,18,20,21,19,20,20,19,20,20,21,20,20,22,20,20,19,20,20,20,21,20,18,20,20,20,23,19,20,20,20,21,20,20,20,20,20,20,20,20,20,20,20,21,18,20,20,20,20,20,20,20,20,20,20,20,21,20,20,21,20,20,20,20,22,20,21,19,20,20,20,20,21,20,18,20],"number_of_frames":99,"aperture_center_x":640,"aperture_center_y":360,"fixation_cross":true,"fixation_cross_width":15,"fixation_cross_height":15,"fixation_cross_color":"#111","fixation_cross_thickness":1,"border":true,"border_thickness":2,"border_color":"transparent","canvas_width":1280,"canvas_height":720,"trial_type":"rdk","trial_index":72,"plugin_version":"2.0.0","time_elapsed":339545},{"rt":6219,"stimulus":"\n        <div class=\"response-container\">\n          <div class=\"response-instruction\">\n            <p>rotate the bar by using the left and right arrow keys.</p>\n            <p>when you are determined, press the Enter key.</p>\n          </div>\n          <div class=\"response-circle\">\n            <div class=\"response-fixation\"></div>\n            <div id=\"bar\" class=\"rotating-bar\"></div>\n          </div>\n        </div>\n      ","response":"Enter","trial_type":"html-keyboard-response","trial_index":73,"plugin_version":"2.1.0","time_elapsed":345764,"random_initial_angle":248,"response_angle_css":419,"response_angle_rdk":31,"angular_error_target":15,"angular_error_distractor":126,"target_direction":16,"target_group":"white","reward_points":7},{"rt":null,"stimulus":"\n          <p style=\"color: #00FF00;\">Your reward: 7 points</p>\n        ","response":null,"trial_type":"html-keyboard-response","trial_index":74,"plugin_version":"2.1.0","time_elapsed":347766},{"rt":null,"stimulus":"<div class=\"fixation\" style=\"font-size: 60px;\">+</div>","response":null,"trial_type":"html-keyboard-response","trial_index":75,"plugin_version":"2.1.0","time_elapsed":348768},{"phase":"learning-awareness","target_group":"black","condition_label":"B_H_vs_W_L_rep21","target_direction":106,"distractor_direction":207,"session_rotation":351,"rt":-1,"response":"","correct":false,"choices":"ALL_KEYS","correct_choice":["a"],"trial_duration":2000,"flip_timestamps":[],"response_ends_trial":false,"number_of_apertures":200,"number_of_dots":[1,1,1,1,1,1,1,1,1,1,1,1,1,1,1,1,1,1,1,1,1,1,1,1,1,1,1,1,1,1,1,1,1,1,1,1,1,1,1,1,1,1,1,1,1,1,1,1,1,1,1,1,1,1,1,1,1,1,1,1,1,1,1,1,1,1,1,1,1,1,1,1,1,1,1,1,1,1,1,1,1,1,1,1,1,1,1,1,1,1,1,1,1,1,1,1,1,1,1,1,1,1,1,1,1,1,1,1,1,1,1,1,1,1,1,1,1,1,1,1,1,1,1,1,1,1,1,1,1,1,1,1,1,1,1,1,1,1,1,1,1,1,1,1,1,1,1,1,1,1,1,1,1,1,1,1,1,1,1,1,1,1,1,1,1,1,1,1,1,1,1,1,1,1,1,1,1,1,1,1,1,1,1,1,1,1,1,1,1,1,1,1,1,1,1,1,1,1,1,1],"number_of_sets":1,"coherent_direction":[207,207,207,106,106,106,207,106,207,106,106,207,106,207,106,207,106,106,106,207,106,106,207,207,106,106,207,106,207,207,207,207,106,207,207,207,207,207,207,207,207,207,207,207,106,106,207,106,207,207,106,207,207,106,106,106,207,106,106,106,106,106,106,106,106,207,106,207,207,106,207,207,106,207,207,207,106,207,207,106,207,207,207,207,207,207,106,207,207,106,106,106,106,106,106,106,106,106,106,207,207,106,207,106,106,106,106,207,106,207,106,106,207,106,106,106,106,207,106,207,207,106,106,106,207,207,106,207,207,207,106,207,106,207,106,207,207,207,207,106,207,207,207,106,207,207,207,106,106,207,207,106,106,106,207,207,106,106,106,106,106,207,207,207,106,106,207,106,207,207,207,207,106,106,106,207,207,207,106,106,207,106,106,207,207,106,106,106,106,106,207,207,106,207,207,106,106,106,207,106],"coherence":1,"opposite_coherence":0,"dot_radius":2,"dot_side_length":1,"dot_life":-1,"move_distance":1,"aperture_width":300,"aperture_height":300,"dot_color":["white","white","white","black","black","black","white","black","white","black","black","white","black","white","black","white","black","black","black","white","black","black","white","white","black","black","white","black","white","white","white","white","black","white","white","white","white","white","white","white","white","white","white","white","black","black","white","black","white","white","black","white","white","black","black","black","white","black","black","black","black","black","black","black","black","white","black","white","white","black","white","white","black","white","white","white","black","white","white","black","white","white","white","white","white","white","black","white","white","black","black","black","black","black","black","black","black","black","black","white","white","black","white","black","black","black","black","white","black","white","black","black","white","black","black","black","black","white","black","white","white","black","black","black","white","white","black","white","white","white","black","white","black","white","black","white","white","white","white","black","white","white","white","black","white","white","white","black","black","white","white","black","black","black","white","white","black","black","black","black","black","white","white","white","black","black","white","black","white","white","white","white","black","black","black","white","white","white","black","black","white","black","black","white","white","black","black","black","black","black","white","white","black","white","white","black","black","black","white","black"],"dot_shape":"circle","background_color":"#AAA","RDK_type":3,"aperture_type":2,"reinsert_type":2,"frame_rate":19.97,"frame_rate_array":[20,22,15,21,20,18,20,20,20,20,20,20,20,20,20,21,20,20,20,20,21,18,20,20,19,21,19,20,20,20,22,21,19,20,20,18,20,20,21,22,20,17,20,20,20,23,19,19,20,20,20,20,20,21,20,20,20,22,21,17,18,20,20,21,20,20,23,20,18,19,19,20,20,20,20,20,20,20,23,20,18,21,19,21,19,21,20,18,19,20,20,20,20,20,20,21,23,20,18,21],"number_of_frames":100,"aperture_center_x":640,"aperture_center_y":360,"fixation_cross":true,"fixation_cross_width":15,"fixation_cross_height":15,"fixation_cross_color":"#111","fixation_cross_thickness":1,"border":true,"border_thickness":2,"border_color":"transparent","canvas_width":1280,"canvas_height":720,"trial_type":"rdk","trial_index":76,"plugin_version":"2.0.0","time_elapsed":350794},{"rt":6972,"stimulus":"\n        <div class=\"response-container\">\n          <div class=\"response-instruction\">\n            <p>rotate the bar by using the left and right arrow keys.</p>\n            <p>when you are determined, press the Enter key.</p>\n          </div>\n          <div class=\"response-circle\">\n            <div class=\"response-fixation\"></div>\n            <div id=\"bar\" class=\"rotating-bar\"></div>\n          </div>\n        </div>\n      ","response":"Enter","trial_type":"html-keyboard-response","trial_index":77,"plugin_version":"2.1.0","time_elapsed":357767,"random_initial_angle":127,"response_angle_css":334,"response_angle_rdk":116,"angular_error_target":10,"angular_error_distractor":-91,"target_direction":106,"target_group":"black","reward_points":8},{"rt":null,"stimulus":"\n          <p style=\"color: #00FF00;\">Your reward: 8 points</p>\n        ","response":null,"trial_type":"html-keyboard-response","trial_index":78,"plugin_version":"2.1.0","time_elapsed":359768},{"rt":null,"stimulus":"<div class=\"fixation\" style=\"font-size: 60px;\">+</div>","response":null,"trial_type":"html-keyboard-response","trial_index":79,"plugin_version":"2.1.0","time_elapsed":360772},{"phase":"learning-awareness","target_group":"black","condition_label":"B_H_vs_W_L_rep23","target_direction":94,"distractor_direction":213,"session_rotation":351,"rt":-1,"response":"","correct":false,"choices":"ALL_KEYS","correct_choice":["a"],"trial_duration":2000,"flip_timestamps":[],"response_ends_trial":false,"number_of_apertures":200,"number_of_dots":[1,1,1,1,1,1,1,1,1,1,1,1,1,1,1,1,1,1,1,1,1,1,1,1,1,1,1,1,1,1,1,1,1,1,1,1,1,1,1,1,1,1,1,1,1,1,1,1,1,1,1,1,1,1,1,1,1,1,1,1,1,1,1,1,1,1,1,1,1,1,1,1,1,1,1,1,1,1,1,1,1,1,1,1,1,1,1,1,1,1,1,1,1,1,1,1,1,1,1,1,1,1,1,1,1,1,1,1,1,1,1,1,1,1,1,1,1,1,1,1,1,1,1,1,1,1,1,1,1,1,1,1,1,1,1,1,1,1,1,1,1,1,1,1,1,1,1,1,1,1,1,1,1,1,1,1,1,1,1,1,1,1,1,1,1,1,1,1,1,1,1,1,1,1,1,1,1,1,1,1,1,1,1,1,1,1,1,1,1,1,1,1,1,1,1,1,1,1,1,1],"number_of_sets":1,"coherent_direction":[94,94,94,94,213,213,94,94,94,213,94,94,94,213,94,94,213,94,94,213,94,94,213,94,213,213,94,213,213,213,94,213,213,213,213,213,213,94,213,213,213,213,213,94,213,94,213,94,213,213,213,94,94,213,213,213,94,94,94,94,94,94,94,94,213,213,213,213,94,213,94,94,213,213,94,94,213,213,94,94,213,213,213,94,94,213,213,94,213,94,213,94,213,213,94,213,94,94,94,213,213,94,94,94,94,94,213,213,213,213,94,213,94,94,94,213,94,94,213,213,213,94,94,94,94,94,213,94,213,94,213,213,213,213,94,213,213,213,94,213,94,213,94,213,94,213,213,213,94,94,213,94,94,94,213,94,94,94,213,213,94,213,213,94,94,94,94,94,213,213,213,94,94,213,94,213,94,213,213,94,94,94,94,213,213,213,213,94,94,94,213,94,213,213,213,213,213,213,94,94],"coherence":1,"opposite_coherence":0,"dot_radius":2,"dot_side_length":1,"dot_life":-1,"move_distance":1,"aperture_width":300,"aperture_height":300,"dot_color":["black","black","black","black","white","white","black","black","black","white","black","black","black","white","black","black","white","black","black","white","black","black","white","black","white","white","black","white","white","white","black","white","white","white","white","white","white","black","white","white","white","white","white","black","white","black","white","black","white","white","white","black","black","white","white","white","black","black","black","black","black","black","black","black","white","white","white","white","black","white","black","black","white","white","black","black","white","white","black","black","white","white","white","black","black","white","white","black","white","black","white","black","white","white","black","white","black","black","black","white","white","black","black","black","black","black","white","white","white","white","black","white","black","black","black","white","black","black","white","white","white","black","black","black","black","black","white","black","white","black","white","white","white","white","black","white","white","white","black","white","black","white","black","white","black","white","white","white","black","black","white","black","black","black","white","black","black","black","white","white","black","white","white","black","black","black","black","black","white","white","white","black","black","white","black","white","black","white","white","black","black","black","black","white","white","white","white","black","black","black","white","black","white","white","white","white","white","white","black","black"],"dot_shape":"circle","background_color":"#AAA","RDK_type":3,"aperture_type":2,"reinsert_type":2,"frame_rate":19.93,"frame_rate_array":[16,18,20,17,20,20,20,24,19,18,20,20,19,23,20,16,22,20,18,20,20,20,21,20,21,22,19,19,21,19,21,19,20,21,23,19,18,20,20,20,21,19,20,21,20,18,24,19,19,19,21,19,20,20,21,21,20,18,24,19,18,23,19,18,21,19,22,18,20,20,20,20,20,22,19,21,23,18,18,22,20,19,19,20,20,20,20,20,20,21,19,20,20,20,21,20,18,19,20,20],"number_of_frames":100,"aperture_center_x":640,"aperture_center_y":360,"fixation_cross":true,"fixation_cross_width":15,"fixation_cross_height":15,"fixation_cross_color":"#111","fixation_cross_thickness":1,"border":true,"border_thickness":2,"border_color":"transparent","canvas_width":1280,"canvas_height":720,"trial_type":"rdk","trial_index":80,"plugin_version":"2.0.0","time_elapsed":362777},{"rt":6042,"stimulus":"\n        <div class=\"response-container\">\n          <div class=\"response-instruction\">\n            <p>rotate the bar by using the left and right arrow keys.</p>\n            <p>when you are determined, press the Enter key.</p>\n          </div>\n          <div class=\"response-circle\">\n            <div class=\"response-fixation\"></div>\n            <div id=\"bar\" class=\"rotating-bar\"></div>\n          </div>\n        </div>\n      ","response":"Enter","trial_type":"html-keyboard-response","trial_index":81,"plugin_version":"2.1.0","time_elapsed":368820,"random_initial_angle":169,"response_angle_css":208,"response_angle_rdk":242,"angular_error_target":148,"angular_error_distractor":29,"target_direction":94,"target_group":"black","reward_points":0},{"rt":null,"stimulus":"\n          <p style=\"color: #FF3333;\">Your reward: 0 points</p>\n        ","response":null,"trial_type":"html-keyboard-response","trial_index":82,"plugin_version":"2.1.0","time_elapsed":370821},{"rt":null,"stimulus":"<div class=\"fixation\" style=\"font-size: 60px;\">+</div>","response":null,"trial_type":"html-keyboard-response","trial_index":83,"plugin_version":"2.1.0","time_elapsed":371823},{"phase":"learning-awareness","target_group":"black","condition_label":"B_H_vs_W_L_rep10","target_direction":97,"distractor_direction":202,"session_rotation":351,"rt":-1,"response":"","correct":false,"choices":"ALL_KEYS","correct_choice":["a"],"trial_duration":2000,"flip_timestamps":[],"response_ends_trial":false,"number_of_apertures":200,"number_of_dots":[1,1,1,1,1,1,1,1,1,1,1,1,1,1,1,1,1,1,1,1,1,1,1,1,1,1,1,1,1,1,1,1,1,1,1,1,1,1,1,1,1,1,1,1,1,1,1,1,1,1,1,1,1,1,1,1,1,1,1,1,1,1,1,1,1,1,1,1,1,1,1,1,1,1,1,1,1,1,1,1,1,1,1,1,1,1,1,1,1,1,1,1,1,1,1,1,1,1,1,1,1,1,1,1,1,1,1,1,1,1,1,1,1,1,1,1,1,1,1,1,1,1,1,1,1,1,1,1,1,1,1,1,1,1,1,1,1,1,1,1,1,1,1,1,1,1,1,1,1,1,1,1,1,1,1,1,1,1,1,1,1,1,1,1,1,1,1,1,1,1,1,1,1,1,1,1,1,1,1,1,1,1,1,1,1,1,1,1,1,1,1,1,1,1,1,1,1,1,1,1],"number_of_sets":1,"coherent_direction":[202,97,97,97,202,97,97,97,202,97,97,97,97,202,202,97,97,97,97,202,97,202,202,97,202,97,202,202,97,97,202,202,97,202,97,97,202,202,202,202,202,97,202,202,202,97,97,97,202,97,202,97,97,202,202,97,97,202,202,97,97,202,202,97,202,202,97,202,202,97,202,97,202,202,97,97,202,202,202,97,202,97,97,202,97,202,202,97,97,202,97,97,97,202,97,202,97,202,202,202,97,202,97,97,202,202,97,202,97,202,97,97,202,97,97,97,202,97,202,202,97,202,97,202,202,97,202,97,97,202,97,97,97,97,97,202,97,97,97,202,202,97,97,202,202,202,202,97,202,202,97,202,202,97,97,202,202,97,202,202,97,202,97,97,202,202,97,97,202,202,202,202,202,97,97,202,202,202,97,97,202,202,97,202,97,202,97,202,97,97,202,202,202,97,97,97,97,97,202,202],"coherence":1,"opposite_coherence":0,"dot_radius":2,"dot_side_length":1,"dot_life":-1,"move_distance":1,"aperture_width":300,"aperture_height":300,"dot_color":["white","black","black","black","white","black","black","black","white","black","black","black","black","white","white","black","black","black","black","white","black","white","white","black","white","black","white","white","black","black","white","white","black","white","black","black","white","white","white","white","white","black","white","white","white","black","black","black","white","black","white","black","black","white","white","black","black","white","white","black","black","white","white","black","white","white","black","white","white","black","white","black","white","white","black","black","white","white","white","black","white","black","black","white","black","white","white","black","black","white","black","black","black","white","black","white","black","white","white","white","black","white","black","black","white","white","black","white","black","white","black","black","white","black","black","black","white","black","white","white","black","white","black","white","white","black","white","black","black","white","black","black","black","black","black","white","black","black","black","white","white","black","black","white","white","white","white","black","white","white","black","white","white","black","black","white","white","black","white","white","black","white","black","black","white","white","black","black","white","white","white","white","white","black","black","white","white","white","black","black","white","white","black","white","black","white","black","white","black","black","white","white","white","black","black","black","black","black","white","white"],"dot_shape":"circle","background_color":"#AAA","RDK_type":3,"aperture_type":2,"reinsert_type":2,"frame_rate":19.87,"frame_rate_array":[5,19,20,19,20,20,21,19,20,20,21,19,20,20,20,20,22,21,18,20,20,21,18,20,20,20,20,20,23,19,21,19,20,19,20,20,20,23,21,18,19,21,20,19,21,19,20,21,18,20,20,20,21,20,21,19,20,20,20,21,19,20,20,20,24,20,17,20,20,21,19,20,21,20,20,18,20,20,20,20,21,19,21,20,21,19,20,20,20,21,19,21,19,20,24,19,17,20,20,21],"number_of_frames":100,"aperture_center_x":640,"aperture_center_y":360,"fixation_cross":true,"fixation_cross_width":15,"fixation_cross_height":15,"fixation_cross_color":"#111","fixation_cross_thickness":1,"border":true,"border_thickness":2,"border_color":"transparent","canvas_width":1280,"canvas_height":720,"trial_type":"rdk","trial_index":84,"plugin_version":"2.0.0","time_elapsed":373827},{"rt":8178,"stimulus":"\n        <div class=\"response-container\">\n          <div class=\"response-instruction\">\n            <p>rotate the bar by using the left and right arrow keys.</p>\n            <p>when you are determined, press the Enter key.</p>\n          </div>\n          <div class=\"response-circle\">\n            <div class=\"response-fixation\"></div>\n            <div id=\"bar\" class=\"rotating-bar\"></div>\n          </div>\n        </div>\n      ","response":"Enter","trial_type":"html-keyboard-response","trial_index":85,"plugin_version":"2.1.0","time_elapsed":382005,"random_initial_angle":49,"response_angle_css":365,"response_angle_rdk":85,"angular_error_target":-12,"angular_error_distractor":-117,"target_direction":97,"target_group":"black","reward_points":7},{"rt":null,"stimulus":"\n          <p style=\"color: #00FF00;\">Your reward: 7 points</p>\n        ","response":null,"trial_type":"html-keyboard-response","trial_index":86,"plugin_version":"2.1.0","time_elapsed":384007},{"rt":null,"stimulus":"<div class=\"fixation\" style=\"font-size: 60px;\">+</div>","response":null,"trial_type":"html-keyboard-response","trial_index":87,"plugin_version":"2.1.0","time_elapsed":385009},{"phase":"learning-awareness","target_group":"white","condition_label":"W_H_vs_B_L_rep8","target_direction":9,"distractor_direction":270,"session_rotation":351,"rt":-1,"response":"","correct":false,"choices":"ALL_KEYS","correct_choice":["a"],"trial_duration":2000,"flip_timestamps":[],"response_ends_trial":false,"number_of_apertures":200,"number_of_dots":[1,1,1,1,1,1,1,1,1,1,1,1,1,1,1,1,1,1,1,1,1,1,1,1,1,1,1,1,1,1,1,1,1,1,1,1,1,1,1,1,1,1,1,1,1,1,1,1,1,1,1,1,1,1,1,1,1,1,1,1,1,1,1,1,1,1,1,1,1,1,1,1,1,1,1,1,1,1,1,1,1,1,1,1,1,1,1,1,1,1,1,1,1,1,1,1,1,1,1,1,1,1,1,1,1,1,1,1,1,1,1,1,1,1,1,1,1,1,1,1,1,1,1,1,1,1,1,1,1,1,1,1,1,1,1,1,1,1,1,1,1,1,1,1,1,1,1,1,1,1,1,1,1,1,1,1,1,1,1,1,1,1,1,1,1,1,1,1,1,1,1,1,1,1,1,1,1,1,1,1,1,1,1,1,1,1,1,1,1,1,1,1,1,1,1,1,1,1,1,1],"number_of_sets":1,"coherent_direction":[270,9,270,9,9,9,270,9,9,270,9,270,270,270,9,9,9,9,270,9,9,9,9,9,270,270,270,270,270,270,9,270,270,270,270,9,9,270,9,270,270,270,9,270,270,270,270,270,9,9,270,9,270,270,9,9,9,270,270,9,270,9,9,270,270,270,9,9,9,9,270,270,9,270,9,9,270,270,9,9,9,9,270,270,9,270,9,270,9,9,9,9,270,270,9,270,9,270,9,9,270,9,9,270,9,270,270,9,9,9,9,270,9,270,270,270,9,270,9,9,270,9,270,9,9,270,9,270,9,9,270,270,9,9,9,270,9,270,9,270,9,270,270,9,270,270,270,270,270,9,9,270,9,270,9,270,9,9,9,9,270,270,270,270,270,270,270,270,9,270,270,270,9,270,270,270,9,9,9,9,270,9,270,9,270,9,9,270,270,270,9,270,9,270,9,9,9,270,9,9],"coherence":1,"opposite_coherence":0,"dot_radius":2,"dot_side_length":1,"dot_life":-1,"move_distance":1,"aperture_width":300,"aperture_height":300,"dot_color":["black","white","black","white","white","white","black","white","white","black","white","black","black","black","white","white","white","white","black","white","white","white","white","white","black","black","black","black","black","black","white","black","black","black","black","white","white","black","white","black","black","black","white","black","black","black","black","black","white","white","black","white","black","black","white","white","white","black","black","white","black","white","white","black","black","black","white","white","white","white","black","black","white","black","white","white","black","black","white","white","white","white","black","black","white","black","white","black","white","white","white","white","black","black","white","black","white","black","white","white","black","white","white","black","white","black","black","white","white","white","white","black","white","black","black","black","white","black","white","white","black","white","black","white","white","black","white","black","white","white","black","black","white","white","white","black","white","black","white","black","white","black","black","white","black","black","black","black","black","white","white","black","white","black","white","black","white","white","white","white","black","black","black","black","black","black","black","black","white","black","black","black","white","black","black","black","white","white","white","white","black","white","black","white","black","white","white","black","black","black","white","black","white","black","white","white","white","black","white","white"],"dot_shape":"circle","background_color":"#AAA","RDK_type":3,"aperture_type":2,"reinsert_type":2,"frame_rate":19.99,"frame_rate_array":[17,18,20,20,22,21,19,20,20,20,21,19,21,20,20,20,20,20,20,20,21,19,21,19,20,20,21,17,20,20,20,20,20,20,20,20,20,21,20,20,24,20,16,20,20,20,24,19,17,22,20,17,21,19,21,21,20,20,21,19,20,20,21,21,19,21,19,21,20,19,20,21,19,21,19,20,20,21,19,19,20,20,20,20,20,22,20,20,20,21,19,19,20,20,22,20,22,16,20,20],"number_of_frames":100,"aperture_center_x":640,"aperture_center_y":360,"fixation_cross":true,"fixation_cross_width":15,"fixation_cross_height":15,"fixation_cross_color":"#111","fixation_cross_thickness":1,"border":true,"border_thickness":2,"border_color":"transparent","canvas_width":1280,"canvas_height":720,"trial_type":"rdk","trial_index":88,"plugin_version":"2.0.0","time_elapsed":387013},{"rt":5684,"stimulus":"\n        <div class=\"response-container\">\n          <div class=\"response-instruction\">\n            <p>rotate the bar by using the left and right arrow keys.</p>\n            <p>when you are determined, press the Enter key.</p>\n          </div>\n          <div class=\"response-circle\">\n            <div class=\"response-fixation\"></div>\n            <div id=\"bar\" class=\"rotating-bar\"></div>\n          </div>\n        </div>\n      ","response":"Enter","trial_type":"html-keyboard-response","trial_index":89,"plugin_version":"2.1.0","time_elapsed":392698,"random_initial_angle":315,"response_angle_css":391,"response_angle_rdk":59,"angular_error_target":50,"angular_error_distractor":149,"target_direction":9,"target_group":"white","reward_points":0},{"rt":null,"stimulus":"\n          <p style=\"color: #FF3333;\">Your reward: 0 points</p>\n        ","response":null,"trial_type":"html-keyboard-response","trial_index":90,"plugin_version":"2.1.0","time_elapsed":394699},{"rt":null,"stimulus":"<div class=\"fixation\" style=\"font-size: 60px;\">+</div>","response":null,"trial_type":"html-keyboard-response","trial_index":91,"plugin_version":"2.1.0","time_elapsed":395702},{"phase":"learning-awareness","target_group":"white","condition_label":"W_H_vs_B_L_rep9","target_direction":30,"distractor_direction":264,"session_rotation":351,"rt":-1,"response":"","correct":false,"choices":"ALL_KEYS","correct_choice":["a"],"trial_duration":2000,"flip_timestamps":[],"response_ends_trial":false,"number_of_apertures":200,"number_of_dots":[1,1,1,1,1,1,1,1,1,1,1,1,1,1,1,1,1,1,1,1,1,1,1,1,1,1,1,1,1,1,1,1,1,1,1,1,1,1,1,1,1,1,1,1,1,1,1,1,1,1,1,1,1,1,1,1,1,1,1,1,1,1,1,1,1,1,1,1,1,1,1,1,1,1,1,1,1,1,1,1,1,1,1,1,1,1,1,1,1,1,1,1,1,1,1,1,1,1,1,1,1,1,1,1,1,1,1,1,1,1,1,1,1,1,1,1,1,1,1,1,1,1,1,1,1,1,1,1,1,1,1,1,1,1,1,1,1,1,1,1,1,1,1,1,1,1,1,1,1,1,1,1,1,1,1,1,1,1,1,1,1,1,1,1,1,1,1,1,1,1,1,1,1,1,1,1,1,1,1,1,1,1,1,1,1,1,1,1,1,1,1,1,1,1,1,1,1,1,1,1],"number_of_sets":1,"coherent_direction":[264,264,264,30,30,264,30,264,30,30,264,264,264,30,264,30,264,30,30,264,30,264,30,264,264,30,264,30,264,30,30,264,264,30,264,30,264,264,30,264,264,30,264,264,30,30,264,264,264,30,30,264,30,30,30,264,30,264,30,264,264,264,30,30,264,264,264,30,30,30,30,264,264,30,264,264,264,30,30,30,30,30,30,30,264,30,30,264,264,264,30,264,30,30,30,30,264,264,30,30,30,30,30,264,264,264,30,264,264,264,264,264,30,264,264,264,30,264,30,264,30,264,30,30,30,30,30,30,30,30,30,30,30,264,264,264,264,264,30,264,264,264,264,30,264,30,30,30,30,30,264,264,264,30,30,30,264,264,30,264,30,264,264,264,30,30,30,264,30,264,264,30,30,264,30,264,30,30,30,264,264,264,264,264,264,264,30,30,30,30,264,264,264,30,264,264,264,30,30,30],"coherence":1,"opposite_coherence":0,"dot_radius":2,"dot_side_length":1,"dot_life":-1,"move_distance":1,"aperture_width":300,"aperture_height":300,"dot_color":["black","black","black","white","white","black","white","black","white","white","black","black","black","white","black","white","black","white","white","black","white","black","white","black","black","white","black","white","black","white","white","black","black","white","black","white","black","black","white","black","black","white","black","black","white","white","black","black","black","white","white","black","white","white","white","black","white","black","white","black","black","black","white","white","black","black","black","white","white","white","white","black","black","white","black","black","black","white","white","white","white","white","white","white","black","white","white","black","black","black","white","black","white","white","white","white","black","black","white","white","white","white","white","black","black","black","white","black","black","black","black","black","white","black","black","black","white","black","white","black","white","black","white","white","white","white","white","white","white","white","white","white","white","black","black","black","black","black","white","black","black","black","black","white","black","white","white","white","white","white","black","black","black","white","white","white","black","black","white","black","white","black","black","black","white","white","white","black","white","black","black","white","white","black","white","black","white","white","white","black","black","black","black","black","black","black","white","white","white","white","black","black","black","white","black","black","black","white","white","white"],"dot_shape":"circle","background_color":"#AAA","RDK_type":3,"aperture_type":2,"reinsert_type":2,"frame_rate":19.9,"frame_rate_array":[6,19,20,20,21,20,20,21,21,19,20,20,20,21,19,21,19,20,20,22,21,18,20,20,21,18,20,21,20,20,23,19,20,20,20,20,20,20,20,19,20,20,21,20,20,20,20,20,19,22,20,17,20,20,22,18,20,20,25,21,16,20,20,20,20,20,21,19,20,20,20,20,21,19,21,20,20,20,18,20,20,20,20,20,20,23,22,16,20,20,20,22,20,18,21,20,18,20,21,20],"number_of_frames":100,"aperture_center_x":640,"aperture_center_y":360,"fixation_cross":true,"fixation_cross_width":15,"fixation_cross_height":15,"fixation_cross_color":"#111","fixation_cross_thickness":1,"border":true,"border_thickness":2,"border_color":"transparent","canvas_width":1280,"canvas_height":720,"trial_type":"rdk","trial_index":92,"plugin_version":"2.0.0","time_elapsed":397705},{"rt":6723,"stimulus":"\n        <div class=\"response-container\">\n          <div class=\"response-instruction\">\n            <p>rotate the bar by using the left and right arrow keys.</p>\n            <p>when you are determined, press the Enter key.</p>\n          </div>\n          <div class=\"response-circle\">\n            <div class=\"response-fixation\"></div>\n            <div id=\"bar\" class=\"rotating-bar\"></div>\n          </div>\n        </div>\n      ","response":"Enter","trial_type":"html-keyboard-response","trial_index":93,"plugin_version":"2.1.0","time_elapsed":404429,"random_initial_angle":189,"response_angle_css":400,"response_angle_rdk":50,"angular_error_target":20,"angular_error_distractor":146,"target_direction":30,"target_group":"white","reward_points":6},{"rt":null,"stimulus":"\n          <p style=\"color: #00FF00;\">Your reward: 6 points</p>\n        ","response":null,"trial_type":"html-keyboard-response","trial_index":94,"plugin_version":"2.1.0","time_elapsed":406430},{"rt":null,"stimulus":"<div class=\"fixation\" style=\"font-size: 60px;\">+</div>","response":null,"trial_type":"html-keyboard-response","trial_index":95,"plugin_version":"2.1.0","time_elapsed":407432},{"phase":"learning-awareness","target_group":"white","condition_label":"W_H_vs_B_L_rep4","target_direction":14,"distractor_direction":283,"session_rotation":351,"rt":-1,"response":"","correct":false,"choices":"ALL_KEYS","correct_choice":["a"],"trial_duration":2000,"flip_timestamps":[],"response_ends_trial":false,"number_of_apertures":200,"number_of_dots":[1,1,1,1,1,1,1,1,1,1,1,1,1,1,1,1,1,1,1,1,1,1,1,1,1,1,1,1,1,1,1,1,1,1,1,1,1,1,1,1,1,1,1,1,1,1,1,1,1,1,1,1,1,1,1,1,1,1,1,1,1,1,1,1,1,1,1,1,1,1,1,1,1,1,1,1,1,1,1,1,1,1,1,1,1,1,1,1,1,1,1,1,1,1,1,1,1,1,1,1,1,1,1,1,1,1,1,1,1,1,1,1,1,1,1,1,1,1,1,1,1,1,1,1,1,1,1,1,1,1,1,1,1,1,1,1,1,1,1,1,1,1,1,1,1,1,1,1,1,1,1,1,1,1,1,1,1,1,1,1,1,1,1,1,1,1,1,1,1,1,1,1,1,1,1,1,1,1,1,1,1,1,1,1,1,1,1,1,1,1,1,1,1,1,1,1,1,1,1,1],"number_of_sets":1,"coherent_direction":[14,283,14,283,283,283,14,14,14,14,283,14,14,14,14,283,14,14,14,14,283,14,283,283,283,14,14,14,283,283,14,283,14,283,14,283,14,283,283,14,14,14,14,283,14,14,283,283,283,14,14,14,14,14,14,14,14,283,283,283,14,14,14,283,14,283,14,14,14,283,14,283,283,283,14,283,283,283,283,14,283,283,283,14,14,283,283,283,283,14,14,14,14,283,283,14,283,283,14,283,283,283,14,283,14,283,283,283,14,283,283,283,283,283,283,283,283,283,14,14,283,14,283,14,14,14,283,14,14,283,14,14,283,283,14,14,14,283,14,14,283,14,14,283,14,283,283,14,283,14,283,283,283,283,283,283,14,14,14,283,283,14,283,283,283,14,14,283,14,14,14,14,283,14,283,14,14,14,283,283,14,283,14,283,283,283,14,14,283,283,283,14,14,14,14,283,14,283,283,283],"coherence":1,"opposite_coherence":0,"dot_radius":2,"dot_side_length":1,"dot_life":-1,"move_distance":1,"aperture_width":300,"aperture_height":300,"dot_color":["white","black","white","black","black","black","white","white","white","white","black","white","white","white","white","black","white","white","white","white","black","white","black","black","black","white","white","white","black","black","white","black","white","black","white","black","white","black","black","white","white","white","white","black","white","white","black","black","black","white","white","white","white","white","white","white","white","black","black","black","white","white","white","black","white","black","white","white","white","black","white","black","black","black","white","black","black","black","black","white","black","black","black","white","white","black","black","black","black","white","white","white","white","black","black","white","black","black","white","black","black","black","white","black","white","black","black","black","white","black","black","black","black","black","black","black","black","black","white","white","black","white","black","white","white","white","black","white","white","black","white","white","black","black","white","white","white","black","white","white","black","white","white","black","white","black","black","white","black","white","black","black","black","black","black","black","white","white","white","black","black","white","black","black","black","white","white","black","white","white","white","white","black","white","black","white","white","white","black","black","white","black","white","black","black","black","white","white","black","black","black","white","white","white","white","black","white","black","black","black"],"dot_shape":"circle","background_color":"#AAA","RDK_type":3,"aperture_type":2,"reinsert_type":2,"frame_rate":19.97,"frame_rate_array":[15,20,21,19,21,20,19,20,20,20,20,20,20,21,19,20,20,22,20,19,18,20,20,20,20,20,20,20,22,21,20,18,20,21,19,20,20,20,20,20,20,21,20,20,19,20,20,19,20,20,22,19,20,20,20,19,20,20,23,19,20,20,20,21,18,20,20,23,19,21,19,22,20,17,20,20,20,21,20,20,20,20,21,19,20,21,18,20,20,21,20,19,23,22,17,19,21,20,19,20],"number_of_frames":100,"aperture_center_x":640,"aperture_center_y":360,"fixation_cross":true,"fixation_cross_width":15,"fixation_cross_height":15,"fixation_cross_color":"#111","fixation_cross_thickness":1,"border":true,"border_thickness":2,"border_color":"transparent","canvas_width":1280,"canvas_height":720,"trial_type":"rdk","trial_index":96,"plugin_version":"2.0.0","time_elapsed":409435},{"rt":7157,"stimulus":"\n        <div class=\"response-container\">\n          <div class=\"response-instruction\">\n            <p>rotate the bar by using the left and right arrow keys.</p>\n            <p>when you are determined, press the Enter key.</p>\n          </div>\n          <div class=\"response-circle\">\n            <div class=\"response-fixation\"></div>\n            <div id=\"bar\" class=\"rotating-bar\"></div>\n          </div>\n        </div>\n      ","response":"Enter","trial_type":"html-keyboard-response","trial_index":97,"plugin_version":"2.1.0","time_elapsed":416592,"random_initial_angle":244,"response_angle_css":406,"response_angle_rdk":44,"angular_error_target":30,"angular_error_distractor":121,"target_direction":14,"target_group":"white","reward_points":4},{"rt":null,"stimulus":"\n          <p style=\"color: #00FF00;\">Your reward: 4 points</p>\n        ","response":null,"trial_type":"html-keyboard-response","trial_index":98,"plugin_version":"2.1.0","time_elapsed":418594},{"rt":null,"stimulus":"<div class=\"fixation\" style=\"font-size: 60px;\">+</div>","response":null,"trial_type":"html-keyboard-response","trial_index":99,"plugin_version":"2.1.0","time_elapsed":419596},{"phase":"learning-awareness","target_group":"white","condition_label":"W_H_vs_B_L_rep17","target_direction":17,"distractor_direction":267,"session_rotation":351,"rt":-1,"response":"","correct":false,"choices":"ALL_KEYS","correct_choice":["a"],"trial_duration":2000,"flip_timestamps":[],"response_ends_trial":false,"number_of_apertures":200,"number_of_dots":[1,1,1,1,1,1,1,1,1,1,1,1,1,1,1,1,1,1,1,1,1,1,1,1,1,1,1,1,1,1,1,1,1,1,1,1,1,1,1,1,1,1,1,1,1,1,1,1,1,1,1,1,1,1,1,1,1,1,1,1,1,1,1,1,1,1,1,1,1,1,1,1,1,1,1,1,1,1,1,1,1,1,1,1,1,1,1,1,1,1,1,1,1,1,1,1,1,1,1,1,1,1,1,1,1,1,1,1,1,1,1,1,1,1,1,1,1,1,1,1,1,1,1,1,1,1,1,1,1,1,1,1,1,1,1,1,1,1,1,1,1,1,1,1,1,1,1,1,1,1,1,1,1,1,1,1,1,1,1,1,1,1,1,1,1,1,1,1,1,1,1,1,1,1,1,1,1,1,1,1,1,1,1,1,1,1,1,1,1,1,1,1,1,1,1,1,1,1,1,1],"number_of_sets":1,"coherent_direction":[267,17,267,267,267,267,267,17,17,267,267,267,267,17,267,17,267,17,17,267,267,17,17,17,17,17,17,267,17,267,267,267,267,267,267,17,17,267,17,17,267,17,17,267,17,267,17,267,267,267,267,267,267,267,17,17,17,267,17,17,17,267,17,267,17,267,17,267,17,17,17,17,267,267,267,17,267,267,17,17,17,267,267,17,17,17,267,17,267,267,17,267,17,17,17,267,17,267,267,267,17,17,267,17,267,17,267,267,17,267,267,17,17,17,267,267,267,17,267,17,17,17,267,17,267,267,17,17,17,17,17,17,17,267,267,17,17,17,17,267,267,17,267,267,267,267,17,267,267,267,17,267,17,17,17,17,267,267,17,267,267,17,17,267,17,267,267,267,17,267,267,267,17,17,17,267,17,267,17,17,17,267,17,17,267,267,17,17,17,267,17,267,17,17,267,267,267,267,17,267],"coherence":1,"opposite_coherence":0,"dot_radius":2,"dot_side_length":1,"dot_life":-1,"move_distance":1,"aperture_width":300,"aperture_height":300,"dot_color":["black","white","black","black","black","black","black","white","white","black","black","black","black","white","black","white","black","white","white","black","black","white","white","white","white","white","white","black","white","black","black","black","black","black","black","white","white","black","white","white","black","white","white","black","white","black","white","black","black","black","black","black","black","black","white","white","white","black","white","white","white","black","white","black","white","black","white","black","white","white","white","white","black","black","black","white","black","black","white","white","white","black","black","white","white","white","black","white","black","black","white","black","white","white","white","black","white","black","black","black","white","white","black","white","black","white","black","black","white","black","black","white","white","white","black","black","black","white","black","white","white","white","black","white","black","black","white","white","white","white","white","white","white","black","black","white","white","white","white","black","black","white","black","black","black","black","white","black","black","black","white","black","white","white","white","white","black","black","white","black","black","white","white","black","white","black","black","black","white","black","black","black","white","white","white","black","white","black","white","white","white","black","white","white","black","black","white","white","white","black","white","black","white","white","black","black","black","black","white","black"],"dot_shape":"circle","background_color":"#AAA","RDK_type":3,"aperture_type":2,"reinsert_type":2,"frame_rate":19.92,"frame_rate_array":[10,20,20,19,20,20,20,20,20,23,20,17,20,20,21,22,19,19,20,19,19,20,20,20,20,20,20,20,20,22,21,20,18,24,20,17,19,21,19,22,21,19,20,19,20,19,20,20,20,21,20,24,21,16,19,20,20,25,20,16,21,19,21,23,21,16,20,20,20,20,20,20,21,19,21,20,19,19,20,20,20,21,20,20,20,20,20,20,20,20,20,20,19,20,20,20,23,19,19,20],"number_of_frames":100,"aperture_center_x":640,"aperture_center_y":360,"fixation_cross":true,"fixation_cross_width":15,"fixation_cross_height":15,"fixation_cross_color":"#111","fixation_cross_thickness":1,"border":true,"border_thickness":2,"border_color":"transparent","canvas_width":1280,"canvas_height":720,"trial_type":"rdk","trial_index":100,"plugin_version":"2.0.0","time_elapsed":421600},{"rt":2988,"stimulus":"\n        <div class=\"response-container\">\n          <div class=\"response-instruction\">\n            <p>rotate the bar by using the left and right arrow keys.</p>\n            <p>when you are determined, press the Enter key.</p>\n          </div>\n          <div class=\"response-circle\">\n            <div class=\"response-fixation\"></div>\n            <div id=\"bar\" class=\"rotating-bar\"></div>\n          </div>\n        </div>\n      ","response":"Enter","trial_type":"html-keyboard-response","trial_index":101,"plugin_version":"2.1.0","time_elapsed":424588,"random_initial_angle":51,"response_angle_css":51,"response_angle_rdk":39,"angular_error_target":22,"angular_error_distractor":132,"target_direction":17,"target_group":"white","reward_points":5},{"rt":null,"stimulus":"\n          <p style=\"color: #00FF00;\">Your reward: 5 points</p>\n        ","response":null,"trial_type":"html-keyboard-response","trial_index":102,"plugin_version":"2.1.0","time_elapsed":426590},{"rt":null,"stimulus":"<div class=\"fixation\" style=\"font-size: 60px;\">+</div>","response":null,"trial_type":"html-keyboard-response","trial_index":103,"plugin_version":"2.1.0","time_elapsed":427592},{"phase":"learning-awareness","target_group":"black","condition_label":"B_H_vs_W_L_rep24","target_direction":101,"distractor_direction":214,"session_rotation":351,"rt":-1,"response":"","correct":false,"choices":"ALL_KEYS","correct_choice":["a"],"trial_duration":2000,"flip_timestamps":[],"response_ends_trial":false,"number_of_apertures":200,"number_of_dots":[1,1,1,1,1,1,1,1,1,1,1,1,1,1,1,1,1,1,1,1,1,1,1,1,1,1,1,1,1,1,1,1,1,1,1,1,1,1,1,1,1,1,1,1,1,1,1,1,1,1,1,1,1,1,1,1,1,1,1,1,1,1,1,1,1,1,1,1,1,1,1,1,1,1,1,1,1,1,1,1,1,1,1,1,1,1,1,1,1,1,1,1,1,1,1,1,1,1,1,1,1,1,1,1,1,1,1,1,1,1,1,1,1,1,1,1,1,1,1,1,1,1,1,1,1,1,1,1,1,1,1,1,1,1,1,1,1,1,1,1,1,1,1,1,1,1,1,1,1,1,1,1,1,1,1,1,1,1,1,1,1,1,1,1,1,1,1,1,1,1,1,1,1,1,1,1,1,1,1,1,1,1,1,1,1,1,1,1,1,1,1,1,1,1,1,1,1,1,1,1],"number_of_sets":1,"coherent_direction":[214,214,101,101,101,101,214,214,214,214,101,101,214,214,214,214,214,214,101,214,101,214,101,214,214,101,101,101,214,214,214,214,101,101,101,214,101,101,101,101,101,214,101,214,101,101,101,214,214,101,101,101,214,101,214,214,214,101,101,101,101,214,214,101,214,214,101,214,214,214,101,214,101,101,101,101,101,214,101,101,101,214,214,101,214,214,214,214,101,214,101,101,101,214,214,101,101,214,101,214,214,214,214,101,214,101,101,214,101,101,214,101,101,214,214,214,101,101,214,101,101,101,101,101,214,101,214,101,214,101,214,101,101,101,214,101,101,214,214,214,214,101,101,214,101,214,214,214,214,101,214,101,214,101,101,214,214,101,214,214,214,214,214,214,101,101,214,101,214,101,214,101,101,101,101,214,214,101,101,214,101,101,101,214,214,214,101,214,214,214,101,101,214,214,214,101,214,101,214,101],"coherence":1,"opposite_coherence":0,"dot_radius":2,"dot_side_length":1,"dot_life":-1,"move_distance":1,"aperture_width":300,"aperture_height":300,"dot_color":["white","white","black","black","black","black","white","white","white","white","black","black","white","white","white","white","white","white","black","white","black","white","black","white","white","black","black","black","white","white","white","white","black","black","black","white","black","black","black","black","black","white","black","white","black","black","black","white","white","black","black","black","white","black","white","white","white","black","black","black","black","white","white","black","white","white","black","white","white","white","black","white","black","black","black","black","black","white","black","black","black","white","white","black","white","white","white","white","black","white","black","black","black","white","white","black","black","white","black","white","white","white","white","black","white","black","black","white","black","black","white","black","black","white","white","white","black","black","white","black","black","black","black","black","white","black","white","black","white","black","white","black","black","black","white","black","black","white","white","white","white","black","black","white","black","white","white","white","white","black","white","black","white","black","black","white","white","black","white","white","white","white","white","white","black","black","white","black","white","black","white","black","black","black","black","white","white","black","black","white","black","black","black","white","white","white","black","white","white","white","black","black","white","white","white","black","white","black","white","black"],"dot_shape":"circle","background_color":"#AAA","RDK_type":3,"aperture_type":2,"reinsert_type":2,"frame_rate":20,"frame_rate_array":[15,17,19,20,20,20,20,20,20,20,20,22,20,20,19,19,19,21,20,20,20,20,20,21,20,20,20,20,20,20,21,20,20,20,20,20,20,20,20,20,20,20,20,20,20,20,20,21,19,20,21,19,20,20,20,20,20,20,20,20,21,21,20,21,19,19,21,20,19,20,21,21,20,18,20,20,21,21,20,21,19,20,21,20,19,20,20,21,19,21,19,20,20,21,20,18,20,21,24,20],"number_of_frames":100,"aperture_center_x":640,"aperture_center_y":360,"fixation_cross":true,"fixation_cross_width":15,"fixation_cross_height":15,"fixation_cross_color":"#111","fixation_cross_thickness":1,"border":true,"border_thickness":2,"border_color":"transparent","canvas_width":1280,"canvas_height":720,"trial_type":"rdk","trial_index":104,"plugin_version":"2.0.0","time_elapsed":429596},{"rt":7266,"stimulus":"\n        <div class=\"response-container\">\n          <div class=\"response-instruction\">\n            <p>rotate the bar by using the left and right arrow keys.</p>\n            <p>when you are determined, press the Enter key.</p>\n          </div>\n          <div class=\"response-circle\">\n            <div class=\"response-fixation\"></div>\n            <div id=\"bar\" class=\"rotating-bar\"></div>\n          </div>\n        </div>\n      ","response":"Enter","trial_type":"html-keyboard-response","trial_index":105,"plugin_version":"2.1.0","time_elapsed":436864,"random_initial_angle":26,"response_angle_css":309,"response_angle_rdk":141,"angular_error_target":40,"angular_error_distractor":-73,"target_direction":101,"target_group":"black","reward_points":1},{"rt":null,"stimulus":"\n          <p style=\"color: #FF3333;\">Your reward: 1 points</p>\n        ","response":null,"trial_type":"html-keyboard-response","trial_index":106,"plugin_version":"2.1.0","time_elapsed":438866},{"rt":null,"stimulus":"<div class=\"fixation\" style=\"font-size: 60px;\">+</div>","response":null,"trial_type":"html-keyboard-response","trial_index":107,"plugin_version":"2.1.0","time_elapsed":439868},{"phase":"learning-awareness","target_group":"black","condition_label":"B_H_vs_W_L_rep7","target_direction":88,"distractor_direction":188,"session_rotation":351,"rt":-1,"response":"","correct":false,"choices":"ALL_KEYS","correct_choice":["a"],"trial_duration":2000,"flip_timestamps":[],"response_ends_trial":false,"number_of_apertures":200,"number_of_dots":[1,1,1,1,1,1,1,1,1,1,1,1,1,1,1,1,1,1,1,1,1,1,1,1,1,1,1,1,1,1,1,1,1,1,1,1,1,1,1,1,1,1,1,1,1,1,1,1,1,1,1,1,1,1,1,1,1,1,1,1,1,1,1,1,1,1,1,1,1,1,1,1,1,1,1,1,1,1,1,1,1,1,1,1,1,1,1,1,1,1,1,1,1,1,1,1,1,1,1,1,1,1,1,1,1,1,1,1,1,1,1,1,1,1,1,1,1,1,1,1,1,1,1,1,1,1,1,1,1,1,1,1,1,1,1,1,1,1,1,1,1,1,1,1,1,1,1,1,1,1,1,1,1,1,1,1,1,1,1,1,1,1,1,1,1,1,1,1,1,1,1,1,1,1,1,1,1,1,1,1,1,1,1,1,1,1,1,1,1,1,1,1,1,1,1,1,1,1,1,1],"number_of_sets":1,"coherent_direction":[188,88,88,188,88,88,188,88,188,88,188,188,88,188,88,88,188,188,188,188,88,188,88,188,188,88,188,88,88,188,88,188,88,188,88,88,188,188,88,88,88,88,188,88,188,188,88,188,188,188,188,188,88,88,188,88,188,88,188,188,188,188,88,88,188,188,88,188,188,188,88,188,88,188,188,188,188,88,88,88,88,188,188,188,88,188,88,88,88,188,188,188,188,188,188,188,88,188,88,188,88,88,188,188,88,188,88,188,88,88,188,88,88,88,188,188,88,88,88,188,188,88,188,188,188,88,88,88,88,188,188,88,88,88,88,88,88,88,188,188,88,88,188,88,188,88,188,88,188,88,188,88,88,188,88,88,188,188,88,88,188,188,188,188,88,88,88,188,88,88,88,88,188,188,188,188,188,88,188,88,188,188,188,88,88,88,88,88,88,88,188,88,188,88,88,188,188,88,88,188],"coherence":1,"opposite_coherence":0,"dot_radius":2,"dot_side_length":1,"dot_life":-1,"move_distance":1,"aperture_width":300,"aperture_height":300,"dot_color":["white","black","black","white","black","black","white","black","white","black","white","white","black","white","black","black","white","white","white","white","black","white","black","white","white","black","white","black","black","white","black","white","black","white","black","black","white","white","black","black","black","black","white","black","white"