[{"rt":21496,"stimulus":"Welcome to the experiment. Press any key to begin.","response":" ","trial_type":"html-keyboard-response","trial_index":0,"plugin_version":"2.1.0","time_elapsed":21506},{"rt":41787,"stimulus":"\n        <div class=\"instructions-container\">\n          <h2>Instructions</h2>\n\n          <p>\n          In this experiment, you will see <strong>two Random Dot Kinematograms (RDKs)</strong> displayed simultaneously.\n          </p>\n\n          <p>\n          An RDK is a visual stimulus consisting of many small dots that move coherently in a single direction. \n          In this experiment, the dots will be either <strong>white</strong> or <strong>black</strong> \n          (see the short demo below for an example of an RDK stimulus).\n          </p>\n\n          <p>\n          On each trial, the two RDKs will move in different directions. \n          Your task is to decide <strong>which RDK appears to contain more dots</strong>.\n          </p>\n\n          <p>\n          The RDK that you judge to have more dots is called the <strong>target RDK</strong>. \n          For example, if the white RDK appears to have more dots than the black RDK, \n          you should report the motion direction of the white RDK.\n          </p>\n\n          <p>\n          After viewing the RDKs, you will rotate a bar to indicate the perceived direction of the target RDK \n          using the <strong>left</strong> and <strong>right arrow keys</strong>. \n          Press <strong>Enter</strong> when you are satisfied with your response.\n          When the bar is held down, the rotation speed increases.\n          </p>\n\n          <p>\n          You will receive points based on the <strong>accuracy of your response</strong>, \n          and your final <strong>bonus reward</strong> may depend on your overall performance. \n          Please try to respond as accurately as possible.\n          </p>\n\n          <p>\n          You will first complete <strong>16 practice trials</strong>. \n          Press the <strong>Enter</strong> key to start the practice phase.\n          </p>\n\n          <canvas id=\"instruction-demo-rdk\" width=\"200\" height=\"200\"style=\"display:block;margin:12px auto; border-radius: 50%;\"></canvas>\n        </div>\n      ","response":"Enter","trial_type":"html-keyboard-response","trial_index":1,"plugin_version":"2.1.0","time_elapsed":63298},{"rt":null,"stimulus":"<div class=\"fixation\" style=\"font-size: 60px;\">+</div>","response":null,"trial_type":"html-keyboard-response","trial_index":2,"plugin_version":"2.1.0","time_elapsed":64316},{"target_group":"black","target_index":1,"condition_label":"practice","rt":-1,"response":"","correct":false,"choices":"ALL_KEYS","correct_choice":["a"],"trial_duration":2000,"flip_timestamps":[],"response_ends_trial":false,"number_of_apertures":2,"number_of_dots":[99,100],"number_of_sets":1,"coherent_direction":[182,76],"coherence":1,"opposite_coherence":0,"dot_radius":2,"dot_side_length":1,"dot_life":-1,"move_distance":1,"aperture_width":300,"aperture_height":300,"dot_color":["white","black"],"dot_shape":"circle","background_color":"#AAA","RDK_type":3,"aperture_type":2,"reinsert_type":2,"frame_rate":15.5859375,"frame_rate_array":[12,16,20,9,13,16,16,16,16,16,16,16,16,16,17,16,9,16,17,16,16,12,23,17,13,16,16,16,12,15,16,14,19,16,16,16,17,16,13,12,16,17,16,12,17,18,18,11,15,23,11,16,16,13,21,10,16,22,10,15,16,16,16,16,18,17,14,13,16,16,16,15,18,17,16,16,12,23,9,16,16,15,16,17,14,18,18,16,13,20,12,13,20,12,18,19,11,13,18,13,18,14,19,17,18,10,15,16,17,16,16,17,16,16,16,16,9,15,16,17,13,18,16,16,16,12,15,18],"number_of_frames":128,"aperture_center_x":683,"aperture_center_y":384,"fixation_cross":true,"fixation_cross_width":15,"fixation_cross_height":15,"fixation_cross_color":"#111","fixation_cross_thickness":1,"border":true,"border_thickness":2,"border_color":"transparent","canvas_width":1366,"canvas_height":768,"trial_type":"rdk","trial_index":3,"plugin_version":"2.0.0","time_elapsed":66345,"phase":"practice","target_direction":76,"distractor_direction":182},{"rt":8175,"stimulus":"\n        <div class=\"response-container\">\n          <div class=\"response-instruction\">\n            <p>rotate the bar by using the left and right arrow keys.</p>\n            <p>when you are determined, press the Enter key.</p>\n          </div>\n          <div class=\"response-circle\">\n            <div class=\"response-fixation\"></div>\n            <div id=\"bar\" class=\"rotating-bar\"></div>\n          </div>\n        </div>\n      ","response":"Enter","trial_type":"html-keyboard-response","trial_index":4,"plugin_version":"2.1.0","time_elapsed":74523,"random_initial_angle":128,"response_angle_css":128,"response_angle_rdk":322,"angular_error_target":-114,"angular_error_distractor":140,"target_direction":76,"target_group":"black","reward_points":0},{"rt":null,"stimulus":"\n          <p style=\"color: #FF3333;\">Your reward: 0 points</p>\n        ","response":null,"trial_type":"html-keyboard-response","trial_index":5,"plugin_version":"2.1.0","time_elapsed":76531},{"rt":null,"stimulus":"<div class=\"fixation\" style=\"font-size: 60px;\">+</div>","response":null,"trial_type":"html-keyboard-response","trial_index":6,"plugin_version":"2.1.0","time_elapsed":77543},{"target_group":"black","target_index":1,"condition_label":"practice","rt":529,"response":"ArrowDown","correct":false,"choices":"ALL_KEYS","correct_choice":["a"],"trial_duration":2000,"flip_timestamps":[],"response_ends_trial":false,"number_of_apertures":2,"number_of_dots":[88,100],"number_of_sets":1,"coherent_direction":[302,99],"coherence":1,"opposite_coherence":0,"dot_radius":2,"dot_side_length":1,"dot_life":-1,"move_distance":1,"aperture_width":300,"aperture_height":300,"dot_color":["white","black"],"dot_shape":"circle","background_color":"#AAA","RDK_type":3,"aperture_type":2,"reinsert_type":2,"frame_rate":15.578125,"frame_rate_array":[11,14,14,12,10,17,18,16,17,17,9,16,16,18,16,14,16,18,14,13,25,14,12,14,16,15,17,15,17,16,17,15,13,15,15,16,23,9,15,17,17,15,17,15,13,15,18,13,17,16,15,16,14,18,13,16,16,24,10,16,17,16,16,11,15,23,9,15,16,16,17,16,13,18,14,15,18,14,14,21,12,20,13,19,20,9,16,18,13,16,19,14,14,13,17,15,17,16,16,16,16,16,16,16,14,19,10,15,20,13,16,14,19,17,17,16,10,27,7,13,16,16,16,16,15,18,13,20],"number_of_frames":128,"aperture_center_x":683,"aperture_center_y":384,"fixation_cross":true,"fixation_cross_width":15,"fixation_cross_height":15,"fixation_cross_color":"#111","fixation_cross_thickness":1,"border":true,"border_thickness":2,"border_color":"transparent","canvas_width":1366,"canvas_height":768,"trial_type":"rdk","trial_index":7,"plugin_version":"2.0.0","time_elapsed":79549,"phase":"practice","target_direction":99,"distractor_direction":302},{"rt":6004,"stimulus":"\n        <div class=\"response-container\">\n          <div class=\"response-instruction\">\n            <p>rotate the bar by using the left and right arrow keys.</p>\n            <p>when you are determined, press the Enter key.</p>\n          </div>\n          <div class=\"response-circle\">\n            <div class=\"response-fixation\"></div>\n            <div id=\"bar\" class=\"rotating-bar\"></div>\n          </div>\n        </div>\n      ","response":"Enter","trial_type":"html-keyboard-response","trial_index":8,"plugin_version":"2.1.0","time_elapsed":85555,"random_initial_angle":152,"response_angle_css":246,"response_angle_rdk":204,"angular_error_target":105,"angular_error_distractor":-98,"target_direction":99,"target_group":"black","reward_points":0},{"rt":null,"stimulus":"\n          <p style=\"color: #FF3333;\">Your reward: 0 points</p>\n        ","response":null,"trial_type":"html-keyboard-response","trial_index":9,"plugin_version":"2.1.0","time_elapsed":87557},{"rt":null,"stimulus":"<div class=\"fixation\" style=\"font-size: 60px;\">+</div>","response":null,"trial_type":"html-keyboard-response","trial_index":10,"plugin_version":"2.1.0","time_elapsed":88567},{"target_group":"white","target_index":0,"condition_label":"practice","rt":712,"response":"ArrowUp","correct":false,"choices":"ALL_KEYS","correct_choice":["a"],"trial_duration":2000,"flip_timestamps":[],"response_ends_trial":false,"number_of_apertures":2,"number_of_dots":[100,51],"number_of_sets":1,"coherent_direction":[265,122],"coherence":1,"opposite_coherence":0,"dot_radius":2,"dot_side_length":1,"dot_life":-1,"move_distance":1,"aperture_width":300,"aperture_height":300,"dot_color":["white","black"],"dot_shape":"circle","background_color":"#AAA","RDK_type":3,"aperture_type":2,"reinsert_type":2,"frame_rate":15.51937984496124,"frame_rate_array":[10,10,11,13,21,10,15,16,20,8,17,15,18,23,9,13,17,16,16,16,16,17,16,11,15,23,8,16,16,16,16,17,16,16,20,12,9,16,23,8,19,14,16,18,15,17,16,14,20,18,7,24,8,15,18,15,16,13,17,18,15,19,12,14,16,15,15,19,15,16,16,18,17,16,9,16,16,16,17,16,12,20,14,15,21,13,14,26,11,9,13,18,19,16,15,12,21,17,11,17,12,20,13,16,16,17,13,15,20,16,14,17,11,19,17,13,15,15,18,18,13,19,11,19,14,19,12,20,14],"number_of_frames":129,"aperture_center_x":683,"aperture_center_y":384,"fixation_cross":true,"fixation_cross_width":15,"fixation_cross_height":15,"fixation_cross_color":"#111","fixation_cross_thickness":1,"border":true,"border_thickness":2,"border_color":"transparent","canvas_width":1366,"canvas_height":768,"trial_type":"rdk","trial_index":11,"plugin_version":"2.0.0","time_elapsed":90579,"phase":"practice","target_direction":265,"distractor_direction":122},{"rt":9491,"stimulus":"\n        <div class=\"response-container\">\n          <div class=\"response-instruction\">\n            <p>rotate the bar by using the left and right arrow keys.</p>\n            <p>when you are determined, press the Enter key.</p>\n          </div>\n          <div class=\"response-circle\">\n            <div class=\"response-fixation\"></div>\n            <div id=\"bar\" class=\"rotating-bar\"></div>\n          </div>\n        </div>\n      ","response":"Enter","trial_type":"html-keyboard-response","trial_index":12,"plugin_version":"2.1.0","time_elapsed":100071,"random_initial_angle":198,"response_angle_css":42,"response_angle_rdk":48,"angular_error_target":143,"angular_error_distractor":-74,"target_direction":265,"target_group":"white","reward_points":0},{"rt":null,"stimulus":"\n          <p style=\"color: #FF3333;\">Your reward: 0 points</p>\n        ","response":null,"trial_type":"html-keyboard-response","trial_index":13,"plugin_version":"2.1.0","time_elapsed":102076},{"rt":null,"stimulus":"<div class=\"fixation\" style=\"font-size: 60px;\">+</div>","response":null,"trial_type":"html-keyboard-response","trial_index":14,"plugin_version":"2.1.0","time_elapsed":103093},{"target_group":"black","target_index":1,"condition_label":"practice","rt":-1,"response":"","correct":false,"choices":"ALL_KEYS","correct_choice":["a"],"trial_duration":2000,"flip_timestamps":[],"response_ends_trial":false,"number_of_apertures":2,"number_of_dots":[64,100],"number_of_sets":1,"coherent_direction":[355,158],"coherence":1,"opposite_coherence":0,"dot_radius":2,"dot_side_length":1,"dot_life":-1,"move_distance":1,"aperture_width":300,"aperture_height":300,"dot_color":["white","black"],"dot_shape":"circle","background_color":"#AAA","RDK_type":3,"aperture_type":2,"reinsert_type":2,"frame_rate":15.51937984496124,"frame_rate_array":[11,10,14,12,14,16,18,15,17,15,15,15,23,9,22,12,15,15,15,18,13,16,16,17,17,15,14,17,21,12,13,18,13,16,21,11,15,19,20,12,12,16,16,18,16,17,14,15,19,16,13,16,15,14,14,20,16,16,16,11,14,16,16,16,16,16,16,17,17,11,23,8,17,16,14,19,17,15,16,16,13,20,8,16,16,16,16,14,19,17,10,15,23,16,9,15,17,17,16,16,16,12,19,15,16,16,16,17,14,14,15,16,15,15,16,16,15,17,17,17,16,16,16,10,23,8,16,17,14],"number_of_frames":129,"aperture_center_x":683,"aperture_center_y":384,"fixation_cross":true,"fixation_cross_width":15,"fixation_cross_height":15,"fixation_cross_color":"#111","fixation_cross_thickness":1,"border":true,"border_thickness":2,"border_color":"transparent","canvas_width":1366,"canvas_height":768,"trial_type":"rdk","trial_index":15,"plugin_version":"2.0.0","time_elapsed":105106,"phase":"practice","target_direction":158,"distractor_direction":355},{"rt":10835,"stimulus":"\n        <div class=\"response-container\">\n          <div class=\"response-instruction\">\n            <p>rotate the bar by using the left and right arrow keys.</p>\n            <p>when you are determined, press the Enter key.</p>\n          </div>\n          <div class=\"response-circle\">\n            <div class=\"response-fixation\"></div>\n            <div id=\"bar\" class=\"rotating-bar\"></div>\n          </div>\n        </div>\n      ","response":"Enter","trial_type":"html-keyboard-response","trial_index":16,"plugin_version":"2.1.0","time_elapsed":115943,"random_initial_angle":164,"response_angle_css":274,"response_angle_rdk":176,"angular_error_target":18,"angular_error_distractor":-179,"target_direction":158,"target_group":"black","reward_points":6},{"rt":null,"stimulus":"\n          <p style=\"color: #00FF00;\">Your reward: 6 points</p>\n        ","response":null,"trial_type":"html-keyboard-response","trial_index":17,"plugin_version":"2.1.0","time_elapsed":117957},{"rt":null,"stimulus":"<div class=\"fixation\" style=\"font-size: 60px;\">+</div>","response":null,"trial_type":"html-keyboard-response","trial_index":18,"plugin_version":"2.1.0","time_elapsed":118970},{"target_group":"black","target_index":1,"condition_label":"practice","rt":673,"response":"ArrowRight","correct":false,"choices":"ALL_KEYS","correct_choice":["a"],"trial_duration":2000,"flip_timestamps":[],"response_ends_trial":false,"number_of_apertures":2,"number_of_dots":[50,100],"number_of_sets":1,"coherent_direction":[273,70],"coherence":1,"opposite_coherence":0,"dot_radius":2,"dot_side_length":1,"dot_life":-1,"move_distance":1,"aperture_width":300,"aperture_height":300,"dot_color":["white","black"],"dot_shape":"circle","background_color":"#AAA","RDK_type":3,"aperture_type":2,"reinsert_type":2,"frame_rate":15.51937984496124,"frame_rate_array":[11,8,13,15,13,15,17,17,12,16,19,16,16,17,15,16,16,15,17,11,16,16,17,16,16,17,17,11,14,16,15,16,19,16,15,16,12,16,17,16,17,12,16,15,16,16,16,16,16,17,17,12,17,13,20,18,9,18,16,16,16,17,16,17,15,14,15,19,8,22,16,11,14,16,17,16,16,14,18,17,16,16,16,16,16,9,15,16,17,16,16,17,16,17,13,13,24,8,15,17,17,16,17,16,10,21,18,10,16,15,16,17,15,14,20,16,17,10,29,6,12,17,17,15,18,13,15,16,18],"number_of_frames":129,"aperture_center_x":683,"aperture_center_y":384,"fixation_cross":true,"fixation_cross_width":15,"fixation_cross_height":15,"fixation_cross_color":"#111","fixation_cross_thickness":1,"border":true,"border_thickness":2,"border_color":"transparent","canvas_width":1366,"canvas_height":768,"trial_type":"rdk","trial_index":19,"plugin_version":"2.0.0","time_elapsed":120984,"phase":"practice","target_direction":70,"distractor_direction":273},{"rt":1985,"stimulus":"\n        <div class=\"response-container\">\n          <div class=\"response-instruction\">\n            <p>rotate the bar by using the left and right arrow keys.</p>\n            <p>when you are determined, press the Enter key.</p>\n          </div>\n          <div class=\"response-circle\">\n            <div class=\"response-fixation\"></div>\n            <div id=\"bar\" class=\"rotating-bar\"></div>\n          </div>\n        </div>\n      ","response":"Enter","trial_type":"html-keyboard-response","trial_index":20,"plugin_version":"2.1.0","time_elapsed":122973,"random_initial_angle":38,"response_angle_css":38,"response_angle_rdk":52,"angular_error_target":-18,"angular_error_distractor":139,"target_direction":70,"target_group":"black","reward_points":6},{"rt":null,"stimulus":"\n          <p style=\"color: #00FF00;\">Your reward: 6 points</p>\n        ","response":null,"trial_type":"html-keyboard-response","trial_index":21,"plugin_version":"2.1.0","time_elapsed":124984},{"rt":null,"stimulus":"<div class=\"fixation\" style=\"font-size: 60px;\">+</div>","response":null,"trial_type":"html-keyboard-response","trial_index":22,"plugin_version":"2.1.0","time_elapsed":125999},{"target_group":"black","target_index":1,"condition_label":"practice","rt":-1,"response":"","correct":false,"choices":"ALL_KEYS","correct_choice":["a"],"trial_duration":2000,"flip_timestamps":[],"response_ends_trial":false,"number_of_apertures":2,"number_of_dots":[70,100],"number_of_sets":1,"coherent_direction":[188,340],"coherence":1,"opposite_coherence":0,"dot_radius":2,"dot_side_length":1,"dot_life":-1,"move_distance":1,"aperture_width":300,"aperture_height":300,"dot_color":["white","black"],"dot_shape":"circle","background_color":"#AAA","RDK_type":3,"aperture_type":2,"reinsert_type":2,"frame_rate":15.465116279069768,"frame_rate_array":[13,11,12,11,16,16,17,12,22,8,16,17,16,15,20,14,16,13,15,15,16,14,16,16,16,16,15,17,16,16,16,13,13,18,16,14,16,15,19,13,16,22,10,15,17,15,16,16,16,17,16,13,15,22,10,14,23,10,14,17,16,16,14,18,12,20,14,14,21,10,14,17,19,14,16,14,21,15,17,10,15,16,16,16,17,12,17,15,14,17,16,15,19,15,16,14,15,14,16,15,19,13,19,13,16,22,8,17,15,14,16,15,23,11,20,10,18,20,8,15,17,19,16,16,16,10,15,16,16],"number_of_frames":129,"aperture_center_x":683,"aperture_center_y":384,"fixation_cross":true,"fixation_cross_width":15,"fixation_cross_height":15,"fixation_cross_color":"#111","fixation_cross_thickness":1,"border":true,"border_thickness":2,"border_color":"transparent","canvas_width":1366,"canvas_height":768,"trial_type":"rdk","trial_index":23,"plugin_version":"2.0.0","time_elapsed":128012,"phase":"practice","target_direction":340,"distractor_direction":188},{"rt":5714,"stimulus":"\n        <div class=\"response-container\">\n          <div class=\"response-instruction\">\n            <p>rotate the bar by using the left and right arrow keys.</p>\n            <p>when you are determined, press the Enter key.</p>\n          </div>\n          <div class=\"response-circle\">\n            <div class=\"response-fixation\"></div>\n            <div id=\"bar\" class=\"rotating-bar\"></div>\n          </div>\n        </div>\n      ","response":"Enter","trial_type":"html-keyboard-response","trial_index":24,"plugin_version":"2.1.0","time_elapsed":133728,"random_initial_angle":346,"response_angle_css":486,"response_angle_rdk":324,"angular_error_target":-16,"angular_error_distractor":136,"target_direction":340,"target_group":"black","reward_points":6},{"rt":null,"stimulus":"\n          <p style=\"color: #00FF00;\">Your reward: 6 points</p>\n        ","response":null,"trial_type":"html-keyboard-response","trial_index":25,"plugin_version":"2.1.0","time_elapsed":135739},{"rt":null,"stimulus":"<div class=\"fixation\" style=\"font-size: 60px;\">+</div>","response":null,"trial_type":"html-keyboard-response","trial_index":26,"plugin_version":"2.1.0","time_elapsed":136748},{"target_group":"white","target_index":0,"condition_label":"practice","rt":-1,"response":"","correct":false,"choices":"ALL_KEYS","correct_choice":["a"],"trial_duration":2000,"flip_timestamps":[],"response_ends_trial":false,"number_of_apertures":2,"number_of_dots":[100,81],"number_of_sets":1,"coherent_direction":[40,131],"coherence":1,"opposite_coherence":0,"dot_radius":2,"dot_side_length":1,"dot_life":-1,"move_distance":1,"aperture_width":300,"aperture_height":300,"dot_color":["white","black"],"dot_shape":"circle","background_color":"#AAA","RDK_type":3,"aperture_type":2,"reinsert_type":2,"frame_rate":15.55813953488372,"frame_rate_array":[11,10,14,14,15,16,21,16,16,10,15,16,18,15,17,16,14,18,15,19,9,17,14,17,16,18,12,19,15,20,10,14,16,17,16,16,13,19,14,19,11,15,27,6,14,15,16,16,17,14,19,15,16,12,19,18,16,12,13,16,17,15,17,23,8,19,14,14,16,24,9,15,16,16,16,16,22,11,17,15,18,16,9,19,12,16,16,16,16,16,16,16,13,19,14,13,15,17,16,14,17,16,14,17,18,16,17,12,15,15,18,13,15,17,20,14,19,10,20,16,13,13,19,15,16,21,9,14,17],"number_of_frames":129,"aperture_center_x":683,"aperture_center_y":384,"fixation_cross":true,"fixation_cross_width":15,"fixation_cross_height":15,"fixation_cross_color":"#111","fixation_cross_thickness":1,"border":true,"border_thickness":2,"border_color":"transparent","canvas_width":1366,"canvas_height":768,"trial_type":"rdk","trial_index":27,"plugin_version":"2.0.0","time_elapsed":138761,"phase":"practice","target_direction":40,"distractor_direction":131},{"rt":1392,"stimulus":"\n        <div class=\"response-container\">\n          <div class=\"response-instruction\">\n            <p>rotate the bar by using the left and right arrow keys.</p>\n            <p>when you are determined, press the Enter key.</p>\n          </div>\n          <div class=\"response-circle\">\n            <div class=\"response-fixation\"></div>\n            <div id=\"bar\" class=\"rotating-bar\"></div>\n          </div>\n        </div>\n      ","response":"Enter","trial_type":"html-keyboard-response","trial_index":28,"plugin_version":"2.1.0","time_elapsed":140155,"random_initial_angle":308,"response_angle_css":308,"response_angle_rdk":142,"angular_error_target":102,"angular_error_distractor":11,"target_direction":40,"target_group":"white","reward_points":0},{"rt":null,"stimulus":"\n          <p style=\"color: #FF3333;\">Your reward: 0 points</p>\n        ","response":null,"trial_type":"html-keyboard-response","trial_index":29,"plugin_version":"2.1.0","time_elapsed":142157},{"rt":null,"stimulus":"<div class=\"fixation\" style=\"font-size: 60px;\">+</div>","response":null,"trial_type":"html-keyboard-response","trial_index":30,"plugin_version":"2.1.0","time_elapsed":143172},{"target_group":"black","target_index":1,"condition_label":"practice","rt":-1,"response":"","correct":false,"choices":"ALL_KEYS","correct_choice":["a"],"trial_duration":2000,"flip_timestamps":[],"response_ends_trial":false,"number_of_apertures":2,"number_of_dots":[94,100],"number_of_sets":1,"coherent_direction":[335,101],"coherence":1,"opposite_coherence":0,"dot_radius":2,"dot_side_length":1,"dot_life":-1,"move_distance":1,"aperture_width":300,"aperture_height":300,"dot_color":["white","black"],"dot_shape":"circle","background_color":"#AAA","RDK_type":3,"aperture_type":2,"reinsert_type":2,"frame_rate":15.565891472868216,"frame_rate_array":[11,11,16,10,13,16,15,18,14,17,16,16,16,15,18,11,22,10,15,16,16,16,15,18,15,18,16,16,11,22,9,14,17,16,16,16,18,12,16,18,16,13,23,10,15,15,17,15,16,16,16,13,21,17,16,16,14,13,15,16,19,11,16,16,21,16,12,13,20,16,17,10,15,21,12,17,16,16,16,13,15,16,19,17,12,18,13,17,20,10,16,19,15,16,17,11,21,14,11,22,11,16,13,20,17,12,18,20,13,16,15,13,14,15,18,14,17,16,17,16,17,17,18,15,17,17,8,16,16],"number_of_frames":129,"aperture_center_x":683,"aperture_center_y":384,"fixation_cross":true,"fixation_cross_width":15,"fixation_cross_height":15,"fixation_cross_color":"#111","fixation_cross_thickness":1,"border":true,"border_thickness":2,"border_color":"transparent","canvas_width":1366,"canvas_height":768,"trial_type":"rdk","trial_index":31,"plugin_version":"2.0.0","time_elapsed":145184,"phase":"practice","target_direction":101,"distractor_direction":335},{"rt":7498,"stimulus":"\n        <div class=\"response-container\">\n          <div class=\"response-instruction\">\n            <p>rotate the bar by using the left and right arrow keys.</p>\n            <p>when you are determined, press the Enter key.</p>\n          </div>\n          <div class=\"response-circle\">\n            <div class=\"response-fixation\"></div>\n            <div id=\"bar\" class=\"rotating-bar\"></div>\n          </div>\n        </div>\n      ","response":"Enter","trial_type":"html-keyboard-response","trial_index":32,"plugin_version":"2.1.0","time_elapsed":152685,"random_initial_angle":132,"response_angle_css":-56,"response_angle_rdk":146,"angular_error_target":45,"angular_error_distractor":171,"target_direction":101,"target_group":"black","reward_points":0},{"rt":null,"stimulus":"\n          <p style=\"color: #FF3333;\">Your reward: 0 points</p>\n        ","response":null,"trial_type":"html-keyboard-response","trial_index":33,"plugin_version":"2.1.0","time_elapsed":154688},{"rt":null,"stimulus":"<div class=\"fixation\" style=\"font-size: 60px;\">+</div>","response":null,"trial_type":"html-keyboard-response","trial_index":34,"plugin_version":"2.1.0","time_elapsed":155697},{"target_group":"white","target_index":0,"condition_label":"practice","rt":-1,"response":"","correct":false,"choices":"ALL_KEYS","correct_choice":["a"],"trial_duration":2000,"flip_timestamps":[],"response_ends_trial":false,"number_of_apertures":2,"number_of_dots":[100,83],"number_of_sets":1,"coherent_direction":[311,110],"coherence":1,"opposite_coherence":0,"dot_radius":2,"dot_side_length":1,"dot_life":-1,"move_distance":1,"aperture_width":300,"aperture_height":300,"dot_color":["white","black"],"dot_shape":"circle","background_color":"#AAA","RDK_type":3,"aperture_type":2,"reinsert_type":2,"frame_rate":15.5703125,"frame_rate_array":[15,11,14,13,15,17,15,15,18,17,17,12,15,17,15,14,15,19,14,20,17,11,20,16,11,14,17,16,15,17,21,8,16,16,17,16,17,16,17,17,10,14,16,23,9,19,11,15,16,24,7,17,17,13,18,14,21,10,16,15,21,12,15,16,15,16,16,19,14,16,16,12,15,16,16,23,8,16,16,16,18,15,12,16,22,10,22,10,14,16,17,17,15,16,16,16,16,16,12,20,17,16,14,22,8,14,16,16,17,16,16,13,20,16,17,9,16,15,16,16,17,14,18,14,15,16,15,16],"number_of_frames":128,"aperture_center_x":683,"aperture_center_y":384,"fixation_cross":true,"fixation_cross_width":15,"fixation_cross_height":15,"fixation_cross_color":"#111","fixation_cross_thickness":1,"border":true,"border_thickness":2,"border_color":"transparent","canvas_width":1366,"canvas_height":768,"trial_type":"rdk","trial_index":35,"plugin_version":"2.0.0","time_elapsed":157706,"phase":"practice","target_direction":311,"distractor_direction":110},{"rt":5374,"stimulus":"\n        <div class=\"response-container\">\n          <div class=\"response-instruction\">\n            <p>rotate the bar by using the left and right arrow keys.</p>\n            <p>when you are determined, press the Enter key.</p>\n          </div>\n          <div class=\"response-circle\">\n            <div class=\"response-fixation\"></div>\n            <div id=\"bar\" class=\"rotating-bar\"></div>\n          </div>\n        </div>\n      ","response":"Enter","trial_type":"html-keyboard-response","trial_index":36,"plugin_version":"2.1.0","time_elapsed":163081,"random_initial_angle":288,"response_angle_css":321,"response_angle_rdk":129,"angular_error_target":178,"angular_error_distractor":19,"target_direction":311,"target_group":"white","reward_points":0},{"rt":null,"stimulus":"\n          <p style=\"color: #FF3333;\">Your reward: 0 points</p>\n        ","response":null,"trial_type":"html-keyboard-response","trial_index":37,"plugin_version":"2.1.0","time_elapsed":165086},{"rt":null,"stimulus":"<div class=\"fixation\" style=\"font-size: 60px;\">+</div>","response":null,"trial_type":"html-keyboard-response","trial_index":38,"plugin_version":"2.1.0","time_elapsed":166099},{"target_group":"white","target_index":0,"condition_label":"practice","rt":-1,"response":"","correct":false,"choices":"ALL_KEYS","correct_choice":["a"],"trial_duration":2000,"flip_timestamps":[],"response_ends_trial":false,"number_of_apertures":2,"number_of_dots":[100,95],"number_of_sets":1,"coherent_direction":[5,100],"coherence":1,"opposite_coherence":0,"dot_radius":2,"dot_side_length":1,"dot_life":-1,"move_distance":1,"aperture_width":300,"aperture_height":300,"dot_color":["white","black"],"dot_shape":"circle","background_color":"#AAA","RDK_type":3,"aperture_type":2,"reinsert_type":2,"frame_rate":15.5748031496063,"frame_rate_array":[10,12,16,17,15,18,11,19,20,10,14,16,17,16,16,16,16,16,16,12,16,14,22,10,18,13,15,17,16,15,18,14,14,17,14,15,20,14,15,15,21,11,17,14,17,15,18,13,19,14,14,26,7,16,15,14,16,17,16,17,16,16,11,21,10,20,11,16,15,18,18,14,14,14,17,15,19,15,17,11,18,16,17,20,8,18,14,19,13,17,16,13,16,22,12,16,18,11,16,18,18,11,17,19,18,10,20,11,19,16,11,16,17,15,16,15,15,16,16,16,16,17,12,21,11,15,16],"number_of_frames":127,"aperture_center_x":683,"aperture_center_y":384,"fixation_cross":true,"fixation_cross_width":15,"fixation_cross_height":15,"fixation_cross_color":"#111","fixation_cross_thickness":1,"border":true,"border_thickness":2,"border_color":"transparent","canvas_width":1366,"canvas_height":768,"trial_type":"rdk","trial_index":39,"plugin_version":"2.0.0","time_elapsed":168108,"phase":"practice","target_direction":5,"distractor_direction":100},{"rt":4801,"stimulus":"\n        <div class=\"response-container\">\n          <div class=\"response-instruction\">\n            <p>rotate the bar by using the left and right arrow keys.</p>\n            <p>when you are determined, press the Enter key.</p>\n          </div>\n          <div class=\"response-circle\">\n            <div class=\"response-fixation\"></div>\n            <div id=\"bar\" class=\"rotating-bar\"></div>\n          </div>\n        </div>\n      ","response":"Enter","trial_type":"html-keyboard-response","trial_index":40,"plugin_version":"2.1.0","time_elapsed":172911,"random_initial_angle":163,"response_angle_css":132,"response_angle_rdk":318,"angular_error_target":-47,"angular_error_distractor":-142,"target_direction":5,"target_group":"white","reward_points":0},{"rt":null,"stimulus":"\n          <p style=\"color: #FF3333;\">Your reward: 0 points</p>\n        ","response":null,"trial_type":"html-keyboard-response","trial_index":41,"plugin_version":"2.1.0","time_elapsed":174922},{"rt":null,"stimulus":"<div class=\"fixation\" style=\"font-size: 60px;\">+</div>","response":null,"trial_type":"html-keyboard-response","trial_index":42,"plugin_version":"2.1.0","time_elapsed":175926},{"target_group":"white","target_index":0,"condition_label":"practice","rt":-1,"response":"","correct":false,"choices":"ALL_KEYS","correct_choice":["a"],"trial_duration":2000,"flip_timestamps":[],"response_ends_trial":false,"number_of_apertures":2,"number_of_dots":[100,93],"number_of_sets":1,"coherent_direction":[140,29],"coherence":1,"opposite_coherence":0,"dot_radius":2,"dot_side_length":1,"dot_life":-1,"move_distance":1,"aperture_width":300,"aperture_height":300,"dot_color":["white","black"],"dot_shape":"circle","background_color":"#AAA","RDK_type":3,"aperture_type":2,"reinsert_type":2,"frame_rate":16.553719008264462,"frame_rate_array":[12,14,19,26,7,15,10,15,18,22,5,20,22,7,17,16,19,12,16,13,14,25,9,15,26,11,10,14,20,15,18,14,19,12,21,8,15,16,15,17,17,17,15,19,14,22,8,20,11,13,23,14,15,12,17,15,17,15,17,15,17,16,17,13,11,17,15,17,16,17,15,17,15,17,11,14,19,17,15,24,7,15,18,15,15,12,22,33,6,5,17,14,14,19,22,31,8,26,7,29,9,32,14,66,5,15,27,13,8,22,9,24,17,20,27,13,34,11,14,16,17],"number_of_frames":121,"aperture_center_x":683,"aperture_center_y":384,"fixation_cross":true,"fixation_cross_width":15,"fixation_cross_height":15,"fixation_cross_color":"#111","fixation_cross_thickness":1,"border":true,"border_thickness":2,"border_color":"transparent","canvas_width":1366,"canvas_height":768,"trial_type":"rdk","trial_index":43,"plugin_version":"2.0.0","time_elapsed":177941,"phase":"practice","target_direction":140,"distractor_direction":29},{"rt":3492,"stimulus":"\n        <div class=\"response-container\">\n          <div class=\"response-instruction\">\n            <p>rotate the bar by using the left and right arrow keys.</p>\n            <p>when you are determined, press the Enter key.</p>\n          </div>\n          <div class=\"response-circle\">\n            <div class=\"response-fixation\"></div>\n            <div id=\"bar\" class=\"rotating-bar\"></div>\n          </div>\n        </div>\n      ","response":"Enter","trial_type":"html-keyboard-response","trial_index":44,"plugin_version":"2.1.0","time_elapsed":181436,"random_initial_angle":339,"response_angle_css":406,"response_angle_rdk":44,"angular_error_target":-96,"angular_error_distractor":15,"target_direction":140,"target_group":"white","reward_points":0},{"rt":null,"stimulus":"\n          <p style=\"color: #FF3333;\">Your reward: 0 points</p>\n        ","response":null,"trial_type":"html-keyboard-response","trial_index":45,"plugin_version":"2.1.0","time_elapsed":183452},{"rt":null,"stimulus":"<div class=\"fixation\" style=\"font-size: 60px;\">+</div>","response":null,"trial_type":"html-keyboard-response","trial_index":46,"plugin_version":"2.1.0","time_elapsed":184455},{"target_group":"black","target_index":1,"condition_label":"practice","rt":-1,"response":"","correct":false,"choices":"ALL_KEYS","correct_choice":["a"],"trial_duration":2000,"flip_timestamps":[],"response_ends_trial":false,"number_of_apertures":2,"number_of_dots":[78,100],"number_of_sets":1,"coherent_direction":[235,101],"coherence":1,"opposite_coherence":0,"dot_radius":2,"dot_side_length":1,"dot_life":-1,"move_distance":1,"aperture_width":300,"aperture_height":300,"dot_color":["white","black"],"dot_shape":"circle","background_color":"#AAA","RDK_type":3,"aperture_type":2,"reinsert_type":2,"frame_rate":15.6640625,"frame_rate_array":[11,25,19,11,10,12,16,18,15,17,15,17,15,14,17,14,15,20,14,18,15,13,25,9,13,15,16,17,13,23,8,19,13,17,16,16,17,17,15,9,28,6,14,17,17,15,14,17,19,14,19,10,26,7,15,17,16,16,15,18,15,19,14,17,18,10,25,7,17,12,15,16,16,16,16,16,16,13,18,14,23,11,13,18,14,15,17,20,13,17,12,16,16,17,13,23,13,19,11,13,16,16,16,14,19,17,18,10,17,13,24,8,18,19,9,20,16,16,16,17,16,9,16,17,16,16,17,16],"number_of_frames":128,"aperture_center_x":683,"aperture_center_y":384,"fixation_cross":true,"fixation_cross_width":15,"fixation_cross_height":15,"fixation_cross_color":"#111","fixation_cross_thickness":1,"border":true,"border_thickness":2,"border_color":"transparent","canvas_width":1366,"canvas_height":768,"trial_type":"rdk","trial_index":47,"plugin_version":"2.0.0","time_elapsed":186467,"phase":"practice","target_direction":101,"distractor_direction":235},{"rt":8298,"stimulus":"\n        <div class=\"response-container\">\n          <div class=\"response-instruction\">\n            <p>rotate the bar by using the left and right arrow keys.</p>\n            <p>when you are determined, press the Enter key.</p>\n          </div>\n          <div class=\"response-circle\">\n            <div class=\"response-fixation\"></div>\n            <div id=\"bar\" class=\"rotating-bar\"></div>\n          </div>\n        </div>\n      ","response":"Enter","trial_type":"html-keyboard-response","trial_index":48,"plugin_version":"2.1.0","time_elapsed":194767,"random_initial_angle":201,"response_angle_css":-1,"response_angle_rdk":91,"angular_error_target":-10,"angular_error_distractor":-144,"target_direction":101,"target_group":"black","reward_points":8},{"rt":null,"stimulus":"\n          <p style=\"color: #00FF00;\">Your reward: 8 points</p>\n        ","response":null,"trial_type":"html-keyboard-response","trial_index":49,"plugin_version":"2.1.0","time_elapsed":196776},{"rt":null,"stimulus":"<div class=\"fixation\" style=\"font-size: 60px;\">+</div>","response":null,"trial_type":"html-keyboard-response","trial_index":50,"plugin_version":"2.1.0","time_elapsed":197783},{"target_group":"white","target_index":0,"condition_label":"practice","rt":-1,"response":"","correct":false,"choices":"ALL_KEYS","correct_choice":["a"],"trial_duration":2000,"flip_timestamps":[],"response_ends_trial":false,"number_of_apertures":2,"number_of_dots":[100,67],"number_of_sets":1,"coherent_direction":[45,244],"coherence":1,"opposite_coherence":0,"dot_radius":2,"dot_side_length":1,"dot_life":-1,"move_distance":1,"aperture_width":300,"aperture_height":300,"dot_color":["white","black"],"dot_shape":"circle","background_color":"#AAA","RDK_type":3,"aperture_type":2,"reinsert_type":2,"frame_rate":15.565891472868216,"frame_rate_array":[10,12,15,11,13,21,8,18,13,17,16,19,14,19,10,17,16,15,16,15,15,25,7,14,20,14,14,15,16,17,17,16,16,17,11,20,17,17,9,24,12,17,10,16,21,12,22,9,18,17,17,10,16,25,7,19,11,17,18,15,16,16,16,17,16,12,13,16,15,18,17,17,15,14,15,21,14,13,14,16,20,15,13,16,16,17,13,20,12,16,16,15,16,16,22,8,24,11,15,18,16,18,19,14,14,16,9,15,16,14,19,18,10,18,14,16,15,21,9,17,23,9,15,17,16,16,17,17,15],"number_of_frames":129,"aperture_center_x":683,"aperture_center_y":384,"fixation_cross":true,"fixation_cross_width":15,"fixation_cross_height":15,"fixation_cross_color":"#111","fixation_cross_thickness":1,"border":true,"border_thickness":2,"border_color":"transparent","canvas_width":1366,"canvas_height":768,"trial_type":"rdk","trial_index":51,"plugin_version":"2.0.0","time_elapsed":199796,"phase":"practice","target_direction":45,"distractor_direction":244},{"rt":5557,"stimulus":"\n        <div class=\"response-container\">\n          <div class=\"response-instruction\">\n            <p>rotate the bar by using the left and right arrow keys.</p>\n            <p>when you are determined, press the Enter key.</p>\n          </div>\n          <div class=\"response-circle\">\n            <div class=\"response-fixation\"></div>\n            <div id=\"bar\" class=\"rotating-bar\"></div>\n          </div>\n        </div>\n      ","response":"Enter","trial_type":"html-keyboard-response","trial_index":52,"plugin_version":"2.1.0","time_elapsed":205355,"random_initial_angle":172,"response_angle_css":219,"response_angle_rdk":231,"angular_error_target":-174,"angular_error_distractor":-13,"target_direction":45,"target_group":"white","reward_points":0},{"rt":null,"stimulus":"\n          <p style=\"color: #FF3333;\">Your reward: 0 points</p>\n        ","response":null,"trial_type":"html-keyboard-response","trial_index":53,"plugin_version":"2.1.0","time_elapsed":207367},{"rt":null,"stimulus":"<div class=\"fixation\" style=\"font-size: 60px;\">+</div>","response":null,"trial_type":"html-keyboard-response","trial_index":54,"plugin_version":"2.1.0","time_elapsed":208375},{"target_group":"white","target_index":0,"condition_label":"practice","rt":-1,"response":"","correct":false,"choices":"ALL_KEYS","correct_choice":["a"],"trial_duration":2000,"flip_timestamps":[],"response_ends_trial":false,"number_of_apertures":2,"number_of_dots":[100,56],"number_of_sets":1,"coherent_direction":[17,285],"coherence":1,"opposite_coherence":0,"dot_radius":2,"dot_side_length":1,"dot_life":-1,"move_distance":1,"aperture_width":300,"aperture_height":300,"dot_color":["white","black"],"dot_shape":"circle","background_color":"#AAA","RDK_type":3,"aperture_type":2,"reinsert_type":2,"frame_rate":15.6015625,"frame_rate_array":[10,19,18,11,16,20,16,25,7,16,9,16,16,16,16,16,16,16,14,19,12,23,10,14,15,16,16,16,16,16,17,16,15,19,11,15,19,19,8,15,18,16,15,17,16,16,15,12,18,26,6,22,8,16,15,15,17,17,14,17,18,19,12,11,18,15,19,17,11,19,13,18,12,19,16,12,26,8,13,16,17,17,17,17,10,17,18,13,15,22,8,18,15,16,16,17,17,15,17,11,15,24,8,16,16,16,16,16,16,13,20,16,16,11,14,17,18,14,16,16,15,16,12,23,16,10,15,15],"number_of_frames":128,"aperture_center_x":683,"aperture_center_y":384,"fixation_cross":true,"fixation_cross_width":15,"fixation_cross_height":15,"fixation_cross_color":"#111","fixation_cross_thickness":1,"border":true,"border_thickness":2,"border_color":"transparent","canvas_width":1366,"canvas_height":768,"trial_type":"rdk","trial_index":55,"plugin_version":"2.0.0","time_elapsed":210386,"phase":"practice","target_direction":17,"distractor_direction":285},{"rt":5301,"stimulus":"\n        <div class=\"response-container\">\n          <div class=\"response-instruction\">\n            <p>rotate the bar by using the left and right arrow keys.</p>\n            <p>when you are determined, press the Enter key.</p>\n          </div>\n          <div class=\"response-circle\">\n            <div class=\"response-fixation\"></div>\n            <div id=\"bar\" class=\"rotating-bar\"></div>\n          </div>\n        </div>\n      ","response":"Enter","trial_type":"html-keyboard-response","trial_index":56,"plugin_version":"2.1.0","time_elapsed":215689,"random_initial_angle":333,"response_angle_css":176,"response_angle_rdk":274,"angular_error_target":-103,"angular_error_distractor":-11,"target_direction":17,"target_group":"white","reward_points":0},{"rt":null,"stimulus":"\n          <p style=\"color: #FF3333;\">Your reward: 0 points</p>\n        ","response":null,"trial_type":"html-keyboard-response","trial_index":57,"plugin_version":"2.1.0","time_elapsed":217701},{"rt":null,"stimulus":"<div class=\"fixation\" style=\"font-size: 60px;\">+</div>","response":null,"trial_type":"html-keyboard-response","trial_index":58,"plugin_version":"2.1.0","time_elapsed":218717},{"target_group":"white","target_index":0,"condition_label":"practice","rt":-1,"response":"","correct":false,"choices":"ALL_KEYS","correct_choice":["a"],"trial_duration":2000,"flip_timestamps":[],"response_ends_trial":false,"number_of_apertures":2,"number_of_dots":[100,94],"number_of_sets":1,"coherent_direction":[285,150],"coherence":1,"opposite_coherence":0,"dot_radius":2,"dot_side_length":1,"dot_life":-1,"move_distance":1,"aperture_width":300,"aperture_height":300,"dot_color":["white","black"],"dot_shape":"circle","background_color":"#AAA","RDK_type":3,"aperture_type":2,"reinsert_type":2,"frame_rate":15.542635658914728,"frame_rate_array":[11,11,15,12,15,19,16,11,15,22,10,16,15,17,17,15,18,13,20,12,21,13,13,15,16,15,17,15,15,16,15,16,15,24,9,14,17,16,18,15,16,16,17,15,14,19,12,22,9,14,17,15,19,16,16,17,11,21,16,14,11,15,18,14,16,20,12,16,15,15,16,18,14,20,14,22,12,11,16,22,9,16,16,17,17,19,10,16,24,7,15,15,16,16,17,16,16,17,16,16,17,16,16,9,17,15,16,16,16,17,15,16,16,16,17,9,16,17,19,12,15,16,16,16,16,16,16,13,14],"number_of_frames":129,"aperture_center_x":683,"aperture_center_y":384,"fixation_cross":true,"fixation_cross_width":15,"fixation_cross_height":15,"fixation_cross_color":"#111","fixation_cross_thickness":1,"border":true,"border_thickness":2,"border_color":"transparent","canvas_width":1366,"canvas_height":768,"trial_type":"rdk","trial_index":59,"plugin_version":"2.0.0","time_elapsed":220731,"phase":"practice","target_direction":285,"distractor_direction":150},{"rt":5587,"stimulus":"\n        <div class=\"response-container\">\n          <div class=\"response-instruction\">\n            <p>rotate the bar by using the left and right arrow keys.</p>\n            <p>when you are determined, press the Enter key.</p>\n          </div>\n          <div class=\"response-circle\">\n            <div class=\"response-fixation\"></div>\n            <div id=\"bar\" class=\"rotating-bar\"></div>\n          </div>\n        </div>\n      ","response":"Enter","trial_type":"html-keyboard-response","trial_index":60,"plugin_version":"2.1.0","time_elapsed":226320,"random_initial_angle":150,"response_angle_css":-42,"response_angle_rdk":132,"angular_error_target":-153,"angular_error_distractor":-18,"target_direction":285,"target_group":"white","reward_points":0},{"rt":null,"stimulus":"\n          <p style=\"color: #FF3333;\">Your reward: 0 points</p>\n        ","response":null,"trial_type":"html-keyboard-response","trial_index":61,"plugin_version":"2.1.0","time_elapsed":228327},{"rt":null,"stimulus":"<div class=\"fixation\" style=\"font-size: 60px;\">+</div>","response":null,"trial_type":"html-keyboard-response","trial_index":62,"plugin_version":"2.1.0","time_elapsed":229348},{"target_group":"black","target_index":1,"condition_label":"practice","rt":-1,"response":"","correct":false,"choices":"ALL_KEYS","correct_choice":["a"],"trial_duration":2000,"flip_timestamps":[],"response_ends_trial":false,"number_of_apertures":2,"number_of_dots":[71,100],"number_of_sets":1,"coherent_direction":[23,224],"coherence":1,"opposite_coherence":0,"dot_radius":2,"dot_side_length":1,"dot_life":-1,"move_distance":1,"aperture_width":300,"aperture_height":300,"dot_color":["white","black"],"dot_shape":"circle","background_color":"#AAA","RDK_type":3,"aperture_type":2,"reinsert_type":2,"frame_rate":15.661417322834646,"frame_rate_array":[10,16,25,11,16,18,14,17,14,18,17,17,16,12,16,18,16,16,10,16,15,24,8,16,16,17,16,17,16,16,16,17,12,12,16,17,15,18,13,19,13,14,21,11,15,16,17,17,16,14,25,13,9,23,8,18,15,16,18,16,16,16,16,12,20,16,12,14,15,16,16,15,19,16,16,16,16,16,11,15,25,7,15,16,15,18,15,18,12,20,16,10,15,15,16,16,16,15,17,14,20,12,20,13,25,9,11,16,16,15,20,12,14,16,15,17,19,13,16,14,17,16,16,16,16,14,17],"number_of_frames":127,"aperture_center_x":683,"aperture_center_y":384,"fixation_cross":true,"fixation_cross_width":15,"fixation_cross_height":15,"fixation_cross_color":"#111","fixation_cross_thickness":1,"border":true,"border_thickness":2,"border_color":"transparent","canvas_width":1366,"canvas_height":768,"trial_type":"rdk","trial_index":63,"plugin_version":"2.0.0","time_elapsed":231361,"phase":"practice","target_direction":224,"distractor_direction":23},{"rt":4797,"stimulus":"\n        <div class=\"response-container\">\n          <div class=\"response-instruction\">\n            <p>rotate the bar by using the left and right arrow keys.</p>\n            <p>when you are determined, press the Enter key.</p>\n          </div>\n          <div class=\"response-circle\">\n            <div class=\"response-fixation\"></div>\n            <div id=\"bar\" class=\"rotating-bar\"></div>\n          </div>\n        </div>\n      ","response":"Enter","trial_type":"html-keyboard-response","trial_index":64,"plugin_version":"2.1.0","time_elapsed":236159,"random_initial_angle":165,"response_angle_css":223,"response_angle_rdk":227,"angular_error_target":3,"angular_error_distractor":-156,"target_direction":224,"target_group":"black","reward_points":9},{"rt":null,"stimulus":"\n          <p style=\"color: #00FF00;\">Your reward: 9 points</p>\n        ","response":null,"trial_type":"html-keyboard-response","trial_index":65,"plugin_version":"2.1.0","time_elapsed":238170},{"rt":4529,"stimulus":"\n        <div class=\"instructions-container\">\n          <h2>End of Practice</h2>\n          <p>You have completed the practice trials.</p>\n          <p>Press <strong>Enter</strong> key to begin the main experiment.</p>\n        </div>\n      ","response":"Enter","trial_type":"html-keyboard-response","trial_index":66,"plugin_version":"2.1.0","time_elapsed":242701},{"rt":null,"stimulus":"<div class=\"fixation\" style=\"font-size: 60px;\">+</div>","response":null,"trial_type":"html-keyboard-response","trial_index":67,"plugin_version":"2.1.0","time_elapsed":243714},{"phase":"learning-awareness","target_group":"black","condition_label":"B_H_vs_W_L_rep6","target_direction":302,"distractor_direction":32,"session_rotation":203,"rt":-1,"response":"","correct":false,"choices":"ALL_KEYS","correct_choice":["a"],"trial_duration":2000,"flip_timestamps":[],"response_ends_trial":false,"number_of_apertures":200,"number_of_dots":[1,1,1,1,1,1,1,1,1,1,1,1,1,1,1,1,1,1,1,1,1,1,1,1,1,1,1,1,1,1,1,1,1,1,1,1,1,1,1,1,1,1,1,1,1,1,1,1,1,1,1,1,1,1,1,1,1,1,1,1,1,1,1,1,1,1,1,1,1,1,1,1,1,1,1,1,1,1,1,1,1,1,1,1,1,1,1,1,1,1,1,1,1,1,1,1,1,1,1,1,1,1,1,1,1,1,1,1,1,1,1,1,1,1,1,1,1,1,1,1,1,1,1,1,1,1,1,1,1,1,1,1,1,1,1,1,1,1,1,1,1,1,1,1,1,1,1,1,1,1,1,1,1,1,1,1,1,1,1,1,1,1,1,1,1,1,1,1,1,1,1,1,1,1,1,1,1,1,1,1,1,1,1,1,1,1,1,1,1,1,1,1,1,1,1,1,1,1,1,1],"number_of_sets":1,"coherent_direction":[32,32,302,302,32,32,32,32,32,32,32,302,32,32,302,302,302,32,302,32,302,302,32,32,302,302,32,32,302,302,302,302,32,32,302,32,32,32,302,32,302,302,302,302,302,302,32,302,302,32,302,32,302,302,32,32,32,302,32,302,302,32,32,302,32,302,302,32,32,302,302,32,32,32,32,32,32,302,32,302,302,32,32,32,302,302,32,32,302,32,302,32,32,32,302,32,302,302,302,302,302,32,302,32,302,302,32,302,302,32,32,302,32,302,32,32,302,302,32,32,302,302,32,32,302,32,32,302,32,302,302,302,302,302,302,302,32,32,32,302,32,32,302,302,302,32,32,32,302,32,302,302,32,302,302,32,302,32,32,302,32,302,32,302,302,302,32,302,302,302,302,32,302,32,302,302,302,32,32,32,32,32,32,302,302,302,32,32,32,32,302,32,302,32,32,32,302,302,32,302],"coherence":1,"opposite_coherence":0,"dot_radius":2,"dot_side_length":1,"dot_life":-1,"move_distance":1,"aperture_width":300,"aperture_height":300,"dot_color":["white","white","black","black","white","white","white","white","white","white","white","black","white","white","black","black","black","white","black","white","black","black","white","white","black","black","white","white","black","black","black","black","white","white","black","white","white","white","black","white","black","black","black","black","black","black","white","black","black","white","black","white","black","black","white","white","white","black","white","black","black","white","white","black","white","black","black","white","white","black","black","white","white","white","white","white","white","black","white","black","black","white","white","white","black","black","white","white","black","white","black","white","white","white","black","white","black","black","black","black","black","white","black","white","black","black","white","black","black","white","white","black","white","black","white","white","black","black","white","white","black","black","white","white","black","white","white","black","white","black","black","black","black","black","black","black","white","white","white","black","white","white","black","black","black","white","white","white","black","white","black","black","white","black","black","white","black","white","white","black","white","black","white","black","black","black","white","black","black","black","black","white","black","white","black","black","black","white","white","white","white","white","white","black","black","black","white","white","white","white","black","white","black","white","white","white","black","black","white","black"],"dot_shape":"circle","background_color":"#AAA","RDK_type":3,"aperture_type":2,"reinsert_type":2,"frame_rate":15.51937984496124,"frame_rate_array":[14,11,11,13,15,15,16,17,16,17,20,12,15,16,16,16,17,14,12,17,13,18,14,17,16,16,16,16,16,17,15,15,16,17,10,17,15,17,15,17,15,17,15,13,19,17,16,16,11,18,13,15,16,14,20,18,14,13,15,15,23,9,16,15,15,17,18,15,20,14,11,19,15,19,13,14,17,13,18,14,17,21,12,18,12,17,19,14,9,16,17,20,12,18,13,20,20,8,16,16,18,16,16,21,7,12,20,13,17,15,17,17,16,16,16,10,14,17,16,17,16,17,16,16,16,16,17,11,13],"number_of_frames":129,"aperture_center_x":683,"aperture_center_y":384,"fixation_cross":true,"fixation_cross_width":15,"fixation_cross_height":15,"fixation_cross_color":"#111","fixation_cross_thickness":1,"border":true,"border_thickness":2,"border_color":"transparent","canvas_width":1366,"canvas_height":768,"trial_type":"rdk","trial_index":68,"plugin_version":"2.0.0","time_elapsed":245730},{"rt":4367,"stimulus":"\n        <div class=\"response-container\">\n          <div class=\"response-instruction\">\n            <p>rotate the bar by using the left and right arrow keys.</p>\n            <p>when you are determined, press the Enter key.</p>\n          </div>\n          <div class=\"response-circle\">\n            <div class=\"response-fixation\"></div>\n            <div id=\"bar\" class=\"rotating-bar\"></div>\n          </div>\n        </div>\n      ","response":"Enter","trial_type":"html-keyboard-response","trial_index":69,"plugin_version":"2.1.0","time_elapsed":250100,"random_initial_angle":280,"response_angle_css":147,"response_angle_rdk":303,"angular_error_target":1,"angular_error_distractor":-89,"target_direction":302,"target_group":"black","reward_points":9},{"rt":null,"stimulus":"\n          <p style=\"color: #00FF00;\">Your reward: 9 points</p>\n        ","response":null,"trial_type":"html-keyboard-response","trial_index":70,"plugin_version":"2.1.0","time_elapsed":252108},{"rt":null,"stimulus":"<div class=\"fixation\" style=\"font-size: 60px;\">+</div>","response":null,"trial_type":"html-keyboard-response","trial_index":71,"plugin_version":"2.1.0","time_elapsed":253113},{"phase":"learning-awareness","target_group":"white","condition_label":"W_H_vs_B_L_rep12","target_direction":239,"distractor_direction":140,"session_rotation":203,"rt":-1,"response":"","correct":false,"choices":"ALL_KEYS","correct_choice":["a"],"trial_duration":2000,"flip_timestamps":[],"response_ends_trial":false,"number_of_apertures":200,"number_of_dots":[1,1,1,1,1,1,1,1,1,1,1,1,1,1,1,1,1,1,1,1,1,1,1,1,1,1,1,1,1,1,1,1,1,1,1,1,1,1,1,1,1,1,1,1,1,1,1,1,1,1,1,1,1,1,1,1,1,1,1,1,1,1,1,1,1,1,1,1,1,1,1,1,1,1,1,1,1,1,1,1,1,1,1,1,1,1,1,1,1,1,1,1,1,1,1,1,1,1,1,1,1,1,1,1,1,1,1,1,1,1,1,1,1,1,1,1,1,1,1,1,1,1,1,1,1,1,1,1,1,1,1,1,1,1,1,1,1,1,1,1,1,1,1,1,1,1,1,1,1,1,1,1,1,1,1,1,1,1,1,1,1,1,1,1,1,1,1,1,1,1,1,1,1,1,1,1,1,1,1,1,1,1,1,1,1,1,1,1,1,1,1,1,1,1,1,1,1,1,1,1],"number_of_sets":1,"coherent_direction":[239,239,239,239,140,239,140,239,239,140,140,140,140,140,239,140,239,239,239,239,239,140,239,239,140,140,140,140,140,140,239,239,140,239,140,140,140,239,140,140,140,239,140,239,140,239,140,239,140,140,140,140,239,239,239,140,239,239,140,140,239,140,239,140,239,239,140,239,239,140,140,239,140,239,140,140,239,140,140,239,239,140,140,239,140,239,140,239,140,140,239,140,140,239,140,140,140,140,140,140,239,239,140,239,239,140,239,140,239,239,239,140,140,239,239,140,140,140,239,140,239,239,239,140,140,239,239,239,239,239,239,239,140,140,239,140,140,140,140,140,239,239,140,239,140,140,140,140,239,140,239,140,239,239,140,239,140,140,140,239,140,140,239,239,239,239,239,140,239,140,140,239,140,239,239,239,140,239,140,239,239,140,239,239,140,239,140,239,239,239,239,239,239,140,239,140,140,140,239,239],"coherence":1,"opposite_coherence":0,"dot_radius":2,"dot_side_length":1,"dot_life":-1,"move_distance":1,"aperture_width":300,"aperture_height":300,"dot_color":["white","white","white","white","black","white","black","white","white","black","black","black","black","black","white","black","white","white","white","white","white","black","white","white","black","black","black","black","black","black","white","white","black","white","black","black","black","white","black","black","black","white","black","white","black","white","black","white","black","black","black","black","white","white","white","black","white","white","black","black","white","black","white","black","white","white","black","white","white","black","black","white","black","white","black","black","white","black","black","white","white","black","black","white","black","white","black","white","black","black","white","black","black","white","black","black","black","black","black","black","white","white","black","white","white","black","white","black","white","white","white","black","black","white","white","black","black","black","white","black","white","white","white","black","black","white","white","white","white","white","white","white","black","black","white","black","black","black","black","black","white","white","black","white","black","black","black","black","white","black","white","black","white","white","black","white","black","black","black","white","black","black","white","white","white","white","white","black","white","black","black","white","black","white","white","white","black","white","black","white","white","black","white","white","black","white","black","white","white","white","white","white","white","black","white","black","black","black","white","white"],"dot_shape":"circle","background_color":"#AAA","RDK_type":3,"aperture_type":2,"reinsert_type":2,"frame_rate":16.024,"frame_rate_array":[11,12,20,22,14,9,16,16,16,18,16,9,18,15,17,14,18,16,18,55,40,9,19,6,17,14,22,18,9,12,20,9,16,13,25,6,13,15,17,16,17,17,16,16,17,17,16,11,13,17,15,18,15,17,16,17,15,17,17,9,18,11,18,16,17,15,17,15,15,16,17,11,19,15,14,17,18,23,8,18,16,10,26,7,13,16,16,17,17,15,17,16,17,18,15,16,12,13,16,21,13,16,16,17,16,12,20,17,10,22,13,12,16,16,16,16,16,17,12,21,15,16,16,18,13],"number_of_frames":125,"aperture_center_x":683,"aperture_center_y":384,"fixation_cross":true,"fixation_cross_width":15,"fixation_cross_height":15,"fixation_cross_color":"#111","fixation_cross_thickness":1,"border":true,"border_thickness":2,"border_color":"transparent","canvas_width":1366,"canvas_height":768,"trial_type":"rdk","trial_index":72,"plugin_version":"2.0.0","time_elapsed":255125},{"rt":2924,"stimulus":"\n        <div class=\"response-container\">\n          <div class=\"response-instruction\">\n            <p>rotate the bar by using the left and right arrow keys.</p>\n            <p>when you are determined, press the Enter key.</p>\n          </div>\n          <div class=\"response-circle\">\n            <div class=\"response-fixation\"></div>\n            <div id=\"bar\" class=\"rotating-bar\"></div>\n          </div>\n        </div>\n      ","response":"Enter","trial_type":"html-keyboard-response","trial_index":73,"plugin_version":"2.1.0","time_elapsed":258050,"random_initial_angle":356,"response_angle_css":333,"response_angle_rdk":117,"angular_error_target":-122,"angular_error_distractor":-23,"target_direction":239,"target_group":"white","reward_points":0},{"rt":null,"stimulus":"\n          <p style=\"color: #FF3333;\">Your reward: 0 points</p>\n        ","response":null,"trial_type":"html-keyboard-response","trial_index":74,"plugin_version":"2.1.0","time_elapsed":260063},{"rt":null,"stimulus":"<div class=\"fixation\" style=\"font-size: 60px;\">+</div>","response":null,"trial_type":"html-keyboard-response","trial_index":75,"plugin_version":"2.1.0","time_elapsed":261085},{"phase":"learning-awareness","target_group":"white","condition_label":"W_H_vs_B_L_rep2","target_direction":229,"distractor_direction":119,"session_rotation":203,"rt":-1,"response":"","correct":false,"choices":"ALL_KEYS","correct_choice":["a"],"trial_duration":2000,"flip_timestamps":[],"response_ends_trial":false,"number_of_apertures":200,"number_of_dots":[1,1,1,1,1,1,1,1,1,1,1,1,1,1,1,1,1,1,1,1,1,1,1,1,1,1,1,1,1,1,1,1,1,1,1,1,1,1,1,1,1,1,1,1,1,1,1,1,1,1,1,1,1,1,1,1,1,1,1,1,1,1,1,1,1,1,1,1,1,1,1,1,1,1,1,1,1,1,1,1,1,1,1,1,1,1,1,1,1,1,1,1,1,1,1,1,1,1,1,1,1,1,1,1,1,1,1,1,1,1,1,1,1,1,1,1,1,1,1,1,1,1,1,1,1,1,1,1,1,1,1,1,1,1,1,1,1,1,1,1,1,1,1,1,1,1,1,1,1,1,1,1,1,1,1,1,1,1,1,1,1,1,1,1,1,1,1,1,1,1,1,1,1,1,1,1,1,1,1,1,1,1,1,1,1,1,1,1,1,1,1,1,1,1,1,1,1,1,1,1],"number_of_sets":1,"coherent_direction":[229,229,119,119,119,229,119,119,229,119,119,119,119,229,119,119,229,229,229,119,119,119,119,119,229,229,119,229,229,229,119,229,119,229,119,119,229,119,229,119,119,119,119,119,119,119,229,229,229,229,229,229,119,119,119,229,119,229,229,119,119,119,119,229,119,119,119,229,229,229,229,229,229,229,119,119,119,229,119,119,229,119,229,229,119,119,119,229,119,119,119,229,119,119,119,229,229,229,119,229,119,119,119,229,119,119,229,229,229,119,229,119,229,119,229,229,229,229,229,229,119,119,119,229,119,229,229,229,119,229,119,119,229,229,229,229,229,119,229,119,119,119,229,119,229,119,119,229,119,119,119,229,119,229,229,229,229,229,229,119,229,229,229,229,119,119,229,119,229,229,229,119,229,119,229,119,119,229,229,229,229,229,229,229,229,119,119,119,119,229,119,119,229,119,119,229,119,119,229,229],"coherence":1,"opposite_coherence":0,"dot_radius":2,"dot_side_length":1,"dot_life":-1,"move_distance":1,"aperture_width":300,"aperture_height":300,"dot_color":["white","white","black","black","black","white","black","black","white","black","black","black","black","white","black","black","white","white","white","black","black","black","black","black","white","white","black","white","white","white","black","white","black","white","black","black","white","black","white","black","black","black","black","black","black","black","white","white","white","white","white","white","black","black","black","white","black","white","white","black","black","black","black","white","black","black","black","white","white","white","white","white","white","white","black","black","black","white","black","black","white","black","white","white","black","black","black","white","black","black","black","white","black","black","black","white","white","white","black","white","black","black","black","white","black","black","white","white","white","black","white","black","white","black","white","white","white","white","white","white","black","black","black","white","black","white","white","white","black","white","black","black","white","white","white","white","white","black","white","black","black","black","white","black","white","black","black","white","black","black","black","white","black","white","white","white","white","white","white","black","white","white","white","white","black","black","white","black","white","white","white","black","white","black","white","black","black","white","white","white","white","white","white","white","white","black","black","black","black","white","black","black","white","black","black","white","black","black","white","white"],"dot_shape":"circle","background_color":"#AAA","RDK_type":3,"aperture_type":2,"reinsert_type":2,"frame_rate":15.6796875,"frame_rate_array":[12,13,20,20,11,9,15,18,14,18,18,9,17,21,10,25,8,16,17,14,21,12,17,13,19,16,10,27,10,11,16,15,18,18,14,15,18,12,15,19,21,9,17,19,15,13,16,16,14,13,24,8,15,17,16,15,19,14,17,16,15,16,16,16,10,18,12,17,17,13,19,16,14,16,17,17,13,14,16,20,19,9,15,18,15,15,14,18,14,25,10,13,21,12,13,15,16,15,18,15,22,9,15,21,15,17,13,23,10,13,16,16,19,15,14,19,12,14,17,15,20,14,14,17,15,18,16,21],"number_of_frames":128,"aperture_center_x":683,"aperture_center_y":384,"fixation_cross":true,"fixation_cross_width":15,"fixation_cross_height":15,"fixation_cross_color":"#111","fixation_cross_thickness":1,"border":true,"border_thickness":2,"border_color":"transparent","canvas_width":1366,"canvas_height":768,"trial_type":"rdk","trial_index":76,"plugin_version":"2.0.0","time_elapsed":263101},{"rt":3248,"stimulus":"\n        <div class=\"response-container\">\n          <div class=\"response-instruction\">\n            <p>rotate the bar by using the left and right arrow keys.</p>\n            <p>when you are determined, press the Enter key.</p>\n          </div>\n          <div class=\"response-circle\">\n            <div class=\"response-fixation\"></div>\n            <div id=\"bar\" class=\"rotating-bar\"></div>\n          </div>\n        </div>\n      ","response":"Enter","trial_type":"html-keyboard-response","trial_index":77,"plugin_version":"2.1.0","time_elapsed":266351,"random_initial_angle":334,"response_angle_css":362,"response_angle_rdk":88,"angular_error_target":-141,"angular_error_distractor":-31,"target_direction":229,"target_group":"white","reward_points":0},{"rt":null,"stimulus":"\n          <p style=\"color: #FF3333;\">Your reward: 0 points</p>\n        ","response":null,"trial_type":"html-keyboard-response","trial_index":78,"plugin_version":"2.1.0","time_elapsed":268358},{"rt":null,"stimulus":"<div class=\"fixation\" style=\"font-size: 60px;\">+</div>","response":null,"trial_type":"html-keyboard-response","trial_index":79,"plugin_version":"2.1.0","time_elapsed":269373},{"phase":"learning-awareness","target_group":"black","condition_label":"B_H_vs_W_L_rep24","target_direction":315,"distractor_direction":48,"session_rotation":203,"rt":-1,"response":"","correct":false,"choices":"ALL_KEYS","correct_choice":["a"],"trial_duration":2000,"flip_timestamps":[],"response_ends_trial":false,"number_of_apertures":200,"number_of_dots":[1,1,1,1,1,1,1,1,1,1,1,1,1,1,1,1,1,1,1,1,1,1,1,1,1,1,1,1,1,1,1,1,1,1,1,1,1,1,1,1,1,1,1,1,1,1,1,1,1,1,1,1,1,1,1,1,1,1,1,1,1,1,1,1,1,1,1,1,1,1,1,1,1,1,1,1,1,1,1,1,1,1,1,1,1,1,1,1,1,1,1,1,1,1,1,1,1,1,1,1,1,1,1,1,1,1,1,1,1,1,1,1,1,1,1,1,1,1,1,1,1,1,1,1,1,1,1,1,1,1,1,1,1,1,1,1,1,1,1,1,1,1,1,1,1,1,1,1,1,1,1,1,1,1,1,1,1,1,1,1,1,1,1,1,1,1,1,1,1,1,1,1,1,1,1,1,1,1,1,1,1,1,1,1,1,1,1,1,1,1,1,1,1,1,1,1,1,1,1,1],"number_of_sets":1,"coherent_direction":[48,315,315,315,315,315,315,315,48,315,48,315,48,315,48,315,48,48,48,315,48,48,315,48,48,315,48,315,48,315,48,48,48,48,315,48,48,315,315,315,315,315,315,315,48,48,315,315,48,48,315,315,48,315,48,315,315,48,315,315,48,315,315,48,315,315,315,315,315,315,315,48,48,48,48,48,315,315,48,48,48,315,315,48,48,48,48,48,48,48,48,315,315,48,315,48,48,315,315,48,48,315,48,315,315,48,48,48,315,48,315,48,315,48,315,315,315,48,315,48,48,315,315,315,315,48,48,48,315,48,315,48,315,48,48,48,315,48,315,315,315,315,48,48,48,48,315,315,315,315,315,48,315,48,48,315,48,315,315,48,48,48,315,315,48,315,48,48,48,48,48,48,315,315,48,315,315,315,315,48,48,48,48,315,48,48,315,315,315,48,48,48,48,315,315,48,315,315,48,315],"coherence":1,"opposite_coherence":0,"dot_radius":2,"dot_side_length":1,"dot_life":-1,"move_distance":1,"aperture_width":300,"aperture_height":300,"dot_color":["white","black","black","black","black","black","black","black","white","black","white","black","white","black","white","black","white","white","white","black","white","white","black","white","white","black","white","black","white","black","white","white","white","white","black","white","white","black","black","black","black","black","black","black","white","white","black","black","white","white","black","black","white","black","white","black","black","white","black","black","white","black","black","white","black","black","black","black","black","black","black","white","white","white","white","white","black","black","white","white","white","black","black","white","white","white","white","white","white","white","white","black","black","white","black","white","white","black","black","white","white","black","white","black","black","white","white","white","black","white","black","white","black","white","black","black","black","white","black","white","white","black","black","black","black","white","white","white","black","white","black","white","black","white","white","white","black","white","black","black","black","black","white","white","white","white","black","black","black","black","black","white","black","white","white","black","white","black","black","white","white","white","black","black","white","black","white","white","white","white","white","white","black","black","white","black","black","black","black","white","white","white","white","black","white","white","black","black","black","white","white","white","white","black","black","white","black","black","white","black"],"dot_shape":"circle","background_color":"#AAA","RDK_type":3,"aperture_type":2,"reinsert_type":2,"frame_rate":15.578125,"frame_rate_array":[11,14,13,12,17,16,19,10,25,9,12,13,19,17,16,11,15,17,24,9,15,16,16,16,17,16,11,21,16,10,23,9,15,17,16,15,16,17,16,14,19,16,11,16,19,13,14,18,18,16,13,15,19,17,14,12,16,16,17,15,17,15,18,15,20,11,19,13,15,17,15,22,10,19,13,16,14,18,16,17,17,10,15,16,16,17,16,17,16,16,17,11,17,13,16,15,18,20,12,17,13,17,18,17,10,17,14,23,14,12,16,15,26,8,16,13,18,16,10,16,15,17,19,12,17,16,16,16],"number_of_frames":128,"aperture_center_x":683,"aperture_center_y":384,"fixation_cross":true,"fixation_cross_width":15,"fixation_cross_height":15,"fixation_cross_color":"#111","fixation_cross_thickness":1,"border":true,"border_thickness":2,"border_color":"transparent","canvas_width":1366,"canvas_height":768,"trial_type":"rdk","trial_index":80,"plugin_version":"2.0.0","time_elapsed":271378},{"rt":5335,"stimulus":"\n        <div class=\"response-container\">\n          <div class=\"response-instruction\">\n            <p>rotate the bar by using the left and right arrow keys.</p>\n            <p>when you are determined, press the Enter key.</p>\n          </div>\n          <div class=\"response-circle\">\n            <div class=\"response-fixation\"></div>\n            <div id=\"bar\" class=\"rotating-bar\"></div>\n          </div>\n        </div>\n      ","response":"Enter","trial_type":"html-keyboard-response","trial_index":81,"plugin_version":"2.1.0","time_elapsed":276714,"random_initial_angle":337,"response_angle_css":493,"response_angle_rdk":317,"angular_error_target":2,"angular_error_distractor":-91,"target_direction":315,"target_group":"black","reward_points":9},{"rt":null,"stimulus":"\n          <p style=\"color: #00FF00;\">Your reward: 9 points</p>\n        ","response":null,"trial_type":"html-keyboard-response","trial_index":82,"plugin_version":"2.1.0","time_elapsed":278716},{"rt":null,"stimulus":"<div class=\"fixation\" style=\"font-size: 60px;\">+</div>","response":null,"trial_type":"html-keyboard-response","trial_index":83,"plugin_version":"2.1.0","time_elapsed":279723},{"phase":"learning-awareness","target_group":"black","condition_label":"B_H_vs_W_L_rep12","target_direction":298,"distractor_direction":32,"session_rotation":203,"rt":-1,"response":"","correct":false,"choices":"ALL_KEYS","correct_choice":["a"],"trial_duration":2000,"flip_timestamps":[],"response_ends_trial":false,"number_of_apertures":200,"number_of_dots":[1,1,1,1,1,1,1,1,1,1,1,1,1,1,1,1,1,1,1,1,1,1,1,1,1,1,1,1,1,1,1,1,1,1,1,1,1,1,1,1,1,1,1,1,1,1,1,1,1,1,1,1,1,1,1,1,1,1,1,1,1,1,1,1,1,1,1,1,1,1,1,1,1,1,1,1,1,1,1,1,1,1,1,1,1,1,1,1,1,1,1,1,1,1,1,1,1,1,1,1,1,1,1,1,1,1,1,1,1,1,1,1,1,1,1,1,1,1,1,1,1,1,1,1,1,1,1,1,1,1,1,1,1,1,1,1,1,1,1,1,1,1,1,1,1,1,1,1,1,1,1,1,1,1,1,1,1,1,1,1,1,1,1,1,1,1,1,1,1,1,1,1,1,1,1,1,1,1,1,1,1,1,1,1,1,1,1,1,1,1,1,1,1,1,1,1,1,1,1,1],"number_of_sets":1,"coherent_direction":[298,32,298,298,32,298,32,298,32,32,298,32,298,32,32,32,32,32,32,298,298,298,32,32,32,32,298,298,298,32,298,298,32,32,298,298,32,298,32,298,298,32,32,298,32,298,32,32,32,32,32,298,298,298,32,32,32,32,298,298,298,298,298,298,32,298,298,32,32,298,32,298,32,298,32,32,298,32,32,298,298,32,32,298,298,298,32,298,32,32,32,298,298,298,32,32,32,32,32,298,32,32,298,298,298,298,32,298,298,32,32,32,32,298,298,298,298,32,32,298,32,32,298,32,298,32,298,32,298,298,32,298,298,32,298,32,298,298,298,32,32,298,32,32,298,32,298,32,32,32,298,298,32,298,298,298,298,32,32,32,298,298,298,298,298,32,32,298,32,298,32,32,298,32,298,32,298,32,298,32,32,298,298,32,32,298,298,298,32,32,298,32,32,298,298,32,298,32,298,298],"coherence":1,"opposite_coherence":0,"dot_radius":2,"dot_side_length":1,"dot_life":-1,"move_distance":1,"aperture_width":300,"aperture_height":300,"dot_color":["black","white","black","black","white","black","white","black","white","white","black","white","black","white","white","white","white","white","white","black","black","black","white","white","white","white","black","black","black","white","black","black","white","white","black","black","white","black","white","black","black","white","white","black","white","black","white","white","white","white","white","black","black","black","white","white","white","white","black","black","black","black","black","black","white","black","black","white","white","black","white","black","white","black","white","white","black","white","white","black","black","white","white","black","black","black","white","black","white","white","white","black","black","black","white","white","white","white","white","black","white","white","black","black","black","black","white","black","black","white","white","white","white","black","black","black","black","white","white","black","white","white","black","white","black","white","black","white","black","black","white","black","black","white","black","white","black","black","black","white","white","black","white","white","black","white","black","white","white","white","black","black","white","black","black","black","black","white","white","white","black","black","black","black","black","white","white","black","white","black","white","white","black","white","black","white","black","white","black","white","white","black","black","white","white","black","black","black","white","white","black","white","white","black","black","white","black","white","black","black"],"dot_shape":"circle","background_color":"#AAA","RDK_type":3,"aperture_type":2,"reinsert_type":2,"frame_rate":19.436893203883496,"frame_rate_array":[14,17,12,15,10,299,16,9,21,14,9,47,26,16,97,24,11,9,19,17,13,18,12,22,9,14,17,16,16,17,16,14,18,16,17,12,13,18,21,9,15,16,16,16,17,16,18,17,16,14,13,13,19,16,14,15,18,13,17,16,17,18,13,19,12,19,12,13,20,13,21,15,13,16,15,18,16,14,17,18,11,23,14,11,15,17,16,20,10,17,18,12,19,11,21,14,26,6,13,15,15,18,16],"number_of_frames":103,"aperture_center_x":683,"aperture_center_y":384,"fixation_cross":true,"fixation_cross_width":15,"fixation_cross_height":15,"fixation_cross_color":"#111","fixation_cross_thickness":1,"border":true,"border_thickness":2,"border_color":"transparent","canvas_width":1366,"canvas_height":768,"trial_type":"rdk","trial_index":84,"plugin_version":"2.0.0","time_elapsed":281734},{"rt":4140,"stimulus":"\n        <div class=\"response-container\">\n          <div class=\"response-instruction\">\n            <p>rotate the bar by using the left and right arrow keys.</p>\n            <p>when you are determined, press the Enter key.</p>\n          </div>\n          <div class=\"response-circle\">\n            <div class=\"response-fixation\"></div>\n            <div id=\"bar\" class=\"rotating-bar\"></div>\n          </div>\n        </div>\n      ","response":"Enter","trial_type":"html-keyboard-response","trial_index":85,"plugin_version":"2.1.0","time_elapsed":285875,"random_initial_angle":116,"response_angle_css":131,"response_angle_rdk":319,"angular_error_target":21,"angular_error_distractor":-73,"target_direction":298,"target_group":"black","reward_points":5},{"rt":null,"stimulus":"\n          <p style=\"color: #00FF00;\">Your reward: 5 points</p>\n        ","response":null,"trial_type":"html-keyboard-response","trial_index":86,"plugin_version":"2.1.0","time_elapsed":287889},{"rt":null,"stimulus":"<div class=\"fixation\" style=\"font-size: 60px;\">+</div>","response":null,"trial_type":"html-keyboard-response","trial_index":87,"plugin_version":"2.1.0","time_elapsed":288904},{"phase":"learning-awareness","target_group":"white","condition_label":"W_H_vs_B_L_rep23","target_direction":221,"distractor_direction":114,"session_rotation":203,"rt":-1,"response":"","correct":false,"choices":"ALL_KEYS","correct_choice":["a"],"trial_duration":2000,"flip_timestamps":[],"response_ends_trial":false,"number_of_apertures":200,"number_of_dots":[1,1,1,1,1,1,1,1,1,1,1,1,1,1,1,1,1,1,1,1,1,1,1,1,1,1,1,1,1,1,1,1,1,1,1,1,1,1,1,1,1,1,1,1,1,1,1,1,1,1,1,1,1,1,1,1,1,1,1,1,1,1,1,1,1,1,1,1,1,1,1,1,1,1,1,1,1,1,1,1,1,1,1,1,1,1,1,1,1,1,1,1,1,1,1,1,1,1,1,1,1,1,1,1,1,1,1,1,1,1,1,1,1,1,1,1,1,1,1,1,1,1,1,1,1,1,1,1,1,1,1,1,1,1,1,1,1,1,1,1,1,1,1,1,1,1,1,1,1,1,1,1,1,1,1,1,1,1,1,1,1,1,1,1,1,1,1,1,1,1,1,1,1,1,1,1,1,1,1,1,1,1,1,1,1,1,1,1,1,1,1,1,1,1,1,1,1,1,1,1],"number_of_sets":1,"coherent_direction":[221,221,221,221,114,221,221,114,221,221,114,221,114,114,114,221,221,221,114,221,114,114,114,114,221,221,114,221,221,221,114,221,221,114,114,221,221,221,114,114,221,221,221,221,114,114,114,114,114,221,221,114,221,114,114,114,221,114,114,114,221,114,114,221,221,221,114,114,114,221,114,221,221,114,114,114,221,221,221,114,114,221,221,221,221,221,114,221,114,114,114,221,221,221,114,114,221,221,221,221,114,221,221,114,221,221,221,221,114,114,221,114,114,221,221,114,221,221,114,221,221,114,221,221,221,114,221,114,114,114,114,114,114,221,114,114,114,114,114,221,114,221,221,114,114,221,221,114,221,221,114,114,114,114,221,114,221,114,114,221,114,114,114,114,221,114,114,221,114,114,221,114,114,114,114,114,114,221,221,114,221,221,221,114,114,114,221,114,221,114,221,114,221,221,221,221,221,221,221,114],"coherence":1,"opposite_coherence":0,"dot_radius":2,"dot_side_length":1,"dot_life":-1,"move_distance":1,"aperture_width":300,"aperture_height":300,"dot_color":["white","white","white","white","black","white","white","black","white","white","black","white","black","black","black","white","white","white","black","white","black","black","black","black","white","white","black","white","white","white","black","white","white","black","black","white","white","white","black","black","white","white","white","white","black","black","black","black","black","white","white","black","white","black","black","black","white","black","black","black","white","black","black","white","white","white","black","black","black","white","black","white","white","black","black","black","white","white","white","black","black","white","white","white","white","white","black","white","black","black","black","white","white","white","black","black","white","white","white","white","black","white","white","black","white","white","white","white","black","black","white","black","black","white","white","black","white","white","black","white","white","black","white","white","white","black","white","black","black","black","black","black","black","white","black","black","black","black","black","white","black","white","white","black","black","white","white","black","white","white","black","black","black","black","white","black","white","black","black","white","black","black","black","black","white","black","black","white","black","black","white","black","black","black","black","black","black","white","white","black","white","white","white","black","black","black","white","black","white","black","white","black","white","white","white","white","white","white","white","black"],"dot_shape":"circle","background_color":"#AAA","RDK_type":3,"aperture_type":2,"reinsert_type":2,"frame_rate":15.565891472868216,"frame_rate_array":[11,12,15,17,11,16,11,18,14,14,16,17,16,16,17,16,16,16,16,16,20,7,13,17,17,15,14,16,20,17,16,12,13,16,16,15,19,12,16,16,15,16,23,9,17,15,16,17,17,14,23,14,14,11,16,16,16,16,15,20,17,10,17,14,16,16,16,17,16,16,16,17,13,14,23,10,15,17,13,17,16,16,17,16,16,15,16,19,12,16,17,14,15,22,8,15,27,7,15,14,16,17,16,19,10,17,19,13,14,17,17,13,26,7,17,15,17,12,17,17,16,17,13,14,17,15,16,16,17],"number_of_frames":129,"aperture_center_x":683,"aperture_center_y":384,"fixation_cross":true,"fixation_cross_width":15,"fixation_cross_height":15,"fixation_cross_color":"#111","fixation_cross_thickness":1,"border":true,"border_thickness":2,"border_color":"transparent","canvas_width":1366,"canvas_height":768,"trial_type":"rdk","trial_index":88,"plugin_version":"2.0.0","time_elapsed":290922},{"rt":5831,"stimulus":"\n        <div class=\"response-container\">\n          <div class=\"response-instruction\">\n            <p>rotate the bar by using the left and right arrow keys.</p>\n            <p>when you are determined, press the Enter key.</p>\n          </div>\n          <div class=\"response-circle\">\n            <div class=\"response-fixation\"></div>\n            <div id=\"bar\" class=\"rotating-bar\"></div>\n          </div>\n        </div>\n      ","response":"Enter","trial_type":"html-keyboard-response","trial_index":89,"plugin_version":"2.1.0","time_elapsed":296755,"random_initial_angle":243,"response_angle_css":310,"response_angle_rdk":140,"angular_error_target":-81,"angular_error_distractor":26,"target_direction":221,"target_group":"white","reward_points":0},{"rt":null,"stimulus":"\n          <p style=\"color: #FF3333;\">Your reward: 0 points</p>\n        ","response":null,"trial_type":"html-keyboard-response","trial_index":90,"plugin_version":"2.1.0","time_elapsed":298766},{"rt":null,"stimulus":"<div class=\"fixation\" style=\"font-size: 60px;\">+</div>","response":null,"trial_type":"html-keyboard-response","trial_index":91,"plugin_version":"2.1.0","time_elapsed":299781},{"phase":"learning-awareness","target_group":"black","condition_label":"B_H_vs_W_L_rep7","target_direction":300,"distractor_direction":56,"session_rotation":203,"rt":-1,"response":"","correct":false,"choices":"ALL_KEYS","correct_choice":["a"],"trial_duration":2000,"flip_timestamps":[],"response_ends_trial":false,"number_of_apertures":200,"number_of_dots":[1,1,1,1,1,1,1,1,1,1,1,1,1,1,1,1,1,1,1,1,1,1,1,1,1,1,1,1,1,1,1,1,1,1,1,1,1,1,1,1,1,1,1,1,1,1,1,1,1,1,1,1,1,1,1,1,1,1,1,1,1,1,1,1,1,1,1,1,1,1,1,1,1,1,1,1,1,1,1,1,1,1,1,1,1,1,1,1,1,1,1,1,1,1,1,1,1,1,1,1,1,1,1,1,1,1,1,1,1,1,1,1,1,1,1,1,1,1,1,1,1,1,1,1,1,1,1,1,1,1,1,1,1,1,1,1,1,1,1,1,1,1,1,1,1,1,1,1,1,1,1,1,1,1,1,1,1,1,1,1,1,1,1,1,1,1,1,1,1,1,1,1,1,1,1,1,1,1,1,1,1,1,1,1,1,1,1,1,1,1,1,1,1,1,1,1,1,1,1,1],"number_of_sets":1,"coherent_direction":[300,300,56,56,56,56,300,300,300,56,56,56,300,300,300,300,300,56,300,300,300,56,56,56,56,300,56,56,56,300,300,56,56,56,56,300,56,300,56,300,300,300,300,300,300,56,300,56,56,300,56,56,56,56,56,300,56,300,300,56,56,300,300,300,300,56,56,300,56,56,56,56,300,300,300,300,56,56,56,56,300,56,56,300,56,300,56,56,56,56,300,300,56,300,56,300,56,56,56,300,56,300,56,300,56,300,56,300,300,300,56,56,56,300,56,56,56,56,300,300,300,56,56,56,56,300,56,300,56,300,300,300,300,56,56,300,300,300,300,56,56,56,300,300,56,300,56,300,300,300,300,300,56,56,56,300,300,300,56,56,300,56,56,300,300,300,300,56,300,300,300,56,300,56,56,300,300,300,56,56,56,56,56,56,300,300,56,300,300,300,300,300,300,56,300,56,300,56,56,300],"coherence":1,"opposite_coherence":0,"dot_radius":2,"dot_side_length":1,"dot_life":-1,"move_distance":1,"aperture_width":300,"aperture_height":300,"dot_color":["black","black","white","white","white","white","black","black","black","white","white","white","black","black","black","black","black","white","black","black","black","white","white","white","white","black","white","white","white","black","black","white","white","white","white","black","white","black","white","black","black","black","black","black","black","white","black","white","white","black","white","white","white","white","white","black","white","black","black","white","white","black","black","black","black","white","white","black","white","white","white","white","black","black","black","black","white","white","white","white","black","white","white","black","white","black","white","white","white","white","black","black","white","black","white","black","white","white","white","black","white","black","white","black","white","black","white","black","black","black","white","white","white","black","white","white","white","white","black","black","black","white","white","white","white","black","white","black","white","black","black","black","black","white","white","black","black","black","black","white","white","white","black","black","white","black","white","black","black","black","black","black","white","white","white","black","black","black","white","white","black","white","white","black","black","black","black","white","black","black","black","white","black","white","white","black","black","black","white","white","white","white","white","white","black","black","white","black","black","black","black","black","black","white","black","white","black","white","white","black"],"dot_shape":"circle","background_color":"#AAA","RDK_type":3,"aperture_type":2,"reinsert_type":2,"frame_rate":15.503875968992247,"frame_rate_array":[11,17,21,13,9,18,8,13,16,16,18,14,14,17,18,15,16,18,12,13,15,16,15,19,13,18,14,17,16,17,15,19,7,15,18,14,18,15,16,17,19,12,17,15,17,16,16,20,16,8,12,18,15,16,14,19,15,15,17,17,15,17,15,16,18,15,10,14,17,15,17,15,16,16,16,16,18,14,17,16,17,18,9,13,16,17,15,15,17,16,17,16,16,12,21,15,16,18,17,15,8,15,17,17,15,13,19,16,16,16,16,17,17,9,14,16,17,16,18,14,16,16,13,21,14,19,12,14,15],"number_of_frames":129,"aperture_center_x":683,"aperture_center_y":384,"fixation_cross":true,"fixation_cross_width":15,"fixation_cross_height":15,"fixation_cross_color":"#111","fixation_cross_thickness":1,"border":true,"border_thickness":2,"border_color":"transparent","canvas_width":1366,"canvas_height":768,"trial_type":"rdk","trial_index":92,"plugin_version":"2.0.0","time_elapsed":301795},{"rt":5241,"stimulus":"\n        <div class=\"response-container\">\n          <div class=\"response-instruction\">\n            <p>rotate the bar by using the left and right arrow keys.</p>\n            <p>when you are determined, press the Enter key.</p>\n          </div>\n          <div class=\"response-circle\">\n            <div class=\"response-fixation\"></div>\n            <div id=\"bar\" class=\"rotating-bar\"></div>\n          </div>\n        </div>\n      ","response":"Enter","trial_type":"html-keyboard-response","trial_index":93,"plugin_version":"2.1.0","time_elapsed":307038,"random_initial_angle":285,"response_angle_css":134,"response_angle_rdk":316,"angular_error_target":16,"angular_error_distractor":-100,"target_direction":300,"target_group":"black","reward_points":6},{"rt":null,"stimulus":"\n          <p style=\"color: #00FF00;\">Your reward: 6 points</p>\n        ","response":null,"trial_type":"html-keyboard-response","trial_index":94,"plugin_version":"2.1.0","time_elapsed":309040},{"rt":null,"stimulus":"<div class=\"fixation\" style=\"font-size: 60px;\">+</div>","response":null,"trial_type":"html-keyboard-response","trial_index":95,"plugin_version":"2.1.0","time_elapsed":310049},{"phase":"learning-awareness","target_group":"black","condition_label":"B_H_vs_W_L_rep13","target_direction":299,"distractor_direction":41,"session_rotation":203,"rt":-1,"response":"","correct":false,"choices":"ALL_KEYS","correct_choice":["a"],"trial_duration":2000,"flip_timestamps":[],"response_ends_trial":false,"number_of_apertures":200,"number_of_dots":[1,1,1,1,1,1,1,1,1,1,1,1,1,1,1,1,1,1,1,1,1,1,1,1,1,1,1,1,1,1,1,1,1,1,1,1,1,1,1,1,1,1,1,1,1,1,1,1,1,1,1,1,1,1,1,1,1,1,1,1,1,1,1,1,1,1,1,1,1,1,1,1,1,1,1,1,1,1,1,1,1,1,1,1,1,1,1,1,1,1,1,1,1,1,1,1,1,1,1,1,1,1,1,1,1,1,1,1,1,1,1,1,1,1,1,1,1,1,1,1,1,1,1,1,1,1,1,1,1,1,1,1,1,1,1,1,1,1,1,1,1,1,1,1,1,1,1,1,1,1,1,1,1,1,1,1,1,1,1,1,1,1,1,1,1,1,1,1,1,1,1,1,1,1,1,1,1,1,1,1,1,1,1,1,1,1,1,1,1,1,1,1,1,1,1,1,1,1,1,1],"number_of_sets":1,"coherent_direction":[299,41,299,41,299,41,41,41,41,41,299,41,41,41,41,299,41,299,41,299,41,41,299,41,299,299,299,41,41,41,299,41,299,299,299,41,41,299,299,299,299,41,299,299,41,41,299,299,299,299,41,299,299,299,299,41,299,299,41,299,299,41,41,41,299,299,41,41,41,41,41,299,41,299,41,299,41,41,299,299,41,41,299,299,299,299,41,41,299,299,41,41,299,41,41,41,41,299,299,41,299,41,299,41,299,299,41,299,299,41,299,41,299,41,41,299,299,41,41,299,299,299,299,41,41,41,41,41,299,41,299,299,299,41,299,299,41,41,41,299,41,41,299,41,41,41,41,299,299,299,41,299,41,299,299,41,299,41,41,299,299,41,41,299,299,299,41,41,41,299,41,41,299,299,299,41,299,41,41,299,299,41,41,299,41,299,41,299,299,41,41,41,41,299,299,299,299,299,41,299],"coherence":1,"opposite_coherence":0,"dot_radius":2,"dot_side_length":1,"dot_life":-1,"move_distance":1,"aperture_width":300,"aperture_height":300,"dot_color":["black","white","black","white","black","white","white","white","white","white","black","white","white","white","white","black","white","black","white","black","white","white","black","white","black","black","black","white","white","white","black","white","black","black","black","white","white","black","black","black","black","white","black","black","white","white","black","black","black","black","white","black","black","black","black","white","black","black","white","black","black","white","white","white","black","black","white","white","white","white","white","black","white","black","white","black","white","white","black","black","white","white","black","black","black","black","white","white","black","black","white","white","black","white","white","white","white","black","black","white","black","white","black","white","black","black","white","black","black","white","black","white","black","white","white","black","black","white","white","black","black","black","black","white","white","white","white","white","black","white","black","black","black","white","black","black","white","white","white","black","white","white","black","white","white","white","white","black","black","black","white","black","white","black","black","white","black","white","white","black","black","white","white","black","black","black","white","white","white","black","white","white","black","black","black","white","black","white","white","black","black","white","white","black","white","black","white","black","black","white","white","white","white","black","black","black","black","black","white","black"],"dot_shape":"circle","background_color":"#AAA","RDK_type":3,"aperture_type":2,"reinsert_type":2,"frame_rate":20.346938775510203,"frame_rate_array":[11,22,25,13,6,22,13,36,24,32,21,12,21,30,30,36,31,24,68,19,24,19,31,26,22,26,28,20,21,24,17,26,18,15,26,16,16,9,29,9,18,21,7,27,19,22,7,29,25,18,11,84,19,23,6,9,13,19,15,14,14,30,7,9,14,25,7,16,17,20,11,18,11,25,18,37,29,23,9,30,18,21,28,13,18,8,25,31,5,7,13,16,18,15,16,16,16,16],"number_of_frames":98,"aperture_center_x":683,"aperture_center_y":384,"fixation_cross":true,"fixation_cross_width":15,"fixation_cross_height":15,"fixation_cross_color":"#111","fixation_cross_thickness":1,"border":true,"border_thickness":2,"border_color":"transparent","canvas_width":1366,"canvas_height":768,"trial_type":"rdk","trial_index":96,"plugin_version":"2.0.0","time_elapsed":312062},{"rt":4230,"stimulus":"\n        <div class=\"response-container\">\n          <div class=\"response-instruction\">\n            <p>rotate the bar by using the left and right arrow keys.</p>\n            <p>when you are determined, press the Enter key.</p>\n          </div>\n          <div class=\"response-circle\">\n            <div class=\"response-fixation\"></div>\n            <div id=\"bar\" class=\"rotating-bar\"></div>\n          </div>\n        </div>\n      ","response":"Enter","trial_type":"html-keyboard-response","trial_index":97,"plugin_version":"2.1.0","time_elapsed":316294,"random_initial_angle":126,"response_angle_css":156,"response_angle_rdk":294,"angular_error_target":-5,"angular_error_distractor":-107,"target_direction":299,"target_group":"black","reward_points":9},{"rt":null,"stimulus":"\n          <p style=\"color: #00FF00;\">Your reward: 9 points</p>\n        ","response":null,"trial_type":"html-keyboard-response","trial_index":98,"plugin_version":"2.1.0","time_elapsed":318304},{"rt":null,"stimulus":"<div class=\"fixation\" style=\"font-size: 60px;\">+</div>","response":null,"trial_type":"html-keyboard-response","trial_index":99,"plugin_version":"2.1.0","time_elapsed":319311},{"phase":"learning-awareness","target_group":"white","condition_label":"W_H_vs_B_L_rep3","target_direction":239,"distractor_direction":126,"session_rotation":203,"rt":-1,"response":"","correct":false,"choices":"ALL_KEYS","correct_choice":["a"],"trial_duration":2000,"flip_timestamps":[],"response_ends_trial":false,"number_of_apertures":200,"number_of_dots":[1,1,1,1,1,1,1,1,1,1,1,1,1,1,1,1,1,1,1,1,1,1,1,1,1,1,1,1,1,1,1,1,1,1,1,1,1,1,1,1,1,1,1,1,1,1,1,1,1,1,1,1,1,1,1,1,1,1,1,1,1,1,1,1,1,1,1,1,1,1,1,1,1,1,1,1,1,1,1,1,1,1,1,1,1,1,1,1,1,1,1,1,1,1,1,1,1,1,1,1,1,1,1,1,1,1,1,1,1,1,1,1,1,1,1,1,1,1,1,1,1,1,1,1,1,1,1,1,1,1,1,1,1,1,1,1,1,1,1,1,1,1,1,1,1,1,1,1,1,1,1,1,1,1,1,1,1,1,1,1,1,1,1,1,1,1,1,1,1,1,1,1,1,1,1,1,1,1,1,1,1,1,1,1,1,1,1,1,1,1,1,1,1,1,1,1,1,1,1,1],"number_of_sets":1,"coherent_direction":[126,126,126,239,126,239,126,126,239,239,239,126,239,126,239,239,126,239,239,239,239,239,239,126,126,126,239,239,126,126,239,239,126,126,126,239,239,239,239,239,126,126,239,239,239,239,126,239,239,126,126,126,126,239,239,126,239,126,239,126,239,126,239,126,126,126,239,239,239,239,126,126,239,239,126,126,126,126,126,239,126,126,239,239,239,126,239,239,126,239,239,126,126,126,126,126,239,126,239,126,239,126,126,126,239,239,126,126,239,126,239,239,239,126,239,239,239,239,126,126,126,239,239,239,239,126,239,126,126,239,126,239,126,239,126,126,126,239,239,126,239,126,126,126,126,126,126,126,126,239,239,239,126,126,126,126,239,126,239,126,126,239,239,126,126,239,126,239,126,239,239,239,239,239,239,126,126,239,239,126,126,239,126,126,239,126,239,239,239,126,239,126,126,126,126,239,239,239,126,239],"coherence":1,"opposite_coherence":0,"dot_radius":2,"dot_side_length":1,"dot_life":-1,"move_distance":1,"aperture_width":300,"aperture_height":300,"dot_color":["black","black","black","white","black","white","black","black","white","white","white","black","white","black","white","white","black","white","white","white","white","white","white","black","black","black","white","white","black","black","white","white","black","black","black","white","white","white","white","white","black","black","white","white","white","white","black","white","white","black","black","black","black","white","white","black","white","black","white","black","white","black","white","black","black","black","white","white","white","white","black","black","white","white","black","black","black","black","black","white","black","black","white","white","white","black","white","white","black","white","white","black","black","black","black","black","white","black","white","black","white","black","black","black","white","white","black","black","white","black","white","white","white","black","white","white","white","white","black","black","black","white","white","white","white","black","white","black","black","white","black","white","black","white","black","black","black","white","white","black","white","black","black","black","black","black","black","black","black","white","white","white","black","black","black","black","white","black","white","black","black","white","white","black","black","white","black","white","black","white","white","white","white","white","white","black","black","white","white","black","black","white","black","black","white","black","white","white","white","black","white","black","black","black","black","white","white","white","black","white"],"dot_shape":"circle","background_color":"#AAA","RDK_type":3,"aperture_type":2,"reinsert_type":2,"frame_rate":15.542635658914728,"frame_rate_array":[12,11,13,15,14,16,10,20,23,6,19,13,16,16,13,20,17,16,11,17,20,14,11,17,16,16,17,16,17,16,16,16,10,15,15,16,16,16,16,16,16,16,17,16,15,18,10,16,15,17,16,15,15,18,13,15,16,19,16,14,14,17,15,18,15,17,16,17,12,24,9,13,16,18,14,23,12,16,16,16,17,15,11,15,14,15,18,15,17,15,17,16,16,11,19,14,15,15,16,17,16,17,17,15,17,16,16,17,15,17,11,12,18,15,15,22,11,16,17,16,16,16,17,16,17,7,17,18,16],"number_of_frames":129,"aperture_center_x":683,"aperture_center_y":384,"fixation_cross":true,"fixation_cross_width":15,"fixation_cross_height":15,"fixation_cross_color":"#111","fixation_cross_thickness":1,"border":true,"border_thickness":2,"border_color":"transparent","canvas_width":1366,"canvas_height":768,"trial_type":"rdk","trial_index":100,"plugin_version":"2.0.0","time_elapsed":321327},{"rt":5561,"stimulus":"\n        <div class=\"response-container\">\n          <div class=\"response-instruction\">\n            <p>rotate the bar by using the left and right arrow keys.</p>\n            <p>when you are determined, press the Enter key.</p>\n          </div>\n          <div class=\"response-circle\">\n            <div class=\"response-fixation\"></div>\n            <div id=\"bar\" class=\"rotating-bar\"></div>\n          </div>\n        </div>\n      ","response":"Enter","trial_type":"html-keyboard-response","trial_index":101,"plugin_version":"2.1.0","time_elapsed":326890,"random_initial_angle":91,"response_angle_css":-24,"response_angle_rdk":114,"angular_error_target":-125,"angular_error_distractor":-12,"target_direction":239,"target_group":"white","reward_points":0},{"rt":null,"stimulus":"\n          <p style=\"color: #FF3333;\">Your reward: 0 points</p>\n        ","response":null,"trial_type":"html-keyboard-response","trial_index":102,"plugin_version":"2.1.0","time_elapsed":328914},{"rt":null,"stimulus":"<div class=\"fixation\" style=\"font-size: 60px;\">+</div>","response":null,"trial_type":"html-keyboard-response","trial_index":103,"plugin_version":"2.1.0","time_elapsed":329921},{"phase":"learning-awareness","target_group":"black","condition_label":"B_H_vs_W_L_rep18","target_direction":303,"distractor_direction":64,"session_rotation":203,"rt":-1,"response":"","correct":false,"choices":"ALL_KEYS","correct_choice":["a"],"trial_duration":2000,"flip_timestamps":[],"response_ends_trial":false,"number_of_apertures":200,"number_of_dots":[1,1,1,1,1,1,1,1,1,1,1,1,1,1,1,1,1,1,1,1,1,1,1,1,1,1,1,1,1,1,1,1,1,1,1,1,1,1,1,1,1,1,1,1,1,1,1,1,1,1,1,1,1,1,1,1,1,1,1,1,1,1,1,1,1,1,1,1,1,1,1,1,1,1,1,1,1,1,1,1,1,1,1,1,1,1,1,1,1,1,1,1,1,1,1,1,1,1,1,1,1,1,1,1,1,1,1,1,1,1,1,1,1,1,1,1,1,1,1,1,1,1,1,1,1,1,1,1,1,1,1,1,1,1,1,1,1,1,1,1,1,1,1,1,1,1,1,1,1,1,1,1,1,1,1,1,1,1,1,1,1,1,1,1,1,1,1,1,1,1,1,1,1,1,1,1,1,1,1,1,1,1,1,1,1,1,1,1,1,1,1,1,1,1,1,1,1,1,1,1],"number_of_sets":1,"coherent_direction":[303,64,64,64,303,303,64,64,303,303,303,64,64,64,64,303,303,64,64,64,64,303,64,64,64,303,64,64,64,64,64,64,303,64,303,303,303,303,64,64,303,303,64,64,303,303,303,303,303,303,64,64,64,303,303,303,303,303,64,64,64,303,64,64,303,303,303,303,64,64,303,64,64,303,64,303,64,64,64,303,303,303,303,303,303,64,303,303,303,64,64,64,64,64,303,64,64,303,303,303,303,64,303,64,303,303,303,303,303,64,303,64,303,64,64,64,64,303,303,64,64,303,303,303,64,303,64,303,303,303,64,64,303,64,303,64,64,64,64,64,64,303,303,64,64,64,64,64,64,64,303,64,64,303,64,303,64,64,64,303,64,64,64,303,303,64,64,64,303,303,303,303,303,303,303,64,303,64,64,303,64,303,303,64,64,64,303,64,303,303,303,64,303,303,303,303,303,303,303,303],"coherence":1,"opposite_coherence":0,"dot_radius":2,"dot_side_length":1,"dot_life":-1,"move_distance":1,"aperture_width":300,"aperture_height":300,"dot_color":["black","white","white","white","black","black","white","white","black","black","black","white","white","white","white","black","black","white","white","white","white","black","white","white","white","black","white","white","white","white","white","white","black","white","black","black","black","black","white","white","black","black","white","white","black","black","black","black","black","black","white","white","white","black","black","black","black","black","white","white","white","black","white","white","black","black","black","black","white","white","black","white","white","black","white","black","white","white","white","black","black","black","black","black","black","white","black","black","black","white","white","white","white","white","black","white","white","black","black","black","black","white","black","white","black","black","black","black","black","white","black","white","black","white","white","white","white","black","black","white","white","black","black","black","white","black","white","black","black","black","white","white","black","white","black","white","white","white","white","white","white","black","black","white","white","white","white","white","white","white","black","white","white","black","white","black","white","white","white","black","white","white","white","black","black","white","white","white","black","black","black","black","black","black","black","white","black","white","white","black","white","black","black","white","white","white","black","white","black","black","black","white","black","black","black","black","black","black","black","black"],"dot_shape":"circle","background_color":"#AAA","RDK_type":3,"aperture_type":2,"reinsert_type":2,"frame_rate":15.534883720930232,"frame_rate_array":[10,15,12,11,21,7,17,18,17,11,13,27,7,16,15,18,13,21,15,13,13,16,22,10,17,14,16,21,17,9,24,11,13,15,16,16,17,16,12,21,17,10,26,7,14,17,14,17,15,17,17,14,19,13,23,9,17,21,14,10,20,13,13,16,16,17,15,17,16,16,16,14,12,21,14,12,16,18,15,16,14,19,15,16,17,16,17,8,16,16,17,14,18,13,16,20,17,10,26,6,14,17,17,16,17,16,16,14,17,19,14,13,16,23,8,16,16,16,14,19,17,16,16,16,16,21,7,13,16],"number_of_frames":129,"aperture_center_x":683,"aperture_center_y":384,"fixation_cross":true,"fixation_cross_width":15,"fixation_cross_height":15,"fixation_cross_color":"#111","fixation_cross_thickness":1,"border":true,"border_thickness":2,"border_color":"transparent","canvas_width":1366,"canvas_height":768,"trial_type":"rdk","trial_index":104,"plugin_version":"2.0.0","time_elapsed":331935},{"rt":3109,"stimulus":"\n        <div class=\"response-container\">\n          <div class=\"response-instruction\">\n            <p>rotate the bar by using the left and right arrow keys.</p>\n            <p>when you are determined, press the Enter key.</p>\n          </div>\n          <div class=\"response-circle\">\n            <div class=\"response-fixation\"></div>\n            <div id=\"bar\" class=\"rotating-bar\"></div>\n          </div>\n        </div>\n      ","response":"Enter","trial_type":"html-keyboard-response","trial_index":105,"plugin_version":"2.1.0","time_elapsed":335045,"random_initial_angle":85,"response_angle_css":127,"response_angle_rdk":323,"angular_error_target":20,"angular_error_distractor":-101,"target_direction":303,"target_group":"black","reward_points":6},{"rt":null,"stimulus":"\n   