[{"rt":16715,"stimulus":"Welcome to the experiment. Press any key to begin.","response":" ","trial_type":"html-keyboard-response","trial_index":0,"plugin_version":"2.1.0","time_elapsed":16718},{"rt":167762,"stimulus":"\n        <div class=\"instructions-container\">\n          <h2>Instructions</h2>\n\n          <p>\n          In this experiment, you will see <strong>two Random Dot Kinematograms (RDKs)</strong> displayed simultaneously.\n          </p>\n\n          <p>\n          An RDK is a visual stimulus consisting of many small dots that move coherently in a single direction. \n          In this experiment, the dots will be either <strong>white</strong> or <strong>black</strong> \n          (see the short demo below for an example of an RDK stimulus).\n          </p>\n\n          <p>\n          On each trial, the two RDKs will move in different directions. \n          Your task is to decide <strong>which RDK appears to contain more dots</strong>.\n          </p>\n\n          <p>\n          The RDK that you judge to have more dots is called the <strong>target RDK</strong>. \n          For example, if the white RDK appears to have more dots than the black RDK, \n          you should report the motion direction of the white RDK.\n          </p>\n\n          <p>\n          After viewing the RDKs, you will rotate a bar to indicate the perceived direction of the target RDK \n          using the <strong>left</strong> and <strong>right arrow keys</strong>. \n          Press <strong>Enter</strong> when you are satisfied with your response.\n          </p>\n\n          <p>\n          You will receive points based on the <strong>accuracy of your response</strong>, \n          and your final <strong>bonus reward</strong> may depend on your overall performance. \n          Please try to respond as accurately as possible.\n          </p>\n\n          <p>\n          You will first complete <strong>16 practice trials</strong>. \n          Press the <strong>Enter</strong> key to start the practice phase.\n          </p>\n\n          <canvas id=\"instruction-demo-rdk\" width=\"200\" height=\"200\"style=\"display:block;margin:12px auto; border-radius: 50%;\"></canvas>\n        </div>\n      ","response":"Enter","trial_type":"html-keyboard-response","trial_index":1,"plugin_version":"2.1.0","time_elapsed":184485},{"rt":null,"stimulus":"<div class=\"fixation\" style=\"font-size: 60px;\">+</div>","response":null,"trial_type":"html-keyboard-response","trial_index":2,"plugin_version":"2.1.0","time_elapsed":185508},{"target_group":"white","target_index":0,"condition_label":"practice","rt":-1,"response":"","correct":false,"choices":"ALL_KEYS","correct_choice":["a"],"trial_duration":2000,"flip_timestamps":[],"response_ends_trial":false,"number_of_apertures":2,"number_of_dots":[100,62],"number_of_sets":1,"coherent_direction":[325,228],"coherence":1,"opposite_coherence":0,"dot_radius":2,"dot_side_length":1,"dot_life":-1,"move_distance":1,"aperture_width":300,"aperture_height":300,"dot_color":["white","black"],"dot_shape":"circle","background_color":"#AAA","RDK_type":3,"aperture_type":2,"reinsert_type":2,"frame_rate":16.689075630252102,"frame_rate_array":[2,15,16,16,17,16,17,16,17,17,17,17,17,17,17,16,17,17,17,17,17,17,17,17,17,17,17,17,17,17,17,17,19,14,17,18,16,17,17,17,17,16,17,17,16,17,17,16,17,17,17,16,17,17,17,17,16,17,17,17,17,17,17,17,17,17,16,17,17,17,16,17,17,17,17,17,16,17,17,17,17,17,17,17,17,16,17,17,17,17,17,17,17,16,17,17,16,17,17,17,17,17,16,18,15,17,16,17,17,17,17,17,17,17,17,17,17,17,17],"number_of_frames":119,"aperture_center_x":768,"aperture_center_y":432,"fixation_cross":true,"fixation_cross_width":15,"fixation_cross_height":15,"fixation_cross_color":"#111","fixation_cross_thickness":1,"border":true,"border_thickness":2,"border_color":"transparent","canvas_width":1536,"canvas_height":864,"trial_type":"rdk","trial_index":3,"plugin_version":"2.0.0","time_elapsed":187514,"target_direction":325,"distractor_direction":228},{"rt":12595,"stimulus":"\n        <div class=\"response-container\">\n          <div class=\"response-instruction\">\n            <p>rotate the bar by using the left and right arrow keys.</p>\n            <p>when you are determined, press the Enter key.</p>\n          </div>\n          <div class=\"response-circle\">\n            <div class=\"response-fixation\"></div>\n            <div id=\"bar\" class=\"rotating-bar\"></div>\n          </div>\n        </div>\n      ","response":"Enter","trial_type":"html-keyboard-response","trial_index":4,"plugin_version":"2.1.0","time_elapsed":200110,"random_initial_angle":199,"response_angle_css":215,"response_angle_rdk":235,"angular_error_target":-90,"angular_error_distractor":7,"target_direction":325,"target_group":"white","reward_points":0},{"rt":null,"stimulus":"\n          <p style=\"color: #FF3333;\">Your reward: 0 points</p>\n        ","response":null,"trial_type":"html-keyboard-response","trial_index":5,"plugin_version":"2.1.0","time_elapsed":202113},{"rt":null,"stimulus":"<div class=\"fixation\" style=\"font-size: 60px;\">+</div>","response":null,"trial_type":"html-keyboard-response","trial_index":6,"plugin_version":"2.1.0","time_elapsed":203119},{"target_group":"white","target_index":0,"condition_label":"practice","rt":-1,"response":"","correct":false,"choices":"ALL_KEYS","correct_choice":["a"],"trial_duration":2000,"flip_timestamps":[],"response_ends_trial":false,"number_of_apertures":2,"number_of_dots":[100,96],"number_of_sets":1,"coherent_direction":[126,7],"coherence":1,"opposite_coherence":0,"dot_radius":2,"dot_side_length":1,"dot_life":-1,"move_distance":1,"aperture_width":300,"aperture_height":300,"dot_color":["white","black"],"dot_shape":"circle","background_color":"#AAA","RDK_type":3,"aperture_type":2,"reinsert_type":2,"frame_rate":16.833333333333332,"frame_rate_array":[12,17,17,17,17,17,17,17,17,17,17,16,17,17,17,17,17,17,17,17,17,17,17,17,16,17,17,17,17,17,17,17,16,17,16,17,17,16,17,17,17,17,17,17,17,17,17,17,17,16,16,17,17,17,17,17,17,17,17,17,17,16,17,17,17,17,17,17,17,17,17,16,17,17,17,16,17,17,16,17,16,17,17,17,17,17,17,17,17,17,17,17,16,17,17,17,17,17,17,17,17,17,17,17,16,17,17,17,17,17,17,17,17,17,17,17,17,17,17,16],"number_of_frames":120,"aperture_center_x":768,"aperture_center_y":432,"fixation_cross":true,"fixation_cross_width":15,"fixation_cross_height":15,"fixation_cross_color":"#111","fixation_cross_thickness":1,"border":true,"border_thickness":2,"border_color":"transparent","canvas_width":1536,"canvas_height":864,"trial_type":"rdk","trial_index":7,"plugin_version":"2.0.0","time_elapsed":205133,"target_direction":126,"distractor_direction":7},{"rt":9389,"stimulus":"\n        <div class=\"response-container\">\n          <div class=\"response-instruction\">\n            <p>rotate the bar by using the left and right arrow keys.</p>\n            <p>when you are determined, press the Enter key.</p>\n          </div>\n          <div class=\"response-circle\">\n            <div class=\"response-fixation\"></div>\n            <div id=\"bar\" class=\"rotating-bar\"></div>\n          </div>\n        </div>\n      ","response":"Enter","trial_type":"html-keyboard-response","trial_index":8,"plugin_version":"2.1.0","time_elapsed":214523,"random_initial_angle":286,"response_angle_css":309,"response_angle_rdk":141,"angular_error_target":15,"angular_error_distractor":134,"target_direction":126,"target_group":"white","reward_points":7},{"rt":null,"stimulus":"\n          <p style=\"color: #00FF00;\">Your reward: 7 points</p>\n        ","response":null,"trial_type":"html-keyboard-response","trial_index":9,"plugin_version":"2.1.0","time_elapsed":216537},{"rt":null,"stimulus":"<div class=\"fixation\" style=\"font-size: 60px;\">+</div>","response":null,"trial_type":"html-keyboard-response","trial_index":10,"plugin_version":"2.1.0","time_elapsed":217554},{"target_group":"white","target_index":0,"condition_label":"practice","rt":-1,"response":"","correct":false,"choices":"ALL_KEYS","correct_choice":["a"],"trial_duration":2000,"flip_timestamps":[],"response_ends_trial":false,"number_of_apertures":2,"number_of_dots":[100,87],"number_of_sets":1,"coherent_direction":[79,197],"coherence":1,"opposite_coherence":0,"dot_radius":2,"dot_side_length":1,"dot_life":-1,"move_distance":1,"aperture_width":300,"aperture_height":300,"dot_color":["white","black"],"dot_shape":"circle","background_color":"#AAA","RDK_type":3,"aperture_type":2,"reinsert_type":2,"frame_rate":16.801652892561982,"frame_rate_array":[12,16,16,17,17,17,17,17,16,17,17,17,17,17,16,17,17,17,17,17,17,17,17,17,17,17,17,16,17,17,17,17,17,17,17,17,17,17,17,16,17,17,17,17,17,17,17,17,17,17,17,16,17,17,17,16,17,18,16,17,17,17,17,17,16,17,16,17,17,17,17,17,17,17,17,16,17,17,17,17,17,17,16,17,17,16,17,16,17,17,17,17,17,18,16,17,17,17,16,17,16,17,17,16,17,17,17,17,17,17,17,17,17,17,17,17,16,17,16,17,17],"number_of_frames":121,"aperture_center_x":768,"aperture_center_y":432,"fixation_cross":true,"fixation_cross_width":15,"fixation_cross_height":15,"fixation_cross_color":"#111","fixation_cross_thickness":1,"border":true,"border_thickness":2,"border_color":"transparent","canvas_width":1536,"canvas_height":864,"trial_type":"rdk","trial_index":11,"plugin_version":"2.0.0","time_elapsed":219569,"target_direction":79,"distractor_direction":197},{"rt":3289,"stimulus":"\n        <div class=\"response-container\">\n          <div class=\"response-instruction\">\n            <p>rotate the bar by using the left and right arrow keys.</p>\n            <p>when you are determined, press the Enter key.</p>\n          </div>\n          <div class=\"response-circle\">\n            <div class=\"response-fixation\"></div>\n            <div id=\"bar\" class=\"rotating-bar\"></div>\n          </div>\n        </div>\n      ","response":"Enter","trial_type":"html-keyboard-response","trial_index":12,"plugin_version":"2.1.0","time_elapsed":222860,"random_initial_angle":352,"response_angle_css":403,"response_angle_rdk":47,"angular_error_target":-32,"angular_error_distractor":-150,"target_direction":79,"target_group":"white","reward_points":3},{"rt":null,"stimulus":"\n          <p style=\"color: #00FF00;\">Your reward: 3 points</p>\n        ","response":null,"trial_type":"html-keyboard-response","trial_index":13,"plugin_version":"2.1.0","time_elapsed":224873},{"rt":null,"stimulus":"<div class=\"fixation\" style=\"font-size: 60px;\">+</div>","response":null,"trial_type":"html-keyboard-response","trial_index":14,"plugin_version":"2.1.0","time_elapsed":225889},{"target_group":"white","target_index":0,"condition_label":"practice","rt":-1,"response":"","correct":false,"choices":"ALL_KEYS","correct_choice":["a"],"trial_duration":2000,"flip_timestamps":[],"response_ends_trial":false,"number_of_apertures":2,"number_of_dots":[100,100],"number_of_sets":1,"coherent_direction":[202,8],"coherence":1,"opposite_coherence":0,"dot_radius":2,"dot_side_length":1,"dot_life":-1,"move_distance":1,"aperture_width":300,"aperture_height":300,"dot_color":["white","black"],"dot_shape":"circle","background_color":"#AAA","RDK_type":3,"aperture_type":2,"reinsert_type":2,"frame_rate":16.733333333333334,"frame_rate_array":[9,16,17,17,17,16,17,16,17,17,17,16,17,17,16,17,16,17,16,17,17,17,17,17,17,17,17,17,17,17,16,17,16,16,17,17,17,17,17,17,17,17,17,17,17,17,17,17,17,17,17,17,17,17,16,17,17,17,17,17,17,17,17,16,17,17,17,17,17,17,16,17,17,17,17,17,16,17,17,17,16,17,16,17,16,17,17,16,17,17,16,17,16,17,17,17,16,17,17,17,17,17,17,17,17,16,17,17,17,16,17,17,17,17,17,17,16,17,17,17],"number_of_frames":120,"aperture_center_x":768,"aperture_center_y":432,"fixation_cross":true,"fixation_cross_width":15,"fixation_cross_height":15,"fixation_cross_color":"#111","fixation_cross_thickness":1,"border":true,"border_thickness":2,"border_color":"transparent","canvas_width":1536,"canvas_height":864,"trial_type":"rdk","trial_index":15,"plugin_version":"2.0.0","time_elapsed":227896,"target_direction":202,"distractor_direction":8},{"rt":4108,"stimulus":"\n        <div class=\"response-container\">\n          <div class=\"response-instruction\">\n            <p>rotate the bar by using the left and right arrow keys.</p>\n            <p>when you are determined, press the Enter key.</p>\n          </div>\n          <div class=\"response-circle\">\n            <div class=\"response-fixation\"></div>\n            <div id=\"bar\" class=\"rotating-bar\"></div>\n          </div>\n        </div>\n      ","response":"Enter","trial_type":"html-keyboard-response","trial_index":16,"plugin_version":"2.1.0","time_elapsed":232004,"random_initial_angle":304,"response_angle_css":405,"response_angle_rdk":45,"angular_error_target":-157,"angular_error_distractor":37,"target_direction":202,"target_group":"white","reward_points":0},{"rt":null,"stimulus":"\n          <p style=\"color: #FF3333;\">Your reward: 0 points</p>\n        ","response":null,"trial_type":"html-keyboard-response","trial_index":17,"plugin_version":"2.1.0","time_elapsed":234020},{"rt":null,"stimulus":"<div class=\"fixation\" style=\"font-size: 60px;\">+</div>","response":null,"trial_type":"html-keyboard-response","trial_index":18,"plugin_version":"2.1.0","time_elapsed":235038},{"target_group":"black","target_index":1,"condition_label":"practice","rt":-1,"response":"","correct":false,"choices":"ALL_KEYS","correct_choice":["a"],"trial_duration":2000,"flip_timestamps":[],"response_ends_trial":false,"number_of_apertures":2,"number_of_dots":[82,100],"number_of_sets":1,"coherent_direction":[346,82],"coherence":1,"opposite_coherence":0,"dot_radius":2,"dot_side_length":1,"dot_life":-1,"move_distance":1,"aperture_width":300,"aperture_height":300,"dot_color":["white","black"],"dot_shape":"circle","background_color":"#AAA","RDK_type":3,"aperture_type":2,"reinsert_type":2,"frame_rate":16.758333333333333,"frame_rate_array":[10,16,17,17,17,16,17,17,16,17,17,17,16,17,17,17,17,17,17,17,17,16,17,17,16,17,19,15,17,17,16,17,17,17,17,17,16,17,18,16,18,15,17,17,17,17,16,17,17,16,17,17,17,17,16,17,17,17,17,17,17,17,17,16,17,17,17,17,17,17,17,17,17,16,17,17,17,17,17,17,16,17,17,17,17,17,16,16,17,18,16,17,16,17,17,17,17,17,16,17,17,18,15,17,17,17,17,17,17,17,17,16,17,17,17,17,17,17,17,16],"number_of_frames":120,"aperture_center_x":768,"aperture_center_y":432,"fixation_cross":true,"fixation_cross_width":15,"fixation_cross_height":15,"fixation_cross_color":"#111","fixation_cross_thickness":1,"border":true,"border_thickness":2,"border_color":"transparent","canvas_width":1536,"canvas_height":864,"trial_type":"rdk","trial_index":19,"plugin_version":"2.0.0","time_elapsed":237043,"target_direction":82,"distractor_direction":346},{"rt":8799,"stimulus":"\n        <div class=\"response-container\">\n          <div class=\"response-instruction\">\n            <p>rotate the bar by using the left and right arrow keys.</p>\n            <p>when you are determined, press the Enter key.</p>\n          </div>\n          <div class=\"response-circle\">\n            <div class=\"response-fixation\"></div>\n            <div id=\"bar\" class=\"rotating-bar\"></div>\n          </div>\n        </div>\n      ","response":"Enter","trial_type":"html-keyboard-response","trial_index":20,"plugin_version":"2.1.0","time_elapsed":245843,"random_initial_angle":182,"response_angle_css":362,"response_angle_rdk":88,"angular_error_target":6,"angular_error_distractor":102,"target_direction":82,"target_group":"black","reward_points":8},{"rt":null,"stimulus":"\n          <p style=\"color: #00FF00;\">Your reward: 8 points</p>\n        ","response":null,"trial_type":"html-keyboard-response","trial_index":21,"plugin_version":"2.1.0","time_elapsed":247855},{"rt":null,"stimulus":"<div class=\"fixation\" style=\"font-size: 60px;\">+</div>","response":null,"trial_type":"html-keyboard-response","trial_index":22,"plugin_version":"2.1.0","time_elapsed":248866},{"target_group":"black","target_index":1,"condition_label":"practice","rt":-1,"response":"","correct":false,"choices":"ALL_KEYS","correct_choice":["a"],"trial_duration":2000,"flip_timestamps":[],"response_ends_trial":false,"number_of_apertures":2,"number_of_dots":[65,100],"number_of_sets":1,"coherent_direction":[266,89],"coherence":1,"opposite_coherence":0,"dot_radius":2,"dot_side_length":1,"dot_life":-1,"move_distance":1,"aperture_width":300,"aperture_height":300,"dot_color":["white","black"],"dot_shape":"circle","background_color":"#AAA","RDK_type":3,"aperture_type":2,"reinsert_type":2,"frame_rate":16.725,"frame_rate_array":[24,8,16,17,17,17,16,17,17,16,17,17,16,17,17,16,17,17,16,17,17,17,16,17,17,17,16,17,16,17,17,17,16,17,17,17,17,16,17,17,16,20,14,16,17,16,17,17,17,17,17,16,17,17,17,17,16,17,17,17,17,17,17,17,17,16,16,17,17,17,16,17,16,17,17,16,17,16,16,17,17,18,18,14,17,17,17,17,17,16,17,16,17,17,17,16,17,17,17,17,16,17,18,16,16,18,16,17,17,17,17,17,17,16,17,17,17,16,17,17],"number_of_frames":120,"aperture_center_x":768,"aperture_center_y":432,"fixation_cross":true,"fixation_cross_width":15,"fixation_cross_height":15,"fixation_cross_color":"#111","fixation_cross_thickness":1,"border":true,"border_thickness":2,"border_color":"transparent","canvas_width":1536,"canvas_height":864,"trial_type":"rdk","trial_index":23,"plugin_version":"2.0.0","time_elapsed":250894,"target_direction":89,"distractor_direction":266},{"rt":3075,"stimulus":"\n        <div class=\"response-container\">\n          <div class=\"response-instruction\">\n            <p>rotate the bar by using the left and right arrow keys.</p>\n            <p>when you are determined, press the Enter key.</p>\n          </div>\n          <div class=\"response-circle\">\n            <div class=\"response-fixation\"></div>\n            <div id=\"bar\" class=\"rotating-bar\"></div>\n          </div>\n        </div>\n      ","response":"Enter","trial_type":"html-keyboard-response","trial_index":24,"plugin_version":"2.1.0","time_elapsed":253970,"random_initial_angle":344,"response_angle_css":359,"response_angle_rdk":91,"angular_error_target":2,"angular_error_distractor":-175,"target_direction":89,"target_group":"black","reward_points":9},{"rt":null,"stimulus":"\n          <p style=\"color: #00FF00;\">Your reward: 9 points</p>\n        ","response":null,"trial_type":"html-keyboard-response","trial_index":25,"plugin_version":"2.1.0","time_elapsed":255984},{"rt":null,"stimulus":"<div class=\"fixation\" style=\"font-size: 60px;\">+</div>","response":null,"trial_type":"html-keyboard-response","trial_index":26,"plugin_version":"2.1.0","time_elapsed":257001},{"target_group":"white","target_index":0,"condition_label":"practice","rt":-1,"response":"","correct":false,"choices":"ALL_KEYS","correct_choice":["a"],"trial_duration":2000,"flip_timestamps":[],"response_ends_trial":false,"number_of_apertures":2,"number_of_dots":[100,98],"number_of_sets":1,"coherent_direction":[289,69],"coherence":1,"opposite_coherence":0,"dot_radius":2,"dot_side_length":1,"dot_life":-1,"move_distance":1,"aperture_width":300,"aperture_height":300,"dot_color":["white","black"],"dot_shape":"circle","background_color":"#AAA","RDK_type":3,"aperture_type":2,"reinsert_type":2,"frame_rate":16.75,"frame_rate_array":[13,16,17,17,17,17,17,16,17,16,17,17,17,16,17,17,17,17,16,17,17,17,17,16,17,16,17,17,17,17,17,17,17,16,17,17,17,17,17,17,17,17,15,17,17,17,17,17,17,17,16,17,17,17,17,17,16,17,16,17,17,17,17,16,17,17,17,16,17,17,17,16,17,17,17,17,16,17,16,17,17,17,17,16,17,17,17,17,16,17,17,17,16,17,16,17,17,17,17,16,17,20,14,17,16,17,17,17,17,16,17,17,17,16,17,17,18,16,17,17],"number_of_frames":120,"aperture_center_x":768,"aperture_center_y":432,"fixation_cross":true,"fixation_cross_width":15,"fixation_cross_height":15,"fixation_cross_color":"#111","fixation_cross_thickness":1,"border":true,"border_thickness":2,"border_color":"transparent","canvas_width":1536,"canvas_height":864,"trial_type":"rdk","trial_index":27,"plugin_version":"2.0.0","time_elapsed":259010,"target_direction":289,"distractor_direction":69},{"rt":2514,"stimulus":"\n        <div class=\"response-container\">\n          <div class=\"response-instruction\">\n            <p>rotate the bar by using the left and right arrow keys.</p>\n            <p>when you are determined, press the Enter key.</p>\n          </div>\n          <div class=\"response-circle\">\n            <div class=\"response-fixation\"></div>\n            <div id=\"bar\" class=\"rotating-bar\"></div>\n          </div>\n        </div>\n      ","response":"Enter","trial_type":"html-keyboard-response","trial_index":28,"plugin_version":"2.1.0","time_elapsed":261524,"random_initial_angle":296,"response_angle_css":395,"response_angle_rdk":55,"angular_error_target":126,"angular_error_distractor":-14,"target_direction":289,"target_group":"white","reward_points":0},{"rt":null,"stimulus":"\n          <p style=\"color: #FF3333;\">Your reward: 0 points</p>\n        ","response":null,"trial_type":"html-keyboard-response","trial_index":29,"plugin_version":"2.1.0","time_elapsed":263540},{"rt":null,"stimulus":"<div class=\"fixation\" style=\"font-size: 60px;\">+</div>","response":null,"trial_type":"html-keyboard-response","trial_index":30,"plugin_version":"2.1.0","time_elapsed":264549},{"target_group":"white","target_index":0,"condition_label":"practice","rt":-1,"response":"","correct":false,"choices":"ALL_KEYS","correct_choice":["a"],"trial_duration":2000,"flip_timestamps":[],"response_ends_trial":false,"number_of_apertures":2,"number_of_dots":[100,97],"number_of_sets":1,"coherent_direction":[3,249],"coherence":1,"opposite_coherence":0,"dot_radius":2,"dot_side_length":1,"dot_life":-1,"move_distance":1,"aperture_width":300,"aperture_height":300,"dot_color":["white","black"],"dot_shape":"circle","background_color":"#AAA","RDK_type":3,"aperture_type":2,"reinsert_type":2,"frame_rate":16.816666666666666,"frame_rate_array":[15,17,17,17,17,17,17,17,17,17,17,16,21,14,15,17,17,17,17,17,17,18,16,17,16,17,17,16,17,17,17,17,16,17,16,17,17,17,17,16,17,16,17,16,17,16,17,17,17,17,16,17,17,17,17,17,16,17,17,17,17,17,17,17,17,17,17,16,17,17,17,17,16,18,15,17,17,17,17,17,16,17,17,17,17,17,17,17,17,17,17,16,17,17,17,17,17,17,17,17,17,17,16,17,16,17,17,17,17,17,17,17,17,17,17,17,17,17,17,16],"number_of_frames":120,"aperture_center_x":768,"aperture_center_y":432,"fixation_cross":true,"fixation_cross_width":15,"fixation_cross_height":15,"fixation_cross_color":"#111","fixation_cross_thickness":1,"border":true,"border_thickness":2,"border_color":"transparent","canvas_width":1536,"canvas_height":864,"trial_type":"rdk","trial_index":31,"plugin_version":"2.0.0","time_elapsed":266562,"target_direction":3,"distractor_direction":249},{"rt":3228,"stimulus":"\n        <div class=\"response-container\">\n          <div class=\"response-instruction\">\n            <p>rotate the bar by using the left and right arrow keys.</p>\n            <p>when you are determined, press the Enter key.</p>\n          </div>\n          <div class=\"response-circle\">\n            <div class=\"response-fixation\"></div>\n            <div id=\"bar\" class=\"rotating-bar\"></div>\n          </div>\n        </div>\n      ","response":"Enter","trial_type":"html-keyboard-response","trial_index":32,"plugin_version":"2.1.0","time_elapsed":269790,"random_initial_angle":310,"response_angle_css":225,"response_angle_rdk":225,"angular_error_target":-138,"angular_error_distractor":-24,"target_direction":3,"target_group":"white","reward_points":0},{"rt":null,"stimulus":"\n          <p style=\"color: #FF3333;\">Your reward: 0 points</p>\n        ","response":null,"trial_type":"html-keyboard-response","trial_index":33,"plugin_version":"2.1.0","time_elapsed":271797},{"rt":null,"stimulus":"<div class=\"fixation\" style=\"font-size: 60px;\">+</div>","response":null,"trial_type":"html-keyboard-response","trial_index":34,"plugin_version":"2.1.0","time_elapsed":272815},{"target_group":"white","target_index":0,"condition_label":"practice","rt":-1,"response":"","correct":false,"choices":"ALL_KEYS","correct_choice":["a"],"trial_duration":2000,"flip_timestamps":[],"response_ends_trial":false,"number_of_apertures":2,"number_of_dots":[100,58],"number_of_sets":1,"coherent_direction":[13,110],"coherence":1,"opposite_coherence":0,"dot_radius":2,"dot_side_length":1,"dot_life":-1,"move_distance":1,"aperture_width":300,"aperture_height":300,"dot_color":["white","black"],"dot_shape":"circle","background_color":"#AAA","RDK_type":3,"aperture_type":2,"reinsert_type":2,"frame_rate":16.833333333333332,"frame_rate_array":[17,14,17,17,17,17,17,17,17,16,17,17,17,17,17,17,17,17,17,17,16,17,17,17,16,17,17,17,17,17,17,17,17,17,17,17,17,17,17,17,17,17,17,17,17,17,16,17,17,17,17,17,17,17,17,17,17,17,16,19,16,16,16,17,16,17,17,17,16,17,17,17,17,16,17,17,17,17,17,17,17,16,17,17,17,17,16,17,16,17,17,17,17,16,17,17,17,17,17,17,17,16,17,17,17,17,17,17,17,16,17,17,17,17,16,17,17,17,17,16],"number_of_frames":120,"aperture_center_x":768,"aperture_center_y":432,"fixation_cross":true,"fixation_cross_width":15,"fixation_cross_height":15,"fixation_cross_color":"#111","fixation_cross_thickness":1,"border":true,"border_thickness":2,"border_color":"transparent","canvas_width":1536,"canvas_height":864,"trial_type":"rdk","trial_index":35,"plugin_version":"2.0.0","time_elapsed":274847,"target_direction":13,"distractor_direction":110},{"rt":2134,"stimulus":"\n        <div class=\"response-container\">\n          <div class=\"response-instruction\">\n            <p>rotate the bar by using the left and right arrow keys.</p>\n            <p>when you are determined, press the Enter key.</p>\n          </div>\n          <div class=\"response-circle\">\n            <div class=\"response-fixation\"></div>\n            <div id=\"bar\" class=\"rotating-bar\"></div>\n          </div>\n        </div>\n      ","response":"Enter","trial_type":"html-keyboard-response","trial_index":36,"plugin_version":"2.1.0","time_elapsed":276982,"random_initial_angle":357,"response_angle_css":418,"response_angle_rdk":32,"angular_error_target":19,"angular_error_distractor":-78,"target_direction":13,"target_group":"white","reward_points":6},{"rt":null,"stimulus":"\n          <p style=\"color: #00FF00;\">Your reward: 6 points</p>\n        ","response":null,"trial_type":"html-keyboard-response","trial_index":37,"plugin_version":"2.1.0","time_elapsed":278985},{"rt":null,"stimulus":"<div class=\"fixation\" style=\"font-size: 60px;\">+</div>","response":null,"trial_type":"html-keyboard-response","trial_index":38,"plugin_version":"2.1.0","time_elapsed":280000},{"target_group":"black","target_index":1,"condition_label":"practice","rt":-1,"response":"","correct":false,"choices":"ALL_KEYS","correct_choice":["a"],"trial_duration":2000,"flip_timestamps":[],"response_ends_trial":false,"number_of_apertures":2,"number_of_dots":[88,100],"number_of_sets":1,"coherent_direction":[130,259],"coherence":1,"opposite_coherence":0,"dot_radius":2,"dot_side_length":1,"dot_life":-1,"move_distance":1,"aperture_width":300,"aperture_height":300,"dot_color":["white","black"],"dot_shape":"circle","background_color":"#AAA","RDK_type":3,"aperture_type":2,"reinsert_type":2,"frame_rate":16.758333333333333,"frame_rate_array":[13,16,17,17,17,17,16,17,17,17,17,17,16,17,17,17,16,17,17,17,17,17,17,17,17,17,16,17,17,17,16,17,17,16,17,17,17,17,17,16,17,17,17,17,17,17,17,17,16,17,17,17,17,16,16,17,16,17,17,17,17,16,17,17,17,17,17,16,17,17,17,16,17,16,17,17,17,17,16,17,16,17,16,17,17,17,17,16,17,17,16,17,16,17,17,17,17,17,17,17,17,17,17,17,17,17,17,16,17,17,17,17,16,20,15,16,16,17,17,17],"number_of_frames":120,"aperture_center_x":768,"aperture_center_y":432,"fixation_cross":true,"fixation_cross_width":15,"fixation_cross_height":15,"fixation_cross_color":"#111","fixation_cross_thickness":1,"border":true,"border_thickness":2,"border_color":"transparent","canvas_width":1536,"canvas_height":864,"trial_type":"rdk","trial_index":39,"plugin_version":"2.0.0","time_elapsed":282009,"target_direction":259,"distractor_direction":130},{"rt":4581,"stimulus":"\n        <div class=\"response-container\">\n          <div class=\"response-instruction\">\n            <p>rotate the bar by using the left and right arrow keys.</p>\n            <p>when you are determined, press the Enter key.</p>\n          </div>\n          <div class=\"response-circle\">\n            <div class=\"response-fixation\"></div>\n            <div id=\"bar\" class=\"rotating-bar\"></div>\n          </div>\n        </div>\n      ","response":"Enter","trial_type":"html-keyboard-response","trial_index":40,"plugin_version":"2.1.0","time_elapsed":286591,"random_initial_angle":255,"response_angle_css":180,"response_angle_rdk":270,"angular_error_target":11,"angular_error_distractor":140,"target_direction":259,"target_group":"black","reward_points":7},{"rt":null,"stimulus":"\n          <p style=\"color: #00FF00;\">Your reward: 7 points</p>\n        ","response":null,"trial_type":"html-keyboard-response","trial_index":41,"plugin_version":"2.1.0","time_elapsed":288593},{"rt":null,"stimulus":"<div class=\"fixation\" style=\"font-size: 60px;\">+</div>","response":null,"trial_type":"html-keyboard-response","trial_index":42,"plugin_version":"2.1.0","time_elapsed":289600},{"target_group":"black","target_index":1,"condition_label":"practice","rt":-1,"response":"","correct":false,"choices":"ALL_KEYS","correct_choice":["a"],"trial_duration":2000,"flip_timestamps":[],"response_ends_trial":false,"number_of_apertures":2,"number_of_dots":[96,100],"number_of_sets":1,"coherent_direction":[212,316],"coherence":1,"opposite_coherence":0,"dot_radius":2,"dot_side_length":1,"dot_life":-1,"move_distance":1,"aperture_width":300,"aperture_height":300,"dot_color":["white","black"],"dot_shape":"circle","background_color":"#AAA","RDK_type":3,"aperture_type":2,"reinsert_type":2,"frame_rate":16.75,"frame_rate_array":[11,17,17,16,17,17,17,17,16,17,17,17,17,17,17,17,16,17,16,16,17,16,17,17,17,17,17,17,16,17,16,17,17,17,16,17,17,17,16,17,17,17,17,17,16,17,17,17,17,17,17,16,17,17,17,16,17,17,17,17,17,17,17,17,17,16,17,17,16,17,17,17,17,16,17,17,17,17,16,17,17,17,17,17,17,17,17,17,17,17,17,17,17,17,17,16,17,17,17,17,16,17,16,17,17,17,16,16,17,17,17,17,16,17,17,17,16,17,17,17],"number_of_frames":120,"aperture_center_x":768,"aperture_center_y":432,"fixation_cross":true,"fixation_cross_width":15,"fixation_cross_height":15,"fixation_cross_color":"#111","fixation_cross_thickness":1,"border":true,"border_thickness":2,"border_color":"transparent","canvas_width":1536,"canvas_height":864,"trial_type":"rdk","trial_index":43,"plugin_version":"2.0.0","time_elapsed":291612,"target_direction":316,"distractor_direction":212},{"rt":2585,"stimulus":"\n        <div class=\"response-container\">\n          <div class=\"response-instruction\">\n            <p>rotate the bar by using the left and right arrow keys.</p>\n            <p>when you are determined, press the Enter key.</p>\n          </div>\n          <div class=\"response-circle\">\n            <div class=\"response-fixation\"></div>\n            <div id=\"bar\" class=\"rotating-bar\"></div>\n          </div>\n        </div>\n      ","response":"Enter","trial_type":"html-keyboard-response","trial_index":44,"plugin_version":"2.1.0","time_elapsed":294198,"random_initial_angle":294,"response_angle_css":227,"response_angle_rdk":223,"angular_error_target":-93,"angular_error_distractor":11,"target_direction":316,"target_group":"black","reward_points":0},{"rt":null,"stimulus":"\n          <p style=\"color: #FF3333;\">Your reward: 0 points</p>\n        ","response":null,"trial_type":"html-keyboard-response","trial_index":45,"plugin_version":"2.1.0","time_elapsed":296207},{"rt":null,"stimulus":"<div class=\"fixation\" style=\"font-size: 60px;\">+</div>","response":null,"trial_type":"html-keyboard-response","trial_index":46,"plugin_version":"2.1.0","time_elapsed":297218},{"target_group":"black","target_index":1,"condition_label":"practice","rt":-1,"response":"","correct":false,"choices":"ALL_KEYS","correct_choice":["a"],"trial_duration":2000,"flip_timestamps":[],"response_ends_trial":false,"number_of_apertures":2,"number_of_dots":[83,100],"number_of_sets":1,"coherent_direction":[334,154],"coherence":1,"opposite_coherence":0,"dot_radius":2,"dot_side_length":1,"dot_life":-1,"move_distance":1,"aperture_width":300,"aperture_height":300,"dot_color":["white","black"],"dot_shape":"circle","background_color":"#AAA","RDK_type":3,"aperture_type":2,"reinsert_type":2,"frame_rate":16.775,"frame_rate_array":[10,16,17,17,17,17,16,17,17,17,17,17,17,17,17,17,17,16,17,17,17,17,17,17,17,17,17,16,17,17,17,17,16,16,17,17,17,17,17,17,17,16,17,16,17,17,17,16,17,17,16,17,17,17,17,17,17,17,17,17,17,16,17,17,16,17,17,17,17,17,17,17,17,17,17,16,16,17,17,17,17,17,17,16,17,17,17,17,17,17,17,16,17,16,17,17,17,17,17,17,17,17,17,17,17,17,17,17,16,17,17,17,17,17,17,16,17,17,16,17],"number_of_frames":120,"aperture_center_x":768,"aperture_center_y":432,"fixation_cross":true,"fixation_cross_width":15,"fixation_cross_height":15,"fixation_cross_color":"#111","fixation_cross_thickness":1,"border":true,"border_thickness":2,"border_color":"transparent","canvas_width":1536,"canvas_height":864,"trial_type":"rdk","trial_index":47,"plugin_version":"2.0.0","time_elapsed":299226,"target_direction":154,"distractor_direction":334},{"rt":3441,"stimulus":"\n        <div class=\"response-container\">\n          <div class=\"response-instruction\">\n            <p>rotate the bar by using the left and right arrow keys.</p>\n            <p>when you are determined, press the Enter key.</p>\n          </div>\n          <div class=\"response-circle\">\n            <div class=\"response-fixation\"></div>\n            <div id=\"bar\" class=\"rotating-bar\"></div>\n          </div>\n        </div>\n      ","response":"Enter","trial_type":"html-keyboard-response","trial_index":48,"plugin_version":"2.1.0","time_elapsed":302667,"random_initial_angle":139,"response_angle_css":312,"response_angle_rdk":138,"angular_error_target":-16,"angular_error_distractor":164,"target_direction":154,"target_group":"black","reward_points":6},{"rt":null,"stimulus":"\n          <p style=\"color: #00FF00;\">Your reward: 6 points</p>\n        ","response":null,"trial_type":"html-keyboard-response","trial_index":49,"plugin_version":"2.1.0","time_elapsed":304672},{"rt":null,"stimulus":"<div class=\"fixation\" style=\"font-size: 60px;\">+</div>","response":null,"trial_type":"html-keyboard-response","trial_index":50,"plugin_version":"2.1.0","time_elapsed":305680},{"target_group":"white","target_index":0,"condition_label":"practice","rt":-1,"response":"","correct":false,"choices":"ALL_KEYS","correct_choice":["a"],"trial_duration":2000,"flip_timestamps":[],"response_ends_trial":false,"number_of_apertures":2,"number_of_dots":[100,87],"number_of_sets":1,"coherent_direction":[196,85],"coherence":1,"opposite_coherence":0,"dot_radius":2,"dot_side_length":1,"dot_life":-1,"move_distance":1,"aperture_width":300,"aperture_height":300,"dot_color":["white","black"],"dot_shape":"circle","background_color":"#AAA","RDK_type":3,"aperture_type":2,"reinsert_type":2,"frame_rate":16.8,"frame_rate_array":[14,17,17,16,17,17,17,16,17,17,16,17,17,17,17,17,17,17,17,16,17,17,17,16,16,19,16,16,17,17,17,17,17,17,17,17,17,17,17,17,17,17,17,17,16,17,16,16,17,17,17,17,17,17,16,17,17,17,17,17,17,16,17,16,17,17,17,17,16,17,17,17,17,17,17,17,17,16,17,17,17,17,17,17,17,19,15,18,16,16,17,16,17,17,17,16,16,17,17,17,17,17,17,16,17,17,17,16,17,17,17,17,17,16,17,17,17,17,17,17],"number_of_frames":120,"aperture_center_x":768,"aperture_center_y":432,"fixation_cross":true,"fixation_cross_width":15,"fixation_cross_height":15,"fixation_cross_color":"#111","fixation_cross_thickness":1,"border":true,"border_thickness":2,"border_color":"transparent","canvas_width":1536,"canvas_height":864,"trial_type":"rdk","trial_index":51,"plugin_version":"2.0.0","time_elapsed":307695,"target_direction":196,"distractor_direction":85},{"rt":4046,"stimulus":"\n        <div class=\"response-container\">\n          <div class=\"response-instruction\">\n            <p>rotate the bar by using the left and right arrow keys.</p>\n            <p>when you are determined, press the Enter key.</p>\n          </div>\n          <div class=\"response-circle\">\n            <div class=\"response-fixation\"></div>\n            <div id=\"bar\" class=\"rotating-bar\"></div>\n          </div>\n        </div>\n      ","response":"Enter","trial_type":"html-keyboard-response","trial_index":52,"plugin_version":"2.1.0","time_elapsed":311741,"random_initial_angle":198,"response_angle_css":393,"response_angle_rdk":57,"angular_error_target":-139,"angular_error_distractor":-28,"target_direction":196,"target_group":"white","reward_points":0},{"rt":null,"stimulus":"\n          <p style=\"color: #FF3333;\">Your reward: 0 points</p>\n        ","response":null,"trial_type":"html-keyboard-response","trial_index":53,"plugin_version":"2.1.0","time_elapsed":313754},{"rt":null,"stimulus":"<div class=\"fixation\" style=\"font-size: 60px;\">+</div>","response":null,"trial_type":"html-keyboard-response","trial_index":54,"plugin_version":"2.1.0","time_elapsed":314757},{"target_group":"black","target_index":1,"condition_label":"practice","rt":-1,"response":"","correct":false,"choices":"ALL_KEYS","correct_choice":["a"],"trial_duration":2000,"flip_timestamps":[],"response_ends_trial":false,"number_of_apertures":2,"number_of_dots":[62,100],"number_of_sets":1,"coherent_direction":[75,329],"coherence":1,"opposite_coherence":0,"dot_radius":2,"dot_side_length":1,"dot_life":-1,"move_distance":1,"aperture_width":300,"aperture_height":300,"dot_color":["white","black"],"dot_shape":"circle","background_color":"#AAA","RDK_type":3,"aperture_type":2,"reinsert_type":2,"frame_rate":16.608333333333334,"frame_rate_array":[3,17,17,16,17,17,17,16,17,17,17,17,17,17,17,17,16,17,17,17,16,17,16,17,16,17,16,17,17,17,17,17,17,17,17,17,16,17,16,17,17,17,17,18,15,17,17,17,17,17,16,17,16,17,18,16,16,17,16,17,17,17,16,17,16,17,17,17,16,17,16,17,17,16,17,17,17,16,17,17,16,17,16,17,17,16,17,17,16,17,16,16,17,17,17,17,17,16,17,17,17,17,17,16,17,16,17,17,16,17,17,17,16,17,17,17,17,17,16,16],"number_of_frames":120,"aperture_center_x":768,"aperture_center_y":432,"fixation_cross":true,"fixation_cross_width":15,"fixation_cross_height":15,"fixation_cross_color":"#111","fixation_cross_thickness":1,"border":true,"border_thickness":2,"border_color":"transparent","canvas_width":1536,"canvas_height":864,"trial_type":"rdk","trial_index":55,"plugin_version":"2.0.0","time_elapsed":316760,"target_direction":329,"distractor_direction":75},{"rt":3237,"stimulus":"\n        <div class=\"response-container\">\n          <div class=\"response-instruction\">\n            <p>rotate the bar by using the left and right arrow keys.</p>\n            <p>when you are determined, press the Enter key.</p>\n          </div>\n          <div class=\"response-circle\">\n            <div class=\"response-fixation\"></div>\n            <div id=\"bar\" class=\"rotating-bar\"></div>\n          </div>\n        </div>\n      ","response":"Enter","trial_type":"html-keyboard-response","trial_index":56,"plugin_version":"2.1.0","time_elapsed":319998,"random_initial_angle":133,"response_angle_css":133,"response_angle_rdk":317,"angular_error_target":-12,"angular_error_distractor":-118,"target_direction":329,"target_group":"black","reward_points":7},{"rt":null,"stimulus":"\n          <p style=\"color: #00FF00;\">Your reward: 7 points</p>\n        ","response":null,"trial_type":"html-keyboard-response","trial_index":57,"plugin_version":"2.1.0","time_elapsed":322010},{"rt":null,"stimulus":"<div class=\"fixation\" style=\"font-size: 60px;\">+</div>","response":null,"trial_type":"html-keyboard-response","trial_index":58,"plugin_version":"2.1.0","time_elapsed":323028},{"target_group":"black","target_index":1,"condition_label":"practice","rt":-1,"response":"","correct":false,"choices":"ALL_KEYS","correct_choice":["a"],"trial_duration":2000,"flip_timestamps":[],"response_ends_trial":false,"number_of_apertures":2,"number_of_dots":[54,100],"number_of_sets":1,"coherent_direction":[279,132],"coherence":1,"opposite_coherence":0,"dot_radius":2,"dot_side_length":1,"dot_life":-1,"move_distance":1,"aperture_width":300,"aperture_height":300,"dot_color":["white","black"],"dot_shape":"circle","background_color":"#AAA","RDK_type":3,"aperture_type":2,"reinsert_type":2,"frame_rate":16.636363636363637,"frame_rate_array":[2,13,17,17,17,17,16,17,17,16,16,17,17,17,17,17,17,16,17,17,17,17,17,17,17,17,17,17,16,17,17,17,17,16,17,16,17,16,17,16,17,17,17,16,17,17,17,17,16,17,17,17,17,16,17,17,17,16,17,17,16,17,17,17,16,17,17,17,17,17,17,16,17,17,17,16,17,17,17,17,17,17,16,17,17,17,16,17,16,16,17,17,17,17,17,17,17,17,17,17,16,17,17,17,16,17,17,17,16,17,17,17,17,17,17,17,17,17,17,16,17],"number_of_frames":121,"aperture_center_x":768,"aperture_center_y":432,"fixation_cross":true,"fixation_cross_width":15,"fixation_cross_height":15,"fixation_cross_color":"#111","fixation_cross_thickness":1,"border":true,"border_thickness":2,"border_color":"transparent","canvas_width":1536,"canvas_height":864,"trial_type":"rdk","trial_index":59,"plugin_version":"2.0.0","time_elapsed":325030,"target_direction":132,"distractor_direction":279},{"rt":3263,"stimulus":"\n        <div class=\"response-container\">\n          <div class=\"response-instruction\">\n            <p>rotate the bar by using the left and right arrow keys.</p>\n            <p>when you are determined, press the Enter key.</p>\n          </div>\n          <div class=\"response-circle\">\n            <div class=\"response-fixation\"></div>\n            <div id=\"bar\" class=\"rotating-bar\"></div>\n          </div>\n        </div>\n      ","response":"Enter","trial_type":"html-keyboard-response","trial_index":60,"plugin_version":"2.1.0","time_elapsed":328294,"random_initial_angle":291,"response_angle_css":310,"response_angle_rdk":140,"angular_error_target":8,"angular_error_distractor":-139,"target_direction":132,"target_group":"black","reward_points":8},{"rt":null,"stimulus":"\n          <p style=\"color: #00FF00;\">Your reward: 8 points</p>\n        ","response":null,"trial_type":"html-keyboard-response","trial_index":61,"plugin_version":"2.1.0","time_elapsed":330302},{"rt":null,"stimulus":"<div class=\"fixation\" style=\"font-size: 60px;\">+</div>","response":null,"trial_type":"html-keyboard-response","trial_index":62,"plugin_version":"2.1.0","time_elapsed":331313},{"target_group":"black","target_index":1,"condition_label":"practice","rt":-1,"response":"","correct":false,"choices":"ALL_KEYS","correct_choice":["a"],"trial_duration":2000,"flip_timestamps":[],"response_ends_trial":false,"number_of_apertures":2,"number_of_dots":[58,100],"number_of_sets":1,"coherent_direction":[319,193],"coherence":1,"opposite_coherence":0,"dot_radius":2,"dot_side_length":1,"dot_life":-1,"move_distance":1,"aperture_width":300,"aperture_height":300,"dot_color":["white","black"],"dot_shape":"circle","background_color":"#AAA","RDK_type":3,"aperture_type":2,"reinsert_type":2,"frame_rate":16.733333333333334,"frame_rate_array":[13,16,17,17,17,16,16,17,17,17,17,16,16,17,17,17,17,16,17,17,16,17,17,17,17,16,17,17,16,17,17,17,17,17,17,17,16,17,17,17,17,17,16,17,17,17,16,17,16,17,17,16,17,16,17,17,17,17,17,17,17,16,17,17,17,16,16,17,17,17,17,17,17,16,17,16,17,17,17,16,17,17,17,17,16,17,17,17,17,17,16,17,17,17,17,17,16,17,17,17,17,17,16,17,17,16,17,17,17,17,17,16,17,17,17,17,17,17,16,17],"number_of_frames":120,"aperture_center_x":768,"aperture_center_y":432,"fixation_cross":true,"fixation_cross_width":15,"fixation_cross_height":15,"fixation_cross_color":"#111","fixation_cross_thickness":1,"border":true,"border_thickness":2,"border_color":"transparent","canvas_width":1536,"canvas_height":864,"trial_type":"rdk","trial_index":63,"plugin_version":"2.0.0","time_elapsed":333323,"target_direction":193,"distractor_direction":319},{"rt":2907,"stimulus":"\n        <div class=\"response-container\">\n          <div class=\"response-instruction\">\n            <p>rotate the bar by using the left and right arrow keys.</p>\n            <p>when you are determined, press the Enter key.</p>\n          </div>\n          <div class=\"response-circle\">\n            <div class=\"response-fixation\"></div>\n            <div id=\"bar\" class=\"rotating-bar\"></div>\n          </div>\n        </div>\n      ","response":"Enter","trial_type":"html-keyboard-response","trial_index":64,"plugin_version":"2.1.0","time_elapsed":336230,"random_initial_angle":357,"response_angle_css":268,"response_angle_rdk":182,"angular_error_target":-11,"angular_error_distractor":-137,"target_direction":193,"target_group":"black","reward_points":7},{"rt":null,"stimulus":"\n          <p style=\"color: #00FF00;\">Your reward: 7 points</p>\n        ","response":null,"trial_type":"html-keyboard-response","trial_index":65,"plugin_version":"2.1.0","time_elapsed":338247},{"rt":5084,"stimulus":"\n        <div class=\"instructions-container\">\n          <h2>End of Practice</h2>\n          <p>You have completed the practice trials.</p>\n          <p>Press <strong>Enter</strong> key to begin the main experiment.</p>\n        </div>\n      ","response":"Enter","trial_type":"html-keyboard-response","trial_index":66,"plugin_version":"2.1.0","time_elapsed":343333},{"rt":null,"stimulus":"<div class=\"fixation\" style=\"font-size: 60px;\">+</div>","response":null,"trial_type":"html-keyboard-response","trial_index":67,"plugin_version":"2.1.0","time_elapsed":344339},{"target_group":"white","condition_label":"W_H_vs_B_L_rep11","target_direction":141,"distractor_direction":45,"session_rotation":131,"rt":-1,"response":"","correct":false,"choices":"ALL_KEYS","correct_choice":["a"],"trial_duration":2000,"flip_timestamps":[],"response_ends_trial":false,"number_of_apertures":200,"number_of_dots":[1,1,1,1,1,1,1,1,1,1,1,1,1,1,1,1,1,1,1,1,1,1,1,1,1,1,1,1,1,1,1,1,1,1,1,1,1,1,1,1,1,1,1,1,1,1,1,1,1,1,1,1,1,1,1,1,1,1,1,1,1,1,1,1,1,1,1,1,1,1,1,1,1,1,1,1,1,1,1,1,1,1,1,1,1,1,1,1,1,1,1,1,1,1,1,1,1,1,1,1,1,1,1,1,1,1,1,1,1,1,1,1,1,1,1,1,1,1,1,1,1,1,1,1,1,1,1,1,1,1,1,1,1,1,1,1,1,1,1,1,1,1,1,1,1,1,1,1,1,1,1,1,1,1,1,1,1,1,1,1,1,1,1,1,1,1,1,1,1,1,1,1,1,1,1,1,1,1,1,1,1,1,1,1,1,1,1,1,1,1,1,1,1,1,1,1,1,1,1,1],"number_of_sets":1,"coherent_direction":[141,141,141,141,45,45,45,141,141,141,45,45,141,141,141,141,45,45,141,45,45,141,45,45,141,141,45,141,141,141,45,141,45,141,141,141,141,141,141,45,141,45,45,141,141,141,45,141,141,141,45,141,45,141,141,45,45,141,45,141,45,141,45,45,141,141,141,45,45,45,45,141,141,45,141,141,141,141,45,141,141,45,45,45,141,45,45,45,141,45,141,141,141,141,45,45,45,45,141,141,45,45,141,45,45,45,141,141,141,45,45,45,45,45,45,45,141,45,45,141,141,45,45,141,45,141,45,45,45,45,141,45,141,45,141,45,45,141,141,45,141,141,141,45,45,141,45,141,45,141,45,45,141,45,45,141,141,141,45,141,141,45,141,45,141,141,45,45,141,45,45,45,45,141,45,45,141,141,141,141,45,141,141,141,141,45,141,45,45,45,45,45,141,45,45,45,141,45,45,141],"coherence":1,"opposite_coherence":0,"dot_radius":2,"dot_side_length":1,"dot_life":-1,"move_distance":1,"aperture_width":300,"aperture_height":300,"dot_color":["white","white","white","white","black","black","black","white","white","white","black","black","white","white","white","white","black","black","white","black","black","white","black","black","white","white","black","white","white","white","black","white","black","white","white","white","white","white","white","black","white","black","black","white","white","white","black","white","white","white","black","white","black","white","white","black","black","white","black","white","black","white","black","black","white","white","white","black","black","black","black","white","white","black","white","white","white","white","black","white","white","black","black","black","white","black","black","black","white","black","white","white","white","white","black","black","black","black","white","white","black","black","white","black","black","black","white","white","white","black","black","black","black","black","black","black","white","black","black","white","white","black","black","white","black","white","black","black","black","black","white","black","white","black","white","black","black","white","white","black","white","white","white","black","black","white","black","white","black","white","black","black","white","black","black","white","white","white","black","white","white","black","white","black","white","white","black","black","white","black","black","black","black","white","black","black","white","white","white","white","black","white","white","white","white","black","white","black","black","black","black","black","white","black","black","black","white","black","black","white"],"dot_shape":"circle","background_color":"#AAA","RDK_type":3,"aperture_type":2,"reinsert_type":2,"frame_rate":16.608333333333334,"frame_rate_array":[2,17,18,15,17,18,15,17,17,16,17,16,17,17,16,17,17,17,17,17,17,17,17,16,17,17,16,17,17,16,18,16,17,17,17,16,17,16,17,17,16,17,17,17,16,17,17,17,16,16,17,17,16,17,17,17,17,17,16,17,17,17,17,16,17,16,17,16,17,17,16,16,18,15,18,17,17,16,17,16,17,17,17,17,16,16,17,17,17,17,17,17,16,17,17,17,17,16,17,17,17,17,16,18,16,18,16,16,17,16,17,17,17,17,16,17,17,17,16,17],"number_of_frames":120,"aperture_center_x":768,"aperture_center_y":432,"fixation_cross":true,"fixation_cross_width":15,"fixation_cross_height":15,"fixation_cross_color":"#111","fixation_cross_thickness":1,"border":true,"border_thickness":2,"border_color":"transparent","canvas_width":1536,"canvas_height":864,"trial_type":"rdk","trial_index":68,"plugin_version":"2.0.0","time_elapsed":346345},{"rt":2315,"stimulus":"\n        <div class=\"response-container\">\n          <div class=\"response-instruction\">\n            <p>rotate the bar by using the left and right arrow keys.</p>\n            <p>when you are determined, press the Enter key.</p>\n          </div>\n          <div class=\"response-circle\">\n            <div class=\"response-fixation\"></div>\n            <div id=\"bar\" class=\"rotating-bar\"></div>\n          </div>\n        </div>\n      ","response":"Enter","trial_type":"html-keyboard-response","trial_index":69,"plugin_version":"2.1.0","time_elapsed":348660,"random_initial_angle":254,"response_angle_css":304,"response_angle_rdk":146,"angular_error_target":5,"angular_error_distractor":101,"target_direction":141,"target_group":"white","reward_points":9},{"rt":null,"stimulus":"\n          <p style=\"color: #00FF00;\">Your reward: 9 points</p>\n        ","response":null,"trial_type":"html-keyboard-response","trial_index":70,"plugin_version":"2.1.0","time_elapsed":350664},{"rt":null,"stimulus":"<div class=\"fixation\" style=\"font-size: 60px;\">+</div>","response":null,"trial_type":"html-keyboard-response","trial_index":71,"plugin_version":"2.1.0","time_elapsed":351672},{"target_group":"black","condition_label":"B_H_vs_W_L_rep6","target_direction":225,"distractor_direction":320,"session_rotation":131,"rt":-1,"response":"","correct":false,"choices":"ALL_KEYS","correct_choice":["a"],"trial_duration":2000,"flip_timestamps":[],"response_ends_trial":false,"number_of_apertures":200,"number_of_dots":[1,1,1,1,1,1,1,1,1,1,1,1,1,1,1,1,1,1,1,1,1,1,1,1,1,1,1,1,1,1,1,1,1,1,1,1,1,1,1,1,1,1,1,1,1,1,1,1,1,1,1,1,1,1,1,1,1,1,1,1,1,1,1,1,1,1,1,1,1,1,1,1,1,1,1,1,1,1,1,1,1,1,1,1,1,1,1,1,1,1,1,1,1,1,1,1,1,1,1,1,1,1,1,1,1,1,1,1,1,1,1,1,1,1,1,1,1,1,1,1,1,1,1,1,1,1,1,1,1,1,1,1,1,1,1,1,1,1,1,1,1,1,1,1,1,1,1,1,1,1,1,1,1,1,1,1,1,1,1,1,1,1,1,1,1,1,1,1,1,1,1,1,1,1,1,1,1,1,1,1,1,1,1,1,1,1,1,1,1,1,1,1,1,1,1,1,1,1,1,1],"number_of_sets":1,"coherent_direction":[225,320,225,320,320,320,320,225,320,225,320,320,320,320,320,225,225,320,225,320,225,320,320,225,320,320,320,225,225,320,225,320,225,320,225,225,320,320,320,225,320,320,320,320,320,225,320,225,225,225,225,320,320,225,225,320,320,225,225,320,225,320,320,225,225,320,225,320,225,225,225,225,225,320,320,225,225,320,320,320,320,320,320,320,320,320,225,225,225,320,225,320,225,225,320,225,320,225,225,320,320,225,225,225,320,225,225,225,225,225,225,320,320,320,225,320,225,320,225,225,225,225,320,225,320,320,320,320,225,225,225,225,225,225,225,225,320,320,225,225,225,225,320,225,320,320,225,320,225,225,225,225,320,225,320,225,320,225,320,320,320,225,225,320,320,225,225,225,320,320,320,320,320,320,320,320,225,320,225,320,225,320,225,225,225,225,320,320,320,225,225,225,320,225,225,320,320,320,225,320],"coherence":1,"opposite_coherence":0,"dot_radius":2,"dot_side_length":1,"dot_life":-1,"move_distance":1,"aperture_width":300,"aperture_height":300,"dot_color":["black","white","black","white","white","white","white","black","white","black","white","white","white","white","white","black","black","white","black","white","black","white","white","black","white","white","white","black","black","white","black","white","black","white","black","black","white","white","white","black","white","white","white","white","white","black","white","black","black","black","black","white","white","black","black","white","white","black","black","white","black","white","white","black","black","white","black","white","black","black","black","black","black","white","white","black","black","white","white","white","white","white","white","white","white","white","black","black","black","white","black","white","black","black","white","black","white","black","black","white","white","black","black","black","white","black","black","black","black","black","black","white","white","white","black","white","black","white","black","black","black","black","white","black","white","white","white","white","black","black","black","black","black","black","black","black","white","white","black","black","black","black","white","black","white","white","black","white","black","black","black","black","white","black","white","black","white","black","white","white","white","black","black","white","white","black","black","black","white","white","white","white","white","white","white","white","black","white","black","white","black","white","black","black","black","black","white","white","white","black","black","black","white","black","black","white","white","white","black","white"],"dot_shape":"circle","background_color":"#AAA","RDK_type":3,"aperture_type":2,"reinsert_type":2,"frame_rate":16.59504132231405,"frame_rate_array":[4,15,17,17,17,17,16,17,17,16,17,17,17,17,16,17,17,16,17,17,16,17,17,17,16,16,18,16,17,17,17,17,17,17,17,17,17,16,17,17,16,17,17,16,17,17,17,17,17,16,18,16,17,17,17,17,16,17,16,17,17,16,18,16,17,16,17,17,16,17,17,17,16,16,17,16,17,17,17,16,17,17,17,17,16,16,17,18,16,17,16,17,17,16,16,17,16,16,17,17,16,17,16,17,16,17,17,17,16,17,17,16,17,16,17,17,16,17,17,17,17],"number_of_frames":121,"aperture_center_x":768,"aperture_center_y":432,"fixation_cross":true,"fixation_cross_width":15,"fixation_cross_height":15,"fixation_cross_color":"#111","fixation_cross_thickness":1,"border":true,"border_thickness":2,"border_color":"transparent","canvas_width":1536,"canvas_height":864,"trial_type":"rdk","trial_index":72,"plugin_version":"2.0.0","time_elapsed":353679},{"rt":3947,"stimulus":"\n        <div class=\"response-container\">\n          <div class=\"response-instruction\">\n            <p>rotate the bar by using the left and right arrow keys.</p>\n            <p>when you are determined, press the Enter key.</p>\n          </div>\n          <div class=\"response-circle\">\n            <div class=\"response-fixation\"></div>\n            <div id=\"bar\" class=\"rotating-bar\"></div>\n          </div>\n        </div>\n      ","response":"Enter","trial_type":"html-keyboard-response","trial_index":73,"plugin_version":"2.1.0","time_elapsed":357627,"random_initial_angle":232,"response_angle_css":117,"response_angle_rdk":333,"angular_error_target":108,"angular_error_distractor":13,"target_direction":225,"target_group":"black","reward_points":0},{"rt":null,"stimulus":"\n          <p style=\"color: #FF3333;\">Your reward: 0 points</p>\n        ","response":null,"trial_type":"html-keyboard-response","trial_index":74,"plugin_version":"2.1.0","time_elapsed":359636},{"rt":null,"stimulus":"<div class=\"fixation\" style=\"font-size: 60px;\">+</div>","response":null,"trial_type":"html-keyboard-response","trial_index":75,"plugin_version":"2.1.0","time_elapsed":360638},{"target_group":"black","condition_label":"B_H_vs_W_L_rep14","target_direction":225,"distractor_direction":349,"session_rotation":131,"rt":-1,"response":"","correct":false,"choices":"ALL_KEYS","correct_choice":["a"],"trial_duration":2000,"flip_timestamps":[],"response_ends_trial":false,"number_of_apertures":200,"number_of_dots":[1,1,1,1,1,1,1,1,1,1,1,1,1,1,1,1,1,1,1,1,1,1,1,1,1,1,1,1,1,1,1,1,1,1,1,1,1,1,1,1,1,1,1,1,1,1,1,1,1,1,1,1,1,1,1,1,1,1,1,1,1,1,1,1,1,1,1,1,1,1,1,1,1,1,1,1,1,1,1,1,1,1,1,1,1,1,1,1,1,1,1,1,1,1,1,1,1,1,1,1,1,1,1,1,1,1,1,1,1,1,1,1,1,1,1,1,1,1,1,1,1,1,1,1,1,1,1,1,1,1,1,1,1,1,1,1,1,1,1,1,1,1,1,1,1,1,1,1,1,1,1,1,1,1,1,1,1,1,1,1,1,1,1,1,1,1,1,1,1,1,1,1,1,1,1,1,1,1,1,1,1,1,1,1,1,1,1,1,1,1,1,1,1,1,1,1,1,1,1,1],"number_of_sets":1,"coherent_direction":[349,349,225,349,225,225,225,225,349,225,349,225,225,349,349,225,225,225,225,349,349,349,349,349,349,349,349,225,349,225,349,225,349,225,225,349,225,349,349,349,349,349,225,225,349,349,349,349,349,225,349,225,225,349,349,349,349,225,349,349,225,225,349,349,225,349,225,225,225,225,349,349,225,225,349,225,225,349,225,225,349,225,225,225,225,225,349,349,349,349,349,225,225,225,349,225,349,225,225,349,225,225,349,225,349,225,225,225,349,349,349,349,225,225,225,349,225,349,225,349,225,225,349,225,349,349,349,349,225,225,225,349,225,225,225,349,225,349,225,349,349,225,349,349,349,349,225,225,225,225,349,225,349,225,349,225,349,349,349,349,225,225,225,349,349,225,225,349,225,225,349,225,225,349,225,349,349,349,349,225,349,225,349,225,349,225,349,225,225,225,225,225,225,349,225,349,349,349,349,225],"coherence":1,"opposite_coherence":0,"dot_radius":2,"dot_side_length":1,"dot_life":-1,"move_distance":1,"aperture_width":300,"aperture_height":300,"dot_color":["white","white","black","white","black","black","black","black","white","black","white","black","black","white","white","black","black","black","black","white","white","white","white","white","white","white","white","black","white","black","white","black","white","black","black","white","black","white","white","white","white","white","black","black","white","white","white","white","white","black","white","black","black","white","white","white","white","black","white","white","black","black","white","white","black","white","black","black","black","black","white","white","black","black","white","black","black","white","black","black","white","black","black","black","black","black","white","white","white","white","white","black","black","black","white","black","white","black","black","white","black","black","white","black","white","black","black","black","white","white","white","white","black","black","black","white","black","white","black","white","black","black","white","black","white","white","white","white","black","black","black","white","black","black","black","white","black","white","black","white","white","black","white","white","white","white","black","black","black","black","white","black","white","black","white","black","white","white","white","white","black","black","black","white","white","black","black","white","black","black","white","black","black","white","black","white","white","white","white","black","white","black","white","black","white","black","white","black","black","black","black","black","black","white","black","white","white","white","white","black"],"dot_shape":"circle","background_color":"#AAA","RDK_type":3,"aperture_type":2,"reinsert_type":2,"frame_rate":16.611570247933884,"frame_rate_array":[5,15,16,17,17,16,18,16,17,17,17,16,17,17,16,18,17,17,17,16,17,16,17,17,16,17,16,18,16,16,17,17,16,17,17,17,16,16,16,18,17,17,16,17,17,17,16,17,17,16,17,17,17,17,17,16,17,17,17,16,17,20,13,16,18,17,17,16,17,16,17,17,17,16,16,17,18,16,17,17,17,17,16,17,17,17,17,16,17,16,17,17,17,16,17,17,16,17,16,17,17,16,17,16,17,17,17,17,17,17,17,16,17,16,17,18,16,17,16,17,16],"number_of_frames":121,"aperture_center_x":768,"aperture_center_y":432,"fixation_cross":true,"fixation_cross_width":15,"fixation_cross_height":15,"fixation_cross_color":"#111","fixation_cross_thickness":1,"border":true,"border_thickness":2,"border_color":"transparent","canvas_width":1536,"canvas_height":864,"trial_type":"rdk","trial_index":76,"plugin_version":"2.0.0","time_elapsed":362645},{"rt":2483,"stimulus":"\n        <div class=\"response-container\">\n          <div class=\"response-instruction\">\n            <p>rotate the bar by using the left and right arrow keys.</p>\n            <p>when you are determined, press the Enter key.</p>\n          </div>\n          <div class=\"response-circle\">\n            <div class=\"response-fixation\"></div>\n            <div id=\"bar\" class=\"rotating-bar\"></div>\n          </div>\n        </div>\n      ","response":"Enter","trial_type":"html-keyboard-response","trial_index":77,"plugin_version":"2.1.0","time_elapsed":365129,"random_initial_angle":206,"response_angle_css":223,"response_angle_rdk":227,"angular_error_target":2,"angular_error_distractor":-122,"target_direction":225,"target_group":"black","reward_points":9},{"rt":null,"stimulus":"\n          <p style=\"color: #00FF00;\">Your reward: 9 points</p>\n        ","response":null,"trial_type":"html-keyboard-response","trial_index":78,"plugin_version":"2.1.0","time_elapsed":367136},{"rt":null,"stimulus":"<div class=\"fixation\" style=\"font-size: 60px;\">+</div>","response":null,"trial_type":"html-keyboard-response","trial_index":79,"plugin_version":"2.1.0","time_elapsed":368152},{"target_group":"white","condition_label":"W_H_vs_B_L_rep3","target_direction":168,"distractor_direction":66,"session_rotation":131,"rt":-1,"response":"","correct":false,"choices":"ALL_KEYS","correct_choice":["a"],"trial_duration":2000,"flip_timestamps":[],"response_ends_trial":false,"number_of_apertures":200,"number_of_dots":[1,1,1,1,1,1,1,1,1,1,1,1,1,1,1,1,1,1,1,1,1,1,1,1,1,1,1,1,1,1,1,1,1,1,1,1,1,1,1,1,1,1,1,1,1,1,1,1,1,1,1,1,1,1,1,1,1,1,1,1,1,1,1,1,1,1,1,1,1,1,1,1,1,1,1,1,1,1,1,1,1,1,1,1,1,1,1,1,1,1,1,1,1,1,1,1,1,1,1,1,1,1,1,1,1,1,1,1,1,1,1,1,1,1,1,1,1,1,1,1,1,1,1,1,1,1,1,1,1,1,1,1,1,1,1,1,1,1,1,1,1,1,1,1,1,1,1,1,1,1,1,1,1,1,1,1,1,1,1,1,1,1,1,1,1,1,1,1,1,1,1,1,1,1,1,1,1,1,1,1,1,1,1,1,1,1,1,1,1,1,1,1,1,1,1,1,1,1,1,1],"number_of_sets":1,"coherent_direction":[66,168,168,168,168,66,66,168,168,168,66,66,66,66,66,168,66,66,168,168,66,168,168,168,66,66,66,66,66,168,168,66,66,168,66,66,66,66,168,66,168,168,66,168,66,168,168,168,66,66,168,66,168,66,66,168,66,168,66,168,168,66,168,168,66,168,168,168,168,168,168,66,168,66,168,168,168,168,66,66,66,66,66,168,66,168,168,66,168,168,168,66,168,66,168,66,168,66,168,66,66,168,168,66,168,168,168,66,168,66,66,168,66,168,66,168,168,66,168,66,168,168,66,66,66,168,66,66,168,66,168,168,168,168,66,66,168,168,66,168,66,168,168,66,66,168,66,66,66,66,66,168,168,168,66,66,66,168,66,168,66,168,66,66,168,66,66,66,168,66,66,168,168,168,66,66,66,66,168,66,168,66,168,168,168,168,66,168,168,66,168,66,66,66,66,168,66,66,168,168],"coherence":1,"opposite_coherence":0,"dot_radius":2,"dot_side_length":1,"dot_life":-1,"move_distance":1,"aperture_width":300,"aperture_height":300,"dot_color":["black","white","white","white","white","black","black","white","white","white","black","black","black","black","black","white","black","black","white","white","black","white","white","white","black","black","black","black","black","white","white","black","black","white","black","black","black","black","white","black","white","white","black","white","black","white","white","white","black","black","white","black","white","black","black","white","black","white","black","white","white","black","white","white","black","white","white","white","white","white","white","black","white","black","white","white","white","white","black","black","black","black","black","white","black","white","white","black","white","white","white","black","white","black","white","black","white","black","white","black","black","white","white","black","white","white","white","black","white","black","black","white","black","white","black","white","white","black","white","black","white","white","black","black","black","white","black","black","white","black","white","white","white","white","black","black","white","white","black","white","black","white","white","black","black","white","black","black","black","black","black","white","white","white","black","black","black","white","black","white","black","white","black","black","white","black","black","black","white","black","black","white","white","white","black","black","black","black","white","black","white","black","white","white","white","white","black","white","white","black","white","black","black","black","black","white","black","black","white","white"],"dot_shape":"circle","background_color":"#AAA","RDK_type":3,"aperture_type":2,"reinsert_type":2,"frame_rate":16.683333333333334,"frame_rate_array":[6,17,17,17,17,17,16,17,17,16,17,17,17,16,17,17,16,17,17,17,17,16,17,17,17,17,17,17,16,17,17,17,17,16,17,17,16,17,17,17,17,16,17,17,17,17,16,17,17,17,17,16,17,17,17,17,16,17,16,17,17,16,17,17,17,17,16,17,16,17,16,17,16,17,17,16,17,17,17,17,17,17,17,17,17,17,16,17,17,16,16,17,17,17,16,17,17,17,17,17,17,17,16,17,17,17,17,17,16,17,16,17,17,17,17,16,17,17,17,17],"number_of_frames":120,"aperture_center_x":768,"aperture_center_y":432,"fixation_cross":true,"fixation_cross_width":15,"fixation_cross_height":15,"fixation_cross_color":"#111","fixation_cross_thickness":1,"border":true,"border_thickness":2,"border_color":"transparent","canvas_width":1536,"canvas_height":864,"trial_type":"rdk","trial_index":80,"plugin_version":"2.0.0","time_elapsed":370159},{"rt":1821,"stimulus":"\n        <div class=\"response-container\">\n          <div class=\"response-instruction\">\n            <p>rotate the bar by using the left and right arrow keys.</p>\n            <p>when you are determined, press the Enter key.</p>\n          </div>\n          <div class=\"response-circle\">\n            <div class=\"response-fixation\"></div>\n            <div id=\"bar\" class=\"rotating-bar\"></div>\n          </div>\n        </div>\n      ","response":"Enter","trial_type":"html-keyboard-response","trial_index":81,"plugin_version":"2.1.0","time_elapsed":371981,"random_initial_angle":53,"response_angle_css":42,"response_angle_rdk":48,"angular_error_target":-120,"angular_error_distractor":-18,"target_direction":168,"target_group":"white","reward_points":0},{"rt":null,"stimulus":"\n          <p style=\"color: #FF3333;\">Your reward: 0 points</p>\n        ","response":null,"trial_type":"html-keyboard-response","trial_index":82,"plugin_version":"2.1.0","time_elapsed":373991},{"rt":null,"stimulus":"<div class=\"fixation\" style=\"font-size: 60px;\">+</div>","response":null,"trial_type":"html-keyboard-response","trial_index":83,"plugin_version":"2.1.0","time_elapsed":374996},{"target_group":"black","condition_label":"B_H_vs_W_L_rep1","target_direction":239,"distractor_direction":331,"session_rotation":131,"rt":-1,"response":"","correct":false,"choices":"ALL_KEYS","correct_choice":["a"],"trial_duration":2000,"flip_timestamps":[],"response_ends_trial":false,"number_of_apertures":200,"number_of_dots":[1,1,1,1,1,1,1,1,1,1,1,1,1,1,1,1,1,1,1,1,1,1,1,1,1,1,1,1,1,1,1,1,1,1,1,1,1,1,1,1,1,1,1,1,1,1,1,1,1,1,1,1,1,1,1,1,1,1,1,1,1,1,1,1,1,1,1,1,1,1,1,1,1,1,1,1,1,1,1,1,1,1,1,1,1,1,1,1,1,1,1,1,1,1,1,1,1,1,1,1,1,1,1,1,1,1,1,1,1,1,1,1,1,1,1,1,1,1,1,1,1,1,1,1,1,1,1,1,1,1,1,1,1,1,1,1,1,1,1,1,1,1,1,1,1,1,1,1,1,1,1,1,1,1,1,1,1,1,1,1,1,1,1,1,1,1,1,1,1,1,1,1,1,1,1,1,1,1,1,1,1,1,1,1,1,1,1,1,1,1,1,1,1,1,1,1,1,1,1,1],"number_of_sets":1,"coherent_direction":[239,239,239,239,331,331,239,239,239,239,331,239,331,331,239,239,331,331,331,331,239,331,239,239,239,331,331,331,239,331,239,331,331,239,331,239,239,239,331,331,331,331,239,239,331,239,331,239,331,331,331,239,331,239,331,331,331,331,331,331,331,331,239,239,239,331,331,331,331,331,239,239,239,239,331,239,239,239,331,239,331,239,331,239,239,331,239,331,239,239,331,239,331,331,331,331,239,239,239,331,239,239,239,331,331,239,239,331,239,331,239,331,331,239,239,331,239,331,331,331,331,239,239,239,239,331,331,239,331,331,239,331,331,331,239,331,239,239,239,331,239,239,239,239,239,239,331,331,239,239,331,239,331,239,331,239,331,331,331,239,239,331,331,239,239,239,331,331,331,239,331,239,239,331,239,239,239,331,331,331,331,331,331,331,239,239,239,331,331,239,331,331,239,239,239,239,239,331,239,331],"coherence":1,"opposite_coherence":0,"dot_radius":2,"dot_side_length":1,"dot_life":-1,"move_distance":1,"aperture_width":300,"aperture_height":300,"dot_color":["black","black","black","black","white","white","black","black","black","black","white","black","white","white","black","black","white","white","white","white","black","white","black","black","black","white","white","white","black","white","black","white","white","black","white","black","black","black","white","white","white","white","black","black","white","black","white","black","white","white","white","black","white","black","white","white","white","white","white","white","white","white","black","black","black","white","white","white","white","white","black","black","black","black","white","black","black","black","white","black","white","black","white","black","black","white","black","white","black","black","white","black","white","white","white","white","black","black","black","white","black","black","black","white","white","black","black","white","black","white","black","white","white","black","black","white","black","white","white","white","white","black","black","black","black","white","white","black","white","white","black","white","white","white","black","white","black","black","black","white","black","black","black","black","black","black","white","white","black","black","white","black","white","black","white","black","white","white","white","black","black","white","white","black","black","black","white","white","white","black","white","black","black","white","black","black","black","white","white","white","white","white","white","white","black","black","black","white","white","black","white","white","black","black","black","black","black","white","black","white"],"dot_shape":"circle","background_color":"#AAA","RDK_type":3,"aperture_type":2,"reinsert_type":2,"frame_rate":16.741666666666667,"frame_rate_array":[10,17,17,16,17,17,16,17,16,17,17,17,17,17,17,16,16,17,17,17,16,17,17,17,17,17,17,17,17,17,16,17,17,17,17,17,17,17,16,17,17,17,16,16,17,18,16,16,16,17,17,17,17,17,17,16,18,16,19,14,17,17,17,17,17,17,17,16,17,17,17,17,17,17,16,17,17,17,17,16,17,17,17,17,16,17,17,17,17,17,17,16,17,17,17,17,17,17,17,16,17,17,16,16,17,17,17,16,17,17,17,17,17,17,17,17,16,17,17,17],"number_of_frames":120,"aperture_center_x":768,"aperture_center_y":432,"fixation_cross":true,"fixation_cross_width":15,"fixation_cross_height":15,"fixation_cross_color":"#111","fixation_cross_thickness":1,"border":true,"border_thickness":2,"border_color":"transparent","canvas_width":1536,"canvas_height":864,"trial_type":"rdk","trial_index":84,"plugin_version":"2.0.0","time_elapsed":377006},{"rt":3720,"stimulus":"\n        <div class=\"response-container\">\n          <div class=\"response-instruction\">\n            <p>rotate the bar by using the left and right arrow keys.</p>\n            <p>when you are determined, press the Enter key.</p>\n          </div>\n          <div class=\"response-circle\">\n            <div class=\"response-fixation\"></div>\n            <div id=\"bar\" class=\"rotating-bar\"></div>\n          </div>\n        </div>\n      ","response":"Enter","trial_type":"html-keyboard-response","trial_index":85,"plugin_version":"2.1.0","time_elapsed":380727,"random_initial_angle":332,"response_angle_css":446,"response_angle_rdk":4,"angular_error_target":125,"angular_error_distractor":33,"target_direction":239,"target_group":"black","reward_points":0},{"rt":null,"stimulus":"\n          <p style=\"color: #FF3333;\">Your reward: 0 points</p>\n        ","response":null,"trial_type":"html-keyboard-response","trial_index":86,"plugin_version":"2.1.0","time_elapsed":382742},{"rt":null,"stimulus":"<div class=\"fixation\" style=\"font-size: 60px;\">+</div>","response":null,"trial_type":"html-keyboard-response","trial_index":87,"plugin_version":"2.1.0","time_elapsed":383753},{"target_group":"black","condition_label":"B_H_vs_W_L_rep4","target_direction":229,"distractor_direction":337,"session_rotation":131,"rt":-1,"response":"","correct":false,"choices":"ALL_KEYS","correct_choice":["a"],"trial_duration":2000,"flip_timestamps":[],"response_ends_trial":false,"number_of_apertures":200,"number_of_dots":[1,1,1,1,1,1,1,1,1,1,1,1,1,1,1,1,1,1,1,1,1,1,1,1,1,1,1,1,1,1,1,1,1,1,1,1,1,1,1,1,1,1,1,1,1,1,1,1,1,1,1,1,1,1,1,1,1,1,1,1,1,1,1,1,1,1,1,1,1,1,1,1,1,1,1,1,1,1,1,1,1,1,1,1,1,1,1,1,1,1,1,1,1,1,1,1,1,1,1,1,1,1,1,1,1,1,1,1,1,1,1,1,1,1,1,1,1,1,1,1,1,1,1,1,1,1,1,1,1,1,1,1,1,1,1,1,1,1,1,1,1,1,1,1,1,1,1,1,1,1,1,1,1,1,1,1,1,1,1,1,1,1,1,1,1,1,1,1,1,1,1,1,1,1,1,1,1,1,1,1,1,1,1,1,1,1,1,1,1,1,1,1,1,1,1,1,1,1,1,1],"number_of_sets":1,"coherent_direction":[229,337,229,229,337,229,229,229,229,337,337,229,229,337,337,337,337,337,337,229,229,229,229,229,337,229,229,337,229,229,229,229,337,337,337,229,337,337,229,337,229,229,337,229,229,229,229,337,337,337,337,337,229,337,229,337,337,337,229,229,337,337,337,229,229,337,337,229,337,337,229,337,337,229,337,229,229,229,337,229,229,229,337,229,337,337,337,337,337,337,337,229,337,337,337,229,337,229,337,229,337,229,337,229,229,337,229,229,229,337,229,337,229,229,337,337,337,229,229,229,337,337,229,229,229,337,337,229,229,229,337,337,337,229,337,229,337,337,229,229,337,229,229,229,337,229,229,337,337,337,337,229,337,229,337,229,337,337,229,229,229,229,337,229,337,337,229,229,337,337,337,229,337,229,229,229,337,229,229,229,229,337,337,229,337,337,229,337,337,337,229,337,229,229,229,337,229,337,337,337],"coherence":1,"opposite_coherence":0,"dot_radius":2,"dot_side_length":1,"dot_life":-1,"move_distance":1,"aperture_width":300,"aperture_height":300,"dot_color":["black","white","black","black","white","black","black","black","black","white","white","black","black","white","white","white","white","white","white","black","black","black","black","black","white","black","black","white","black","black","black","black","white","white","white","black","white","white","black","white","black","black","white","black","black","black","black","white","white","white","white","white","black","white","black","white","white","white","black","black","white","white","white","black","black","white","white","black","white","white","black","white","white","black","white","black","black","black","white","black","black","black","white","black","white","white","white","white","white","white","white","black","white","white","white","black","white","black","white","black","white","black","white","black","black","white","black","black","black","white","black","white","black","black","white","white","white","black","black","black","white","white","black","black","black","white","white","black","black","black","white","white","white","black","white","black","white","white","black","black","white","black","black","black","white","black","black","white","white","white","white","black","white","black","white","black","white","white","black","black","black","black","white","black","white","white","black","black","white","white","white","black","white","black","black","black","white","black","black","black","black","white","white","black","white","white","black","white","white","white","black","white","black","black","black","white","black","white","white","white"],"dot_shape":"circle","background_color":"#AAA","RDK_type":3,"aperture_type":2,"reinsert_type":2,"frame_rate":16.636363636363637,"frame_rate_array":[4,15,17,16,18,16,17,17,17,16,16,17,16,17,17,17,16,16,17,16,17,17,17,17,17,17,16,17,17,17,17,17,17,17,17,17,17,17,16,17,17,17,16,17,17,16,17,17,17,16,17,17,17,16,17,17,17,17,17,17,17,17,16,17,16,17,16,17,16,17,17,17,17,17,17,16,17,17,16,17,17,17,17,17,16,17,17,17,16,16,17,17,17,17,17,17,16,17,17,16,17,17,17,17,17,16,17,17,16,17,17,17,17,17,16,17,17,16,17,17,16],"number_of_frames":121,"aperture_center_x":768,"aperture_center_y":432,"fixation_cross":true,"fixation_cross_width":15,"fixation_cross_height":15,"fixation_cross_color":"#111","fixation_cross_thickness":1,"border":true,"border_thickness":2,"border_color":"transparent","canvas_width":1536,"canvas_height":864,"trial_type":"rdk","trial_index":88,"plugin_version":"2.0.0","time_elapsed":385760},{"rt":1367,"stimulus":"\n        <div class=\"response-container\">\n          <div class=\"response-instruction\">\n            <p>rotate the bar by using the left and right arrow keys.</p>\n            <p>when you are determined, press the Enter key.</p>\n          </div>\n          <div class=\"response-circle\">\n            <div class=\"response-fixation\"></div>\n            <div id=\"bar\" class=\"rotating-bar\"></div>\n          </div>\n        </div>\n      ","response":"Enter","trial_type":"html-keyboard-response","trial_index":89,"plugin_version":"2.1.0","time_elapsed":387128,"random_initial_angle":26,"response_angle_css":26,"response_angle_rdk":64,"angular_error_target":-165,"angular_error_distractor":87,"target_direction":229,"target_group":"black","reward_points":0},{"rt":null,"stimulus":"\n          <p style=\"color: #FF3333;\">Your reward: 0 points</p>\n        ","response":null,"trial_type":"html-keyboard-response","trial_index":90,"plugin_version":"2.1.0","time_elapsed":389132},{"rt":null,"stimulus":"<div class=\"fixation\" style=\"font-size: 60px;\">+</div>","response":null,"trial_type":"html-keyboard-response","trial_index":91,"plugin_version":"2.1.0","time_elapsed":390144},{"target_group":"white","condition_label":"W_H_vs_B_L_rep2","target_direction":167,"distractor_direction":74,"session_rotation":131,"rt":-1,"response":"","correct":false,"choices":"ALL_KEYS","correct_choice":["a"],"trial_duration":2000,"flip_timestamps":[],"response_ends_trial":false,"number_of_apertures":200,"number_of_dots":[1,1,1,1,1,1,1,1,1,1,1,1,1,1,1,1,1,1,1,1,1,1,1,1,1,1,1,1,1,1,1,1,1,1,1,1,1,1,1,1,1,1,1,1,1,1,1,1,1,1,1,1,1,1,1,1,1,1,1,1,1,1,1,1,1,1,1,1,1,1,1,1,1,1,1,1,1,1,1,1,1,1,1,1,1,1,1,1,1,1,1,1,1,1,1,1,1,1,1,1,1,1,1,1,1,1,1,1,1,1,1,1,1,1,1,1,1,1,1,1,1,1,1,1,1,1,1,1,1,1,1,1,1,1,1,1,1,1,1,1,1,1,1,1,1,1,1,1,1,1,1,1,1,1,1,1,1,1,1,1,1,1,1,1,1,1,1,1,1,1,1,1,1,1,1,1,1,1,1,1,1,1,1,1,1,1,1,1,1,1,1,1,1,1,1,1,1,1,1,1],"number_of_sets":1,"coherent_direction":[74,167,167,167,74,167,74,167,74,167,74,167,74,167,167,74,167,74,167,167,74,74,167,167,167,74,74,74,167,74,167,74,167,74,74,74,74,167,74,74,167,74,167,74,74,167,167,74,74,74,167,167,74,74,167,74,167,167,74,74,74,74,167,167,74,167,167,74,167,74,167,167,74,167,167,74,74,167,74,167,167,74,74,74,74,74,74,167,167,74,167,167,167,167,74,167,167,74,74,74,167,167,74,167,74,167,167,74,167,167,74,74,167,74,167,74,74,74,74,74,167,167,167,167,74,74,167,74,74,74,167,167,74,167,74,167,167,167,74,74,167,74,167,74,167,74,167,167,167,74,167,74,74,167,74,167,74,74,74,167,74,74,167,74,167,167,74,167,167,167,74,167,167,167,74,74,74,167,74,167,74,74,167,167,167,74,167,74,167,74,167,167,74,74,167,74,167,167,167,74],"coherence":1,"opposite_coherence":0,"dot_radius":2,"dot_side_length":1,"dot_life":-1,"move_distance":1,"aperture_width":300,"aperture_height":300,"dot_color":["black","white","white","white","black","white","black","white","black","white","black","white","black","white","white","black","white","black","white","white","black","black","white","white","white","black","black","black","white","black","white","black","white","black","black","black","black","white","black","black","white","black","white","black","black","white","white","black","black","black","white","white","black","black","white","black","white","white","black","black","black","black","white","white","black","white","white","black","white","black","white","white","black","white","white","black","black","white","black","white","white","black","black","black","black","black","black","white","white","black","white","white","white","white","black","white","white","black","black","black","white","white","black","white","black","white","white","black","white","white","black","black","white","black","white","black","black","black","black","black","white","white","white","white","black","black","white","black","black","black","white","white","black","white","black","white","white","white","black","black","white","black","white","black","white","black","white","white","white","black","white","black","black","white","black","white","black","black","black","white","black","black","white","black","white","white","black","white","white","white","black","white","white","white","black","black","black","white","black","white","black","black","white","white","white","black","white","black","white","black","white","white","black","black","white","black","white","white","white","black"],"dot_shape":"circle","background_color":"#AAA","RDK_type":3,"aperture_type":2,"reinsert_type":2,"frame_rate":16.816666666666666,"frame_rate_array":[13,17,16,17,17,17,16,17,17,17,17,17,16,17,17,16,17,17,17,17,17,17,17,17,17,17,17,17,17,17,17,17,17,17,17,17,17,17,16,16,17,16,17,17,17,17,17,17,17,17,17,16,17,17,17,17,16,17,17,17,17,17,16,17,17,17,17,16,17,17,17,17,16,17,17,17,17,17,17,17,17,16,17,17,17,16,17,17,16,16,17,17,17,17,17,17,17,16,17,17,17,17,17,17,17,16,17,17,17,17,17,17,17,17,17,17,17,17,17,17],"number_of_frames":120,"aperture_center_x":768,"aperture_center_y":432,"fixation_cross":true,"fixation_cross_width":15,"fixation_cross_height":15,"fixation_cross_color":"#111","fixation_cross_thickness":1,"border":true,"border_thickness":2,"border_color":"transparent","canvas_width":1536,"canvas_height":864,"trial_type":"rdk","trial_index":92,"plugin_version":"2.0.0","time_elapsed":392159},{"rt":3688,"stimulus":"\n        <div class=\"response-container\">\n          <div class=\"response-instruction\">\n            <p>rotate the bar by using the left and right arrow keys.</p>\n            <p>when you are determined, press the Enter key.</p>\n          </div>\n          <div class=\"response-circle\">\n            <div class=\"response-fixation\"></div>\n            <div id=\"bar\" class=\"rotating-bar\"></div>\n          </div>\n        </div>\n      ","response":"Enter","trial_type":"html-keyboard-response","trial_index":93,"plugin_version":"2.1.0","time_elapsed":395847,"random_initial_angle":304,"response_angle_css":403,"response_angle_rdk":47,"angular_error_target":-120,"angular_error_distractor":-27,"target_direction":167,"target_group":"white","reward_points":0},{"rt":null,"stimulus":"\n          <p style=\"color: #FF3333;\">Your reward: 0 points</p>\n        ","response":null,"trial_type":"html-keyboard-response","trial_index":94,"plugin_version":"2.1.0","time_elapsed":397850},{"rt":null,"stimulus":"<div class=\"fixation\" style=\"font-size: 60px;\">+</div>","response":null,"trial_type":"html-keyboard-response","trial_index":95,"plugin_version":"2.1.0","time_elapsed":398858},{"target_group":"black","condition_label":"B_H_vs_W_L_rep16","target_direction":226,"distractor_direction":350,"session_rotation":131,"rt":-1,"response":"","correct":false,"choices":"ALL_KEYS","correct_choice":["a"],"trial_duration":2000,"flip_timestamps":[],"response_ends_trial":false,"number_of_apertures":200,"number_of_dots":[1,1,1,1,1,1,1,1,1,1,1,1,1,1,1,1,1,1,1,1,1,1,1,1,1,1,1,1,1,1,1,1,1,1,1,1,1,1,1,1,1,1,1,1,1,1,1,1,1,1,1,1,1,1,1,1,1,1,1,1,1,1,1,1,1,1,1,1,1,1,1,1,1,1,1,1,1,1,1,1,1,1,1,1,1,1,1,1,1,1,1,1,1,1,1,1,1,1,1,1,1,1,1,1,1,1,1,1,1,1,1,1,1,1,1,1,1,1,1,1,1,1,1,1,1,1,1,1,1,1,1,1,1,1,1,1,1,1,1,1,1,1,1,1,1,1,1,1,1,1,1,1,1,1,1,1,1,1,1,1,1,1,1,1,1,1,1,1,1,1,1,1,1,1,1,1,1,1,1,1,1,1,1,1,1,1,1,1,1,1,1,1,1,1,1,1,1,1,1,1],"number_of_sets":1,"coherent_direction":[350,226,226,226,226,350,226,226,226,226,350,226,226,226,226,226,226,226,226,350,350,350,226,226,226,226,350,226,350,350,226,350,226,350,350,226,226,226,226,226,350,226,350,226,350,226,350,226,226,226,226,350,350,350,350,226,226,226,350,350,350,226,226,226,350,350,350,226,226,226,226,226,350,350,226,226,226,350,350,350,350,350,350,226,350,350,226,226,226,226,226,350,350,226,350,226,226,350,350,350,350,226,350,350,226,350,350,350,350,350,350,226,226,226,350,350,350,226,226,350,226,350,350,226,350,226,350,226,350,226,350,226,226,226,226,350,350,226,226,350,226,350,350,226,226,350,350,226,350,226,350,350,350,226,350,350,350,350,226,226,226,350,350,350,350,226,226,350,350,226,226,226,350,350,350,350,350,226,350,226,350,226,350,350,350,226,350,350,226,350,226,350,226,350,350,226,226,350,350,226],"coherence":1,"opposite_coherence":0,"dot_radius":2,"dot_side_length":1,"dot_life":-1,"move_distance":1,"aperture_width":300,"aperture_height":300,"dot_color":["white","black","black","black","black","white","black","black","black","black","white","black","black","black","black","black","black","black","black","white","white","white","black","black","black","black","white","black","white","white","black","white","black","white","white","black","black","black","black","black","white","black","white","black","white","black","white","black","black","black","black","white","white","white","white","black","black","black","white","white","white","black","black","black","white","white","white","black","black","black","black","black","white","white","black","black","black","white","white","white","white","white","white","black","white","white","black","black","black","black","black","white","white","black","white","black","black","white","white","white","white","black","white","white","black","white","white","white","white","white","white","black","black","black","white","white","white","black","black","white","black","white","white","black","white","black","white","black","white","black","white","black","black","black","black","white","white","black","black","white","black","white","white","black","black","white","white","black","white","black","white","white","white","black","white","white","white","white","black","black","black","white","white","white","white","black","black","white","white","black","black","black","white","white","white","white","white","black","white","black","white","black","white","white","white","black","white","white","black","white","black","white","black","white","white","black","black","white","white","black"],"dot_shape":"circle","background_color":"#AAA","RDK_type":3,"aperture_type":2,"reinsert_type":2,"frame_rate":16.75,"frame_rate_array":[16,16,17,17,17,17,17,16,17,17,16,17,17,17,16,17,17,17,17,17,17,16,17,17,17,17,16,17,17,16,17,16,17,17,17,17,17,16,17,17,16,17,17,17,17,16,17,16,17,17,16,17,17,17,17,16,17,17,17,17,17,17,16,17,16,17,17,17,17,17,16,17,17,17,17,16,17,17,17,16,17,16,17,16,17,17,16,17,17,17,17,16,17,17,17,16,16,17,17,17,17,17,17,17,17,17,16,17,17,17,16,17,17,17,16,17,17,16,17,17],"number_of_frames":120,"aperture_center_x":768,"aperture_center_y":432,"fixation_cross":true,"fixation_cross_width":15,"fixation_cross_height":15,"fixation_cross_color":"#111","fixation_cross_thickness":1,"border":true,"border_thickness":2,"border_color":"transparent","canvas_width":1536,"canvas_height":864,"trial_type":"rdk","trial_index":96,"plugin_version":"2.0.0","time_elapsed":400860},{"rt":4120,"stimulus":"\n        <div class=\"response-container\">\n          <div class=\"response-instruction\">\n            <p>rotate the bar by using the left and right arrow keys.</p>\n            <p>when you are determined, press the Enter key.</p>\n          </div>\n          <div class=\"response-circle\">\n            <div class=\"response-fixation\"></div>\n            <div id=\"bar\" class=\"rotating-bar\"></div>\n          </div>\n        </div>\n      ","response":"Enter","trial_type":"html-keyboard-response","trial_index":97,"plugin_version":"2.1.0","time_elapsed":404981,"random_initial_angle":137,"response_angle_css":85,"response_angle_rdk":5,"angular_error_target":139,"angular_error_distractor":15,"target_direction":226,"target_group":"black","reward_points":0},{"rt":null,"stimulus":"\n          <p style=\"color: #FF3333;\">Your reward: 0 points</p>\n        ","response":null,"trial_type":"html-keyboard-response","trial_index":98,"plugin_version":"2.1.0","time_elapsed":406986},{"rt":null,"stimulus":"<div class=\"fixation\" style=\"font-size: 60px;\">+</div>","response":null,"trial_type":"html-keyboard-response","trial_index":99,"plugin_version":"2.1.0","time_elapsed":407995},{"target_group":"black","condition_label":"B_H_vs_W_L_rep24","target_direction":255,"distractor_direction":345,"session_rotation":131,"rt":-1,"response":"","correct":false,"choices":"ALL_KEYS","correct_choice":["a"],"trial_duration":2000,"flip_timestamps":[],"response_ends_trial":false,"number_of_apertures":200,"number_of_dots":[1,1,1,1,1,1,1,1,1,1,1,1,1,1,1,1,1,1,1,1,1,1,1,1,1,1,1,1,1,1,1,1,1,1,1,1,1,1,1,1,1,1,1,1,1,1,1,1,1,1,1,1,1,1,1,1,1,1,1,1,1,1,1,1,1,1,1,1,1,1,1,1,1,1,1,1,1,1,1,1,1,1,1,1,1,1,1,1,1,1,1,1,1,1,1,1,1,1,1,1,1,1,1,1,1,1,1,1,1,1,1,1,1,1,1,1,1,1,1,1,1,1,1,1,1,1,1,1,1,1,1,1,1,1,1,1,1,1,1,1,1,1,1,1,1,1,1,1,1,1,1,1,1,1,1,1,1,1,1,1,1,1,1,1,1,1,1,1,1,1,1,1,1,1,1,1,1,1,1,1,1,1,1,1,1,1,1,1,1,1,1,1,1,1,1,1,1,1,1,1],"number_of_sets":1,"coherent_direction":[255,345,345,255,345,345,255,345,345,345,255,345,255,255,345,345,255,255,255,345,255,255,345,345,345,345,255,345,255,255,345,345,345,255,255,255,345,345,345,255,255,255,255,255,345,255,345,255,345,255,255,255,345,255,255,255,345,345,345,345,255,255,255,345,345,345,255,255,255,255,255,255,255,345,255,345,345,255,255,255,255,255,255,255,345,255,255,255,255,345,255,255,255,345,345,345,255,345,345,345,345,255,255,345,255,345,255,345,345,345,255,345,255,345,345,345,255,345,255,255,345,345,255,255,255,255,255,255,345,345,255,255,345,345,345,255,255,345,255,255,345,345,255,345,345,255,345,255,345,345,345,345,255,345,345,345,345,255,345,345,345,255,255,255,345,345,345,255,255,255,255,255,345,255,255,345,345,255,255,345,345,345,345,345,345,345,345,255,345,345,345,255,345,255,255,345,345,255,345,255],"coherence":1,"opposite_coherence":0,"dot_radius":2,"dot_side_length":1,"dot_life":-1,"move_distance":1,"aperture_width":300,"aperture_height":300,"dot_color":["black","white","white","black","white","white","black","white","white","white","black","white","black","black","white","white","black","black","black","white","black","black","white","white","white","white","black","white","black","black","white","white","white","black","black","black","white","white","white","black","black","black","black","black","white","black","white","black","white","black","black","black","white","black","black","black","white","white","white","white","black","black","black","white","white","white","black","black","black","black","black","black","black","white","black","white","white","black","black","black","black","black","black","black","white","black","black","black","black","white","black","black","black","white","white","white","black","white","white","white","white","black","black","white","black","white","black","white","white","white","black","white","black","white","white","white","black","white","black","black","white","white","black","black","black","black","black","black","white","white","black","black","white","white","white","black","black","white","black","black","white","white","black","white","white","black","white","black","white","white","white","white","black","white","white","white","white","black","white","white","white","black","black","black","white","white","white","black","black","black","black","black","white","black","black","white","white","black","black","white","white","white","white","white","white","white","white","black","white","white","white","black","white","black","black","white","white","black","white","black"],"dot_shape":"circle","background_color":"#AAA","RDK_type":3,"aperture_type":2,"reinsert_type":2,"frame_rate":16.725,"frame_rate_array":[11,16,17,17,18,16,16,17,17,17,17,17,16,17,17,16,17,19,14,17,16,17,17,16,17,17,17,17,16,17,17,17,16,17,17,17,17,17,17,17,17,17,17,16,17,17,17,17,16,17,17,16,17,17,16,17,17,17,17,17,17,17,17,19,14,20,14,17,17,17,17,17,16,17,16,17,16,18,17,16,17,17,17,16,16,17,17,17,17,16,17,17,17,17,17,17,17,17,17,16,17,16,17,16,17,17,17,17,16,17,17,17,16,17,16,17,16,17,17,17],"number_of_frames":120,"aperture_center_x":768,"aperture_center_y":432,"fixation_cross":true,"fixation_cross_width":15,"fixation_cross_height":15,"fixation_cross_color":"#111","fixation_cross_thickness":1,"border":true,"border_thickness":2,"border_color":"transparent","canvas_width":1536,"canvas_height":864,"trial_type":"rdk","trial_index":100,"plugin_version":"2.0.0","time_elapsed":410001},{"rt":1293,"stimulus":"\n        <div class=\"response-container\">\n          <div class=\"response-instruction\">\n            <p>rotate the bar by using the left and right arrow keys.</p>\n            <p>when you are determined, press the Enter key.</p>\n          </div>\n          <div class=\"response-circle\">\n            <div class=\"response-fixation\"></div>\n            <div id=\"bar\" class=\"rotating-bar\"></div>\n          </div>\n        </div>\n      ","response":"Enter","trial_type":"html-keyboard-response","trial_index":101,"plugin_version":"2.1.0","time_elapsed":411295,"random_initial_angle":4,"response_angle_css":4,"response_angle_rdk":86,"angular_error_target":-169,"angular_error_distractor":101,"target_direction":255,"target_group":"black","reward_points":0},{"rt":null,"stimulus":"\n          <p style=\"color: #FF3333;\">Your reward: 0 points</p>\n        ","response":null,"trial_type":"html-keyboard-response","trial_index":102,"plugin_version":"2.1.0","time_elapsed":413299},{"rt":null,"stimulus":"<div class=\"fixation\" style=\"font-size: 60px;\">+</div>","response":null,"trial_type":"html-keyboard-response","trial_index":103,"plugin_version":"2.1.0","time_elapsed":414316},{"target_group":"white","condition_label":"W_H_vs_B_L_rep5","target_direction":154,"distractor_direction":55,"session_rotation":131,"rt":-1,"response":"","correct":false,"choices":"ALL_KEYS","correct_choice":["a"],"trial_duration":2000,"flip_timestamps":[],"response_ends_trial":false,"number_of_apertures":200,"number_of_dots":[1,1,1,1,1,1,1,1,1,1,1,1,1,1,1,1,1,1,1,1,1,1,1,1,1,1,1,1,1,1,1,1,1,1,1,1,1,1,1,1,1,1,1,1,1,1,1,1,1,1,1,1,1,1,1,1,1,1,1,1,1,1,1,1,1,1,1,1,1,1,1,1,1,1,1,1,1,1,1,1,1,1,1,1,1,1,1,1,1,1,1,1,1,1,1,1,1,1,1,1,1,1,1,1,1,1,1,1,1,1,1,1,1,1,1,1,1,1,1,1,1,1,1,1,1,1,1,1,1,1,1,1,1,1,1,1,1,1,1,1,1,1,1,1,1,1,1,1,1,1,1,1,1,1,1,1,1,1,1,1,1,1,1,1,1,1,1,1,1,1,1,1,1,1,1,1,1,1,1,1,1,1,1,1,1,1,1,1,1,1,1,1,1,1,1,1,1,1,1,1],"number_of_sets":1,"coherent_direction":[55,154,55,55,154,154,154,55,55,154,55,154,55,55,154,55,55,55,154,55,154,154,55,154,55,55,154,154,55,154,55,55,55,55,55,154,55,55,55,154,55,154,55,55,154,154,154,154,154,154,154,154,55,154,154,55,154,154,55,55,55,154,154,154,55,55,154,55,55,154,55,154,55,154,154,154,55,154,55,55,55,55,55,154,55,154,55,154,55,55,154,154,154,154,55,55,154,55,55,154,154,55,55,55,154,154,55,154,154,55,154,55,154,154,154,55,55,154,154,55,154,55,154,55,55,55,154,55,154,154,55,154,55,154,154,154,154,55,55,154,55,55,154,55,154,154,55,154,154,154,55,55,55,154,55,55,154,55,154,55,154,154,55,154,154,55,55,154,154,55,55,55,154,55,55,154,55,154,154,55,154,55,154,154,154,55,55,55,154,55,154,154,55,154,55,154,154,154,55,55],"coherence":1,"opposite_coherence":0,"dot_radius":2,"dot_side_length":1,"dot_life":-1,"move_distance":1,"aperture_width":300,"aperture_height":300,"dot_color":["black","white","black","black","white","white","white","black","black","white","black","white","black","black","white","black","black","black","white","black","white","white","black","white","black","black","white","white","black","white","black","black","black","black","black","white","black","black","black","white","black","white","black","black","white","white","white","white","white","white","white","white","black","white","white","black","white","white","black","black","black","white","white","white","black","black","white","black","black","white","black","white","black","white","white","white","black","white","black","black","black","black","black","white","black","white","black","white","black","black","white","white","white","white","black","black","white","black","black","white","white","black","black","black","white","white","black","white","white","black","white","black","white","white","white","black","black","white","white","black","white","black","white","black","black","black","white","black","white","white","black","white","black","white","white","white","white","black","black","white","black","black","white","black","white","white","black","white","white","white","black","black","black","white","black","black","white","black","white","black","white","white","black","white","white","black","black","white","white","black","black","black","white","black","black","white","black","white","white","black","white","black","white","white","white","black","black","black","white","black","white","white","black","white","black","white","white","white","black","black"],"dot_shape":"circle","background_color":"#AAA","RDK_type":3,"aperture_type":2,"reinsert_type":2,"frame_rate":16.68595041322314,"frame_rate_array":[3,17,17,16,17,17,17,17,17,16,17,17,17,16,16,17,17,17,16,17,16,17,17,17,17,17,17,16,17,16,17,17,17,17,17,17,16,18,16,17,17,16,17,17,17,17,17,17,16,17,17,17,17,17,17,16,17,17,17,17,17,17,18,16,16,17,17,16,17,17,17,16,16,17,16,17,17,17,16,17,16,17,17,16,17,17,17,17,17,17,17,16,17,17,17,17,17,17,17,16,17,17,17,17,17,17,17,17,17,17,20,13,17,17,17,17,17,17,17,17,16],"number_of_frames":121,"aperture_center_x":768,"aperture_center_y":432,"fixation_cross":true,"fixation_cross_width":15,"fixation_cross_height":15,"fixation_cross_color":"#111","fixation_cross_thickness":1,"border":true,"border_thickness":2,"border_color":"transparent","canvas_width":1536,"canvas_height":864,"trial_type":"rdk","trial_index":104,"plugin_version":"2.0.0","time_elapsed":416325},{"rt":1251,"stimulus":"\n        <div class=\"response-container\">\n          <div class=\"response-instruction\">\n            <p>rotate the bar by using the left and right arrow keys.</p>\n            <p>when you are determined, press the Enter key.</p>\n          </div>\n          <div class=\"response-circle\">\n            <div class=\"response-fixation\"></div>\n            <div id=\"bar\" class=\"rotating-bar\"></div>\n          </div>\n        </div>\n      ","response":"Enter","trial_type":"html-keyboard-response","trial_index":105,"plugin_version":"2.1.0","time_elapsed":417576,"random_initial_angle":285,"response_angle_css":272,"response_angle_rdk":178,"angular_error_target":24,"angular_error_distractor":123,"target_direction":154,"target_group":"white","reward_points":5},{"rt":null,"stimulus":"\n          <p style=\"color: #00FF00;\">Your reward: 5 points</p>\n        ","response":null,"trial_type":"html-keyboard-response","trial_index":106,"plugin_version":"2.1.0","time_elapsed":419580},{"rt":null,"stimulus":"<div class=\"fixation\" style=\"font-size: 60px;\">+</div>","response":null,"trial_type":"html-keyboard-response","trial_index":107,"plugin_version":"2.1.0","time_elapsed":420593},{"target_group":"black","condition_label":"B_H_vs_W_L_rep17","target_direction":252,"distractor_direction":349,"session_rotation":131,"rt":-1,"response":"","correct":false,"choices":"ALL_KEYS","correct_choice":["a"],"trial_duration":2000,"flip_timestamps":[],"response_ends_trial":false,"number_of_apertures":200,"number_of_dots":[1,1,1,1,1,1,1,1,1,1,1,1,1,1,1,1,1,1,1,1,1,1,1,1,1,1,1,1,1,1,1,1,1,1,1,1,1,1,1,