[{"rt":2921,"stimulus":"Welcome to the experiment. Press any key to begin.","response":"d","trial_type":"html-keyboard-response","trial_index":0,"plugin_version":"2.1.0","time_elapsed":2923},{"rt":41223,"stimulus":"\n        <div class=\"instructions-container\">\n          <h2>Instructions</h2>\n\n          <p>\n          In this experiment, you will see <strong>two Random Dot Kinematograms (RDKs)</strong> displayed simultaneously.\n          </p>\n\n          <p>\n          An RDK is a visual stimulus consisting of many small dots that move coherently in a single direction. \n          In this experiment, the dots will be either <strong>white</strong> or <strong>black</strong> \n          (see the short demo below for an example of an RDK stimulus).\n          </p>\n\n          <p>\n          On each trial, the two RDKs will move in different directions. \n          Your task is to decide <strong>which RDK appears to contain more dots</strong>.\n          </p>\n\n          <p>\n          The RDK that you judge to have more dots is called the <strong>target RDK</strong>. \n          For example, if the white RDK appears to have more dots than the black RDK, \n          you should report the motion direction of the white RDK.\n          </p>\n\n          <p>\n          After viewing the RDKs, you will rotate a bar to indicate the perceived direction of the target RDK \n          using the <strong>left</strong> and <strong>right arrow keys</strong>. \n          Press <strong>Enter</strong> when you are satisfied with your response.\n          When the bar is held down, the rotation speed increases.\n          </p>\n\n          <p>\n          You will receive points based on the <strong>accuracy of your response</strong>, \n          and your final <strong>bonus reward</strong> may depend on your overall performance. \n          Please try to respond as accurately as possible.\n          </p>\n\n          <p>\n          You will first complete <strong>16 practice trials</strong>. \n          Press the <strong>Enter</strong> key to start the practice phase.\n          </p>\n\n          <canvas id=\"instruction-demo-rdk\" width=\"200\" height=\"200\"style=\"display:block;margin:12px auto; border-radius: 50%;\"></canvas>\n        </div>\n      ","response":"Enter","trial_type":"html-keyboard-response","trial_index":1,"plugin_version":"2.1.0","time_elapsed":44146},{"rt":null,"stimulus":"<div class=\"fixation\" style=\"font-size: 60px;\">+</div>","response":null,"trial_type":"html-keyboard-response","trial_index":2,"plugin_version":"2.1.0","time_elapsed":45160},{"target_group":"white","target_index":0,"condition_label":"practice","rt":-1,"response":"","correct":false,"choices":"ALL_KEYS","correct_choice":["a"],"trial_duration":2000,"flip_timestamps":[],"response_ends_trial":false,"number_of_apertures":2,"number_of_dots":[100,55],"number_of_sets":1,"coherent_direction":[148,20],"coherence":1,"opposite_coherence":0,"dot_radius":2,"dot_side_length":1,"dot_life":-1,"move_distance":1,"aperture_width":300,"aperture_height":300,"dot_color":["white","black"],"dot_shape":"circle","background_color":"#AAA","RDK_type":3,"aperture_type":2,"reinsert_type":2,"frame_rate":8.291666666666666,"frame_rate_array":[13,8,9,8,8,9,8,8,9,8,8,8,8,8,8,9,8,8,9,8,8,9,8,8,9,8,8,9,8,9,8,8,8,8,8,8,8,9,8,8,8,9,8,8,8,8,8,9,8,8,9,9,9,8,8,8,8,8,8,8,9,8,8,9,9,8,8,8,8,9,8,8,8,8,9,8,9,8,8,9,8,9,8,8,8,8,8,8,8,9,8,8,7,9,8,9,9,8,8,8,8,8,9,8,8,9,8,8,9,8,8,8,9,8,8,9,8,9,9,8,8,9,8,8,9,8,8,8,8,8,8,9,8,9,8,8,8,9,8,8,8,9,8,8,8,8,8,9,8,8,9,8,8,8,8,8,8,9,8,8,8,8,9,9,8,8,8,8,8,8,8,8,8,9,8,8,9,8,8,9,8,8,9,9,8,8,9,8,8,9,8,8,9,8,8,8,9,8,9,8,8,8,9,9,8,8,8,8,8,8,9,8,8,8,8,9,8,8,9,8,8,9,8,8,8,8,9,8,9,8,8,9,8,8,9,8,8,8,8,9],"number_of_frames":240,"aperture_center_x":960,"aperture_center_y":540,"fixation_cross":true,"fixation_cross_width":15,"fixation_cross_height":15,"fixation_cross_color":"#111","fixation_cross_thickness":1,"border":true,"border_thickness":2,"border_color":"transparent","canvas_width":1920,"canvas_height":1080,"trial_type":"rdk","trial_index":3,"plugin_version":"2.0.0","time_elapsed":47168,"phase":"practice","target_direction":148,"distractor_direction":20},{"rt":5508,"stimulus":"\n        <div class=\"response-container\">\n          <div class=\"response-instruction\">\n            <p>rotate the bar by using the left and right arrow keys.</p>\n            <p>when you are determined, press the Enter key.</p>\n          </div>\n          <div class=\"response-circle\">\n            <div class=\"response-fixation\"></div>\n            <div id=\"bar\" class=\"rotating-bar\"></div>\n          </div>\n        </div>\n      ","response":"Enter","trial_type":"html-keyboard-response","trial_index":4,"plugin_version":"2.1.0","time_elapsed":52677,"random_initial_angle":267,"response_angle_css":292,"response_angle_rdk":158,"angular_error_target":10,"angular_error_distractor":138,"target_direction":148,"target_group":"white","reward_points":8},{"rt":null,"stimulus":"\n          <p style=\"color: #00FF00;\">Your reward: 8 points</p>\n        ","response":null,"trial_type":"html-keyboard-response","trial_index":5,"plugin_version":"2.1.0","time_elapsed":54680},{"rt":null,"stimulus":"<div class=\"fixation\" style=\"font-size: 60px;\">+</div>","response":null,"trial_type":"html-keyboard-response","trial_index":6,"plugin_version":"2.1.0","time_elapsed":55696},{"target_group":"white","target_index":0,"condition_label":"practice","rt":-1,"response":"","correct":false,"choices":"ALL_KEYS","correct_choice":["a"],"trial_duration":2000,"flip_timestamps":[],"response_ends_trial":false,"number_of_apertures":2,"number_of_dots":[100,55],"number_of_sets":1,"coherent_direction":[259,166],"coherence":1,"opposite_coherence":0,"dot_radius":2,"dot_side_length":1,"dot_life":-1,"move_distance":1,"aperture_width":300,"aperture_height":300,"dot_color":["white","black"],"dot_shape":"circle","background_color":"#AAA","RDK_type":3,"aperture_type":2,"reinsert_type":2,"frame_rate":8.305439330543933,"frame_rate_array":[18,8,9,8,8,9,8,8,8,8,8,8,9,8,8,9,8,8,9,8,8,8,8,8,8,9,8,8,8,8,9,8,8,8,8,8,9,8,8,8,8,9,8,8,9,8,8,9,8,8,8,9,8,9,8,8,8,9,8,8,8,9,8,8,8,8,9,8,8,8,9,8,8,8,8,8,9,8,8,8,9,8,8,8,8,8,9,8,8,8,9,8,8,8,8,9,8,8,8,8,9,9,9,8,8,9,9,8,8,8,8,9,9,8,8,9,8,9,8,8,8,9,8,8,8,9,8,8,8,8,8,9,8,8,8,9,8,8,8,8,8,9,8,8,8,9,8,8,8,8,9,8,8,8,9,8,9,8,8,8,9,8,8,8,9,8,8,8,8,8,9,8,8,8,9,8,8,8,8,8,9,8,8,8,8,9,9,8,8,8,9,8,8,8,9,8,8,8,8,10,7,8,8,9,8,8,8,8,8,9,8,8,8,9,8,9,8,8,9,8,9,8,9,8,9,9,8,8,8,9,8,9,8,8,9,8,8,8,9],"number_of_frames":239,"aperture_center_x":960,"aperture_center_y":540,"fixation_cross":true,"fixation_cross_width":15,"fixation_cross_height":15,"fixation_cross_color":"#111","fixation_cross_thickness":1,"border":true,"border_thickness":2,"border_color":"transparent","canvas_width":1920,"canvas_height":1080,"trial_type":"rdk","trial_index":7,"plugin_version":"2.0.0","time_elapsed":57699,"phase":"practice","target_direction":259,"distractor_direction":166},{"rt":3001,"stimulus":"\n        <div class=\"response-container\">\n          <div class=\"response-instruction\">\n            <p>rotate the bar by using the left and right arrow keys.</p>\n            <p>when you are determined, press the Enter key.</p>\n          </div>\n          <div class=\"response-circle\">\n            <div class=\"response-fixation\"></div>\n            <div id=\"bar\" class=\"rotating-bar\"></div>\n          </div>\n        </div>\n      ","response":"Enter","trial_type":"html-keyboard-response","trial_index":8,"plugin_version":"2.1.0","time_elapsed":60701,"random_initial_angle":115,"response_angle_css":140,"response_angle_rdk":310,"angular_error_target":51,"angular_error_distractor":144,"target_direction":259,"target_group":"white","reward_points":0},{"rt":null,"stimulus":"\n          <p style=\"color: #FF3333;\">Your reward: 0 points</p>\n        ","response":null,"trial_type":"html-keyboard-response","trial_index":9,"plugin_version":"2.1.0","time_elapsed":62713},{"rt":null,"stimulus":"<div class=\"fixation\" style=\"font-size: 60px;\">+</div>","response":null,"trial_type":"html-keyboard-response","trial_index":10,"plugin_version":"2.1.0","time_elapsed":63725},{"target_group":"white","target_index":0,"condition_label":"practice","rt":-1,"response":"","correct":false,"choices":"ALL_KEYS","correct_choice":["a"],"trial_duration":2000,"flip_timestamps":[],"response_ends_trial":false,"number_of_apertures":2,"number_of_dots":[100,56],"number_of_sets":1,"coherent_direction":[262,51],"coherence":1,"opposite_coherence":0,"dot_radius":2,"dot_side_length":1,"dot_life":-1,"move_distance":1,"aperture_width":300,"aperture_height":300,"dot_color":["white","black"],"dot_shape":"circle","background_color":"#AAA","RDK_type":3,"aperture_type":2,"reinsert_type":2,"frame_rate":8.345833333333333,"frame_rate_array":[14,9,8,9,9,9,8,8,9,8,9,8,8,9,8,9,8,8,8,8,9,8,8,9,8,8,9,8,8,8,9,8,8,9,8,8,9,8,8,9,8,8,8,9,8,10,7,8,8,9,8,8,9,8,8,9,8,9,8,9,9,8,8,8,8,9,8,8,9,8,8,8,9,8,8,9,8,8,9,8,8,9,8,8,8,9,8,8,9,8,9,8,8,8,9,8,8,8,9,8,8,9,8,8,9,8,8,9,8,8,8,9,8,8,9,8,8,9,8,8,9,8,9,8,8,8,9,8,8,8,9,8,8,8,9,8,9,9,8,8,8,8,8,9,8,8,9,8,8,9,10,8,8,8,8,8,9,8,8,9,8,8,9,8,8,9,8,9,8,8,8,8,9,8,8,9,8,8,9,8,8,8,10,7,8,9,8,8,8,8,8,9,8,8,9,8,8,10,7,8,8,9,8,8,9,8,8,9,8,8,8,9,9,8,8,8,8,9,8,8,9,8,8,9,8,8,8,9,8,8,9,8,8,9,8,8,9,8,8,8],"number_of_frames":240,"aperture_center_x":960,"aperture_center_y":540,"fixation_cross":true,"fixation_cross_width":15,"fixation_cross_height":15,"fixation_cross_color":"#111","fixation_cross_thickness":1,"border":true,"border_thickness":2,"border_color":"transparent","canvas_width":1920,"canvas_height":1080,"trial_type":"rdk","trial_index":11,"plugin_version":"2.0.0","time_elapsed":65734,"phase":"practice","target_direction":262,"distractor_direction":51},{"rt":1854,"stimulus":"\n        <div class=\"response-container\">\n          <div class=\"response-instruction\">\n            <p>rotate the bar by using the left and right arrow keys.</p>\n            <p>when you are determined, press the Enter key.</p>\n          </div>\n          <div class=\"response-circle\">\n            <div class=\"response-fixation\"></div>\n            <div id=\"bar\" class=\"rotating-bar\"></div>\n          </div>\n        </div>\n      ","response":"Enter","trial_type":"html-keyboard-response","trial_index":12,"plugin_version":"2.1.0","time_elapsed":67589,"random_initial_angle":48,"response_angle_css":37,"response_angle_rdk":53,"angular_error_target":151,"angular_error_distractor":2,"target_direction":262,"target_group":"white","reward_points":0},{"rt":null,"stimulus":"\n          <p style=\"color: #FF3333;\">Your reward: 0 points</p>\n        ","response":null,"trial_type":"html-keyboard-response","trial_index":13,"plugin_version":"2.1.0","time_elapsed":69603},{"rt":null,"stimulus":"<div class=\"fixation\" style=\"font-size: 60px;\">+</div>","response":null,"trial_type":"html-keyboard-response","trial_index":14,"plugin_version":"2.1.0","time_elapsed":70617},{"target_group":"white","target_index":0,"condition_label":"practice","rt":-1,"response":"","correct":false,"choices":"ALL_KEYS","correct_choice":["a"],"trial_duration":2000,"flip_timestamps":[],"response_ends_trial":false,"number_of_apertures":2,"number_of_dots":[100,50],"number_of_sets":1,"coherent_direction":[222,68],"coherence":1,"opposite_coherence":0,"dot_radius":2,"dot_side_length":1,"dot_life":-1,"move_distance":1,"aperture_width":300,"aperture_height":300,"dot_color":["white","black"],"dot_shape":"circle","background_color":"#AAA","RDK_type":3,"aperture_type":2,"reinsert_type":2,"frame_rate":8.283333333333333,"frame_rate_array":[16,8,8,9,8,8,8,8,8,9,8,8,8,9,8,8,9,8,8,8,8,8,8,8,9,8,8,8,8,9,8,8,8,8,8,8,8,8,8,9,8,8,9,8,8,9,8,9,8,9,8,8,9,8,9,8,8,8,9,8,8,8,8,8,9,8,8,8,9,8,8,9,8,8,8,9,8,8,8,8,8,9,8,8,9,8,8,9,8,8,8,8,8,8,9,8,8,9,8,8,9,9,8,8,8,9,8,8,8,8,8,8,8,9,8,9,8,8,8,8,8,8,8,9,8,9,8,8,9,9,8,8,8,8,8,8,9,8,8,9,8,8,9,8,8,8,9,8,8,9,8,8,8,8,8,9,8,8,8,8,8,9,8,8,8,8,8,8,9,8,8,9,8,8,8,8,9,8,8,8,8,9,8,8,9,8,9,8,8,8,8,9,8,8,9,8,8,9,8,8,8,8,8,8,8,8,9,9,8,8,9,8,8,9,8,8,8,8,8,8,9,8,8,9,8,8,8,9,9,8,8,8,8,9,8,9,9,8,8,9],"number_of_frames":240,"aperture_center_x":960,"aperture_center_y":540,"fixation_cross":true,"fixation_cross_width":15,"fixation_cross_height":15,"fixation_cross_color":"#111","fixation_cross_thickness":1,"border":true,"border_thickness":2,"border_color":"transparent","canvas_width":1920,"canvas_height":1080,"trial_type":"rdk","trial_index":15,"plugin_version":"2.0.0","time_elapsed":72627,"phase":"practice","target_direction":222,"distractor_direction":68},{"rt":3441,"stimulus":"\n        <div class=\"response-container\">\n          <div class=\"response-instruction\">\n            <p>rotate the bar by using the left and right arrow keys.</p>\n            <p>when you are determined, press the Enter key.</p>\n          </div>\n          <div class=\"response-circle\">\n            <div class=\"response-fixation\"></div>\n            <div id=\"bar\" class=\"rotating-bar\"></div>\n          </div>\n        </div>\n      ","response":"Enter","trial_type":"html-keyboard-response","trial_index":16,"plugin_version":"2.1.0","time_elapsed":76068,"random_initial_angle":56,"response_angle_css":218,"response_angle_rdk":232,"angular_error_target":10,"angular_error_distractor":164,"target_direction":222,"target_group":"white","reward_points":8},{"rt":null,"stimulus":"\n          <p style=\"color: #00FF00;\">Your reward: 8 points</p>\n        ","response":null,"trial_type":"html-keyboard-response","trial_index":17,"plugin_version":"2.1.0","time_elapsed":78074},{"rt":null,"stimulus":"<div class=\"fixation\" style=\"font-size: 60px;\">+</div>","response":null,"trial_type":"html-keyboard-response","trial_index":18,"plugin_version":"2.1.0","time_elapsed":79092},{"target_group":"black","target_index":1,"condition_label":"practice","rt":-1,"response":"","correct":false,"choices":"ALL_KEYS","correct_choice":["a"],"trial_duration":2000,"flip_timestamps":[],"response_ends_trial":false,"number_of_apertures":2,"number_of_dots":[60,100],"number_of_sets":1,"coherent_direction":[69,203],"coherence":1,"opposite_coherence":0,"dot_radius":2,"dot_side_length":1,"dot_life":-1,"move_distance":1,"aperture_width":300,"aperture_height":300,"dot_color":["white","black"],"dot_shape":"circle","background_color":"#AAA","RDK_type":3,"aperture_type":2,"reinsert_type":2,"frame_rate":8.2875,"frame_rate_array":[17,8,9,8,8,8,9,8,9,8,8,8,9,8,8,8,9,8,8,9,8,8,8,9,8,8,8,9,8,8,8,8,9,8,8,8,8,8,8,8,8,8,9,8,8,9,8,8,9,8,8,8,8,8,8,8,8,9,8,8,8,9,8,8,8,8,8,8,8,8,8,9,9,9,8,8,8,9,8,8,9,8,9,8,9,8,8,9,8,8,8,8,8,8,8,8,8,8,8,8,9,8,8,9,8,8,8,9,8,9,8,8,8,9,8,8,9,8,9,8,8,8,8,9,8,8,9,8,8,9,8,8,9,8,8,8,8,8,8,9,8,8,8,8,8,9,8,8,8,9,8,8,9,8,8,9,8,8,9,8,8,8,8,8,8,8,8,8,9,8,8,9,8,8,9,8,8,9,8,9,8,8,8,8,9,8,8,9,8,9,8,8,8,9,9,8,8,9,8,8,9,8,8,8,8,8,8,9,8,9,8,8,8,9,8,8,8,9,8,8,8,8,8,9,9,9,8,8,8,9,8,8,8,8,8,8,8,8,8,9],"number_of_frames":240,"aperture_center_x":960,"aperture_center_y":540,"fixation_cross":true,"fixation_cross_width":15,"fixation_cross_height":15,"fixation_cross_color":"#111","fixation_cross_thickness":1,"border":true,"border_thickness":2,"border_color":"transparent","canvas_width":1920,"canvas_height":1080,"trial_type":"rdk","trial_index":19,"plugin_version":"2.0.0","time_elapsed":81102,"phase":"practice","target_direction":203,"distractor_direction":69},{"rt":1988,"stimulus":"\n        <div class=\"response-container\">\n          <div class=\"response-instruction\">\n            <p>rotate the bar by using the left and right arrow keys.</p>\n            <p>when you are determined, press the Enter key.</p>\n          </div>\n          <div class=\"response-circle\">\n            <div class=\"response-fixation\"></div>\n            <div id=\"bar\" class=\"rotating-bar\"></div>\n          </div>\n        </div>\n      ","response":"Enter","trial_type":"html-keyboard-response","trial_index":20,"plugin_version":"2.1.0","time_elapsed":83090,"random_initial_angle":6,"response_angle_css":49,"response_angle_rdk":41,"angular_error_target":-162,"angular_error_distractor":-28,"target_direction":203,"target_group":"black","reward_points":0},{"rt":null,"stimulus":"\n          <p style=\"color: #FF3333;\">Your reward: 0 points</p>\n        ","response":null,"trial_type":"html-keyboard-response","trial_index":21,"plugin_version":"2.1.0","time_elapsed":85103},{"rt":null,"stimulus":"<div class=\"fixation\" style=\"font-size: 60px;\">+</div>","response":null,"trial_type":"html-keyboard-response","trial_index":22,"plugin_version":"2.1.0","time_elapsed":86113},{"target_group":"black","target_index":1,"condition_label":"practice","rt":-1,"response":"","correct":false,"choices":"ALL_KEYS","correct_choice":["a"],"trial_duration":2000,"flip_timestamps":[],"response_ends_trial":false,"number_of_apertures":2,"number_of_dots":[53,100],"number_of_sets":1,"coherent_direction":[273,109],"coherence":1,"opposite_coherence":0,"dot_radius":2,"dot_side_length":1,"dot_life":-1,"move_distance":1,"aperture_width":300,"aperture_height":300,"dot_color":["white","black"],"dot_shape":"circle","background_color":"#AAA","RDK_type":3,"aperture_type":2,"reinsert_type":2,"frame_rate":8.275,"frame_rate_array":[13,9,8,9,8,8,9,8,8,9,8,8,8,8,8,8,9,8,9,8,8,8,8,9,8,8,9,8,8,9,8,8,8,8,8,8,8,8,8,9,8,8,9,8,8,9,8,8,9,8,8,9,8,8,8,9,8,8,9,8,8,8,8,8,8,8,8,8,8,8,8,9,8,8,8,8,8,8,8,8,8,9,8,8,8,8,8,9,8,8,8,8,8,8,8,9,8,9,9,8,8,8,8,9,8,9,8,9,8,9,9,8,8,9,8,8,8,8,8,8,8,8,8,9,8,8,9,8,9,9,8,8,8,8,8,8,9,8,8,9,8,8,9,9,8,8,8,8,8,9,8,8,9,8,8,9,8,8,9,9,8,9,8,8,8,8,8,8,9,8,8,8,8,9,8,8,8,8,8,8,8,9,8,8,8,8,8,8,9,8,8,9,8,8,9,8,8,9,8,8,8,8,8,8,8,9,8,8,8,8,9,8,8,8,8,9,8,8,8,9,9,8,8,9,8,8,9,9,8,8,8,9,8,9,8,9,8,8,8,9],"number_of_frames":240,"aperture_center_x":960,"aperture_center_y":540,"fixation_cross":true,"fixation_cross_width":15,"fixation_cross_height":15,"fixation_cross_color":"#111","fixation_cross_thickness":1,"border":true,"border_thickness":2,"border_color":"transparent","canvas_width":1920,"canvas_height":1080,"trial_type":"rdk","trial_index":23,"plugin_version":"2.0.0","time_elapsed":88120,"phase":"practice","target_direction":109,"distractor_direction":273},{"rt":1698,"stimulus":"\n        <div class=\"response-container\">\n          <div class=\"response-instruction\">\n            <p>rotate the bar by using the left and right arrow keys.</p>\n            <p>when you are determined, press the Enter key.</p>\n          </div>\n          <div class=\"response-circle\">\n            <div class=\"response-fixation\"></div>\n            <div id=\"bar\" class=\"rotating-bar\"></div>\n          </div>\n        </div>\n      ","response":"Enter","trial_type":"html-keyboard-response","trial_index":24,"plugin_version":"2.1.0","time_elapsed":89819,"random_initial_angle":269,"response_angle_css":328,"response_angle_rdk":122,"angular_error_target":13,"angular_error_distractor":-151,"target_direction":109,"target_group":"black","reward_points":7},{"rt":null,"stimulus":"\n          <p style=\"color: #00FF00;\">Your reward: 7 points</p>\n        ","response":null,"trial_type":"html-keyboard-response","trial_index":25,"plugin_version":"2.1.0","time_elapsed":91823},{"rt":null,"stimulus":"<div class=\"fixation\" style=\"font-size: 60px;\">+</div>","response":null,"trial_type":"html-keyboard-response","trial_index":26,"plugin_version":"2.1.0","time_elapsed":92839},{"target_group":"white","target_index":0,"condition_label":"practice","rt":-1,"response":"","correct":false,"choices":"ALL_KEYS","correct_choice":["a"],"trial_duration":2000,"flip_timestamps":[],"response_ends_trial":false,"number_of_apertures":2,"number_of_dots":[100,98],"number_of_sets":1,"coherent_direction":[213,37],"coherence":1,"opposite_coherence":0,"dot_radius":2,"dot_side_length":1,"dot_life":-1,"move_distance":1,"aperture_width":300,"aperture_height":300,"dot_color":["white","black"],"dot_shape":"circle","background_color":"#AAA","RDK_type":3,"aperture_type":2,"reinsert_type":2,"frame_rate":8.2625,"frame_rate_array":[14,8,9,8,9,8,8,9,8,8,9,8,8,8,8,8,9,8,8,9,8,8,9,8,8,8,9,8,8,9,8,8,9,8,8,9,8,8,8,9,9,8,8,8,8,8,9,8,9,8,8,8,9,8,8,9,8,8,9,8,8,9,8,8,8,8,8,9,8,8,8,8,8,8,9,8,8,8,8,8,9,8,8,8,9,8,8,9,8,8,9,8,8,8,8,8,8,8,8,8,9,8,8,9,8,8,8,9,8,8,8,8,8,9,8,8,9,8,9,8,8,8,9,8,8,8,9,8,8,9,8,8,9,8,8,8,8,8,9,8,8,8,9,8,9,8,8,8,8,8,8,8,8,8,8,9,8,8,9,8,8,8,8,8,8,8,8,8,9,8,8,9,8,8,9,8,8,9,8,8,8,8,8,8,9,8,8,9,8,8,8,8,8,8,9,8,8,9,8,8,9,8,8,8,8,8,8,8,8,8,9,8,8,9,8,8,9,8,8,8,8,8,8,9,8,8,9,8,8,9,8,8,8,8,8,8,9,8,8,9],"number_of_frames":240,"aperture_center_x":960,"aperture_center_y":540,"fixation_cross":true,"fixation_cross_width":15,"fixation_cross_height":15,"fixation_cross_color":"#111","fixation_cross_thickness":1,"border":true,"border_thickness":2,"border_color":"transparent","canvas_width":1920,"canvas_height":1080,"trial_type":"rdk","trial_index":27,"plugin_version":"2.0.0","time_elapsed":94847,"phase":"practice","target_direction":213,"distractor_direction":37},{"rt":3191,"stimulus":"\n        <div class=\"response-container\">\n          <div class=\"response-instruction\">\n            <p>rotate the bar by using the left and right arrow keys.</p>\n            <p>when you are determined, press the Enter key.</p>\n          </div>\n          <div class=\"response-circle\">\n            <div class=\"response-fixation\"></div>\n            <div id=\"bar\" class=\"rotating-bar\"></div>\n          </div>\n        </div>\n      ","response":"Enter","trial_type":"html-keyboard-response","trial_index":28,"plugin_version":"2.1.0","time_elapsed":98039,"random_initial_angle":171,"response_angle_css":51,"response_angle_rdk":39,"angular_error_target":-174,"angular_error_distractor":2,"target_direction":213,"target_group":"white","reward_points":0},{"rt":null,"stimulus":"\n          <p style=\"color: #FF3333;\">Your reward: 0 points</p>\n        ","response":null,"trial_type":"html-keyboard-response","trial_index":29,"plugin_version":"2.1.0","time_elapsed":100054},{"rt":null,"stimulus":"<div class=\"fixation\" style=\"font-size: 60px;\">+</div>","response":null,"trial_type":"html-keyboard-response","trial_index":30,"plugin_version":"2.1.0","time_elapsed":101071},{"target_group":"white","target_index":0,"condition_label":"practice","rt":-1,"response":"","correct":false,"choices":"ALL_KEYS","correct_choice":["a"],"trial_duration":2000,"flip_timestamps":[],"response_ends_trial":false,"number_of_apertures":2,"number_of_dots":[100,98],"number_of_sets":1,"coherent_direction":[97,205],"coherence":1,"opposite_coherence":0,"dot_radius":2,"dot_side_length":1,"dot_life":-1,"move_distance":1,"aperture_width":300,"aperture_height":300,"dot_color":["white","black"],"dot_shape":"circle","background_color":"#AAA","RDK_type":3,"aperture_type":2,"reinsert_type":2,"frame_rate":8.270833333333334,"frame_rate_array":[16,8,8,8,8,9,9,8,8,9,8,9,8,8,8,8,9,8,8,8,8,8,8,8,8,9,8,9,9,8,8,8,9,8,8,9,8,8,9,8,9,8,8,8,8,9,8,8,9,8,8,9,8,8,8,9,8,8,8,8,8,9,8,8,9,8,8,8,8,8,8,8,8,8,8,8,8,9,8,8,9,8,8,9,8,8,8,9,8,9,8,8,8,8,8,8,8,8,8,9,8,8,8,8,8,8,8,8,8,8,8,8,8,9,8,8,9,8,8,9,8,8,9,8,8,8,8,8,8,8,8,8,9,8,8,9,8,8,8,8,8,8,8,8,9,9,8,8,9,8,8,9,8,9,8,8,8,8,9,8,8,9,8,8,9,8,8,8,9,8,8,9,8,8,9,8,9,8,8,9,8,8,8,9,8,8,8,9,8,8,9,9,8,8,8,8,8,8,8,8,9,8,8,9,8,8,9,8,8,8,8,9,8,9,8,8,8,8,8,9,8,9,8,8,8,9,8,8,8,8,8,8,9,8,8,8,8,8,8,9],"number_of_frames":240,"aperture_center_x":960,"aperture_center_y":540,"fixation_cross":true,"fixation_cross_width":15,"fixation_cross_height":15,"fixation_cross_color":"#111","fixation_cross_thickness":1,"border":true,"border_thickness":2,"border_color":"transparent","canvas_width":1920,"canvas_height":1080,"trial_type":"rdk","trial_index":31,"plugin_version":"2.0.0","time_elapsed":103081,"phase":"practice","target_direction":97,"distractor_direction":205},{"rt":2259,"stimulus":"\n        <div class=\"response-container\">\n          <div class=\"response-instruction\">\n            <p>rotate the bar by using the left and right arrow keys.</p>\n            <p>when you are determined, press the Enter key.</p>\n          </div>\n          <div class=\"response-circle\">\n            <div class=\"response-fixation\"></div>\n            <div id=\"bar\" class=\"rotating-bar\"></div>\n          </div>\n        </div>\n      ","response":"Enter","trial_type":"html-keyboard-response","trial_index":32,"plugin_version":"2.1.0","time_elapsed":105341,"random_initial_angle":257,"response_angle_css":374,"response_angle_rdk":76,"angular_error_target":-21,"angular_error_distractor":-129,"target_direction":97,"target_group":"white","reward_points":5},{"rt":null,"stimulus":"\n          <p style=\"color: #00FF00;\">Your reward: 5 points</p>\n        ","response":null,"trial_type":"html-keyboard-response","trial_index":33,"plugin_version":"2.1.0","time_elapsed":107348},{"rt":null,"stimulus":"<div class=\"fixation\" style=\"font-size: 60px;\">+</div>","response":null,"trial_type":"html-keyboard-response","trial_index":34,"plugin_version":"2.1.0","time_elapsed":108350},{"target_group":"black","target_index":1,"condition_label":"practice","rt":-1,"response":"","correct":false,"choices":"ALL_KEYS","correct_choice":["a"],"trial_duration":2000,"flip_timestamps":[],"response_ends_trial":false,"number_of_apertures":2,"number_of_dots":[99,100],"number_of_sets":1,"coherent_direction":[316,152],"coherence":1,"opposite_coherence":0,"dot_radius":2,"dot_side_length":1,"dot_life":-1,"move_distance":1,"aperture_width":300,"aperture_height":300,"dot_color":["white","black"],"dot_shape":"circle","background_color":"#AAA","RDK_type":3,"aperture_type":2,"reinsert_type":2,"frame_rate":8.304166666666667,"frame_rate_array":[14,8,9,8,8,9,8,8,9,8,8,9,8,8,9,9,8,8,8,8,8,9,8,9,9,8,8,9,8,8,9,8,9,9,8,8,8,8,8,8,8,9,8,9,8,8,9,9,8,8,8,8,8,8,8,8,9,8,8,9,8,8,8,8,8,8,8,8,8,9,8,8,9,8,8,8,9,8,8,8,8,8,9,8,8,9,8,8,8,9,9,8,8,8,8,8,9,8,9,8,8,8,8,9,8,8,8,9,9,9,8,9,8,8,8,9,8,9,8,8,8,8,8,9,8,8,8,9,8,8,9,8,8,9,8,8,8,9,8,8,9,8,8,9,8,8,8,8,8,8,9,8,9,9,8,8,9,8,8,9,8,8,8,9,8,8,9,8,8,9,8,8,8,8,8,8,8,8,8,9,8,8,9,8,9,9,8,8,8,9,8,8,8,8,8,9,8,8,9,8,8,8,9,8,8,9,8,8,8,8,8,9,8,8,9,8,8,8,8,8,8,8,8,8,9,8,8,9,8,9,9,8,8,8,9,8,8,9,8,8],"number_of_frames":240,"aperture_center_x":960,"aperture_center_y":540,"fixation_cross":true,"fixation_cross_width":15,"fixation_cross_height":15,"fixation_cross_color":"#111","fixation_cross_thickness":1,"border":true,"border_thickness":2,"border_color":"transparent","canvas_width":1920,"canvas_height":1080,"trial_type":"rdk","trial_index":35,"plugin_version":"2.0.0","time_elapsed":110356,"phase":"practice","target_direction":152,"distractor_direction":316},{"rt":4201,"stimulus":"\n        <div class=\"response-container\">\n          <div class=\"response-instruction\">\n            <p>rotate the bar by using the left and right arrow keys.</p>\n            <p>when you are determined, press the Enter key.</p>\n          </div>\n          <div class=\"response-circle\">\n            <div class=\"response-fixation\"></div>\n            <div id=\"bar\" class=\"rotating-bar\"></div>\n          </div>\n        </div>\n      ","response":"Enter","trial_type":"html-keyboard-response","trial_index":36,"plugin_version":"2.1.0","time_elapsed":114558,"random_initial_angle":161,"response_angle_css":306,"response_angle_rdk":144,"angular_error_target":-8,"angular_error_distractor":-172,"target_direction":152,"target_group":"black","reward_points":8},{"rt":null,"stimulus":"\n          <p style=\"color: #00FF00;\">Your reward: 8 points</p>\n        ","response":null,"trial_type":"html-keyboard-response","trial_index":37,"plugin_version":"2.1.0","time_elapsed":116570},{"rt":null,"stimulus":"<div class=\"fixation\" style=\"font-size: 60px;\">+</div>","response":null,"trial_type":"html-keyboard-response","trial_index":38,"plugin_version":"2.1.0","time_elapsed":117575},{"target_group":"black","target_index":1,"condition_label":"practice","rt":-1,"response":"","correct":false,"choices":"ALL_KEYS","correct_choice":["a"],"trial_duration":2000,"flip_timestamps":[],"response_ends_trial":false,"number_of_apertures":2,"number_of_dots":[93,100],"number_of_sets":1,"coherent_direction":[80,252],"coherence":1,"opposite_coherence":0,"dot_radius":2,"dot_side_length":1,"dot_life":-1,"move_distance":1,"aperture_width":300,"aperture_height":300,"dot_color":["white","black"],"dot_shape":"circle","background_color":"#AAA","RDK_type":3,"aperture_type":2,"reinsert_type":2,"frame_rate":8.279166666666667,"frame_rate_array":[13,8,9,8,8,8,8,8,9,8,8,9,8,8,8,9,8,8,8,8,9,8,8,8,9,8,8,9,8,8,8,8,8,8,8,9,9,8,8,8,9,8,8,9,8,8,8,8,8,9,9,8,8,9,8,8,9,8,8,8,8,8,8,9,8,8,9,8,8,9,8,8,8,8,8,8,8,8,8,8,8,8,9,8,8,9,8,9,8,8,8,8,9,8,8,9,8,9,8,8,8,8,8,8,8,9,8,8,9,8,8,9,9,9,8,9,8,8,8,8,8,8,8,8,9,8,8,9,8,8,8,8,8,8,9,8,8,9,8,8,9,8,9,8,8,8,8,9,8,8,9,8,8,9,8,8,8,9,8,8,8,8,8,9,8,8,9,8,8,9,8,9,9,9,8,8,9,8,8,9,8,8,9,8,8,9,8,8,8,9,8,8,9,8,8,9,8,8,8,8,8,8,9,8,8,9,8,8,9,8,8,9,8,8,8,8,8,8,9,8,8,9,8,8,8,8,8,8,8,8,8,8,8,8,9,8,8,9,8,9],"number_of_frames":240,"aperture_center_x":960,"aperture_center_y":540,"fixation_cross":true,"fixation_cross_width":15,"fixation_cross_height":15,"fixation_cross_color":"#111","fixation_cross_thickness":1,"border":true,"border_thickness":2,"border_color":"transparent","canvas_width":1920,"canvas_height":1080,"trial_type":"rdk","trial_index":39,"plugin_version":"2.0.0","time_elapsed":119582,"phase":"practice","target_direction":252,"distractor_direction":80},{"rt":1807,"stimulus":"\n        <div class=\"response-container\">\n          <div class=\"response-instruction\">\n            <p>rotate the bar by using the left and right arrow keys.</p>\n            <p>when you are determined, press the Enter key.</p>\n          </div>\n          <div class=\"response-circle\">\n            <div class=\"response-fixation\"></div>\n            <div id=\"bar\" class=\"rotating-bar\"></div>\n          </div>\n        </div>\n      ","response":"Enter","trial_type":"html-keyboard-response","trial_index":40,"plugin_version":"2.1.0","time_elapsed":121390,"random_initial_angle":269,"response_angle_css":200,"response_angle_rdk":250,"angular_error_target":-2,"angular_error_distractor":170,"target_direction":252,"target_group":"black","reward_points":9},{"rt":null,"stimulus":"\n          <p style=\"color: #00FF00;\">Your reward: 9 points</p>\n        ","response":null,"trial_type":"html-keyboard-response","trial_index":41,"plugin_version":"2.1.0","time_elapsed":123402},{"rt":null,"stimulus":"<div class=\"fixation\" style=\"font-size: 60px;\">+</div>","response":null,"trial_type":"html-keyboard-response","trial_index":42,"plugin_version":"2.1.0","time_elapsed":124419},{"target_group":"black","target_index":1,"condition_label":"practice","rt":-1,"response":"","correct":false,"choices":"ALL_KEYS","correct_choice":["a"],"trial_duration":2000,"flip_timestamps":[],"response_ends_trial":false,"number_of_apertures":2,"number_of_dots":[62,100],"number_of_sets":1,"coherent_direction":[318,135],"coherence":1,"opposite_coherence":0,"dot_radius":2,"dot_side_length":1,"dot_life":-1,"move_distance":1,"aperture_width":300,"aperture_height":300,"dot_color":["white","black"],"dot_shape":"circle","background_color":"#AAA","RDK_type":3,"aperture_type":2,"reinsert_type":2,"frame_rate":8.297071129707113,"frame_rate_array":[12,8,17,8,8,8,9,9,8,8,8,8,9,8,8,9,8,8,9,8,8,8,8,8,8,9,8,8,8,8,8,8,9,8,8,8,9,9,8,8,8,9,8,8,9,8,8,8,9,8,8,9,8,9,8,8,8,9,8,8,8,8,8,8,8,8,9,8,8,8,9,8,8,9,8,8,8,8,8,8,8,9,7,9,8,8,9,8,8,9,8,8,8,9,8,8,9,8,8,8,8,8,8,8,8,8,8,8,8,8,8,8,9,9,8,9,8,8,8,8,8,8,9,8,8,9,9,8,9,7,8,8,8,8,8,8,8,8,9,8,8,9,8,9,8,8,8,9,8,8,8,9,9,8,9,8,8,9,9,8,8,8,8,8,9,8,8,9,8,8,9,8,8,8,8,8,8,9,8,8,9,8,8,9,8,8,9,8,9,8,9,8,8,9,8,8,9,8,8,9,8,8,8,9,8,8,8,8,9,8,8,8,9,8,8,9,8,8,9,8,8,8,8,8,8,9,8,8,9,8,8,8,8,8,8,8,8,8,9],"number_of_frames":239,"aperture_center_x":960,"aperture_center_y":540,"fixation_cross":true,"fixation_cross_width":15,"fixation_cross_height":15,"fixation_cross_color":"#111","fixation_cross_thickness":1,"border":true,"border_thickness":2,"border_color":"transparent","canvas_width":1920,"canvas_height":1080,"trial_type":"rdk","trial_index":43,"plugin_version":"2.0.0","time_elapsed":126425,"phase":"practice","target_direction":135,"distractor_direction":318},{"rt":2669,"stimulus":"\n        <div class=\"response-container\">\n          <div class=\"response-instruction\">\n            <p>rotate the bar by using the left and right arrow keys.</p>\n            <p>when you are determined, press the Enter key.</p>\n          </div>\n          <div class=\"response-circle\">\n            <div class=\"response-fixation\"></div>\n            <div id=\"bar\" class=\"rotating-bar\"></div>\n          </div>\n        </div>\n      ","response":"Enter","trial_type":"html-keyboard-response","trial_index":44,"plugin_version":"2.1.0","time_elapsed":129094,"random_initial_angle":157,"response_angle_css":315,"response_angle_rdk":135,"angular_error_target":0,"angular_error_distractor":177,"target_direction":135,"target_group":"black","reward_points":10},{"rt":null,"stimulus":"\n          <p style=\"color: #00FF00;\">Your reward: 10 points</p>\n        ","response":null,"trial_type":"html-keyboard-response","trial_index":45,"plugin_version":"2.1.0","time_elapsed":131102},{"rt":null,"stimulus":"<div class=\"fixation\" style=\"font-size: 60px;\">+</div>","response":null,"trial_type":"html-keyboard-response","trial_index":46,"plugin_version":"2.1.0","time_elapsed":132119},{"target_group":"black","target_index":1,"condition_label":"practice","rt":-1,"response":"","correct":false,"choices":"ALL_KEYS","correct_choice":["a"],"trial_duration":2000,"flip_timestamps":[],"response_ends_trial":false,"number_of_apertures":2,"number_of_dots":[65,100],"number_of_sets":1,"coherent_direction":[148,302],"coherence":1,"opposite_coherence":0,"dot_radius":2,"dot_side_length":1,"dot_life":-1,"move_distance":1,"aperture_width":300,"aperture_height":300,"dot_color":["white","black"],"dot_shape":"circle","background_color":"#AAA","RDK_type":3,"aperture_type":2,"reinsert_type":2,"frame_rate":8.270833333333334,"frame_rate_array":[14,8,8,9,8,8,8,8,9,8,8,8,9,8,8,9,8,8,8,8,8,9,8,9,8,9,8,8,9,8,8,8,8,8,8,9,8,8,8,8,8,8,8,8,9,8,8,8,8,8,8,9,8,8,9,8,9,8,8,8,8,8,8,8,8,8,8,9,8,8,9,8,8,9,8,9,8,9,8,8,9,8,8,9,8,8,9,8,8,8,8,8,8,8,8,8,9,8,8,9,8,9,9,8,8,8,9,8,8,9,8,8,9,8,8,8,8,8,8,8,8,8,9,8,8,9,8,8,9,8,8,8,8,8,8,9,8,8,9,8,8,9,8,9,8,9,8,8,8,8,8,9,8,8,9,8,8,9,8,9,8,8,8,8,8,8,8,9,8,8,9,8,8,8,8,8,8,8,9,8,8,8,8,9,8,8,8,9,8,9,8,8,8,9,8,8,9,8,8,8,8,8,9,8,9,8,9,8,8,9,8,8,9,8,8,8,8,8,9,9,8,9,8,9,8,8,8,8,8,8,8,8,8,8,8,9,8,8,9,8],"number_of_frames":240,"aperture_center_x":960,"aperture_center_y":540,"fixation_cross":true,"fixation_cross_width":15,"fixation_cross_height":15,"fixation_cross_color":"#111","fixation_cross_thickness":1,"border":true,"border_thickness":2,"border_color":"transparent","canvas_width":1920,"canvas_height":1080,"trial_type":"rdk","trial_index":47,"plugin_version":"2.0.0","time_elapsed":134126,"phase":"practice","target_direction":302,"distractor_direction":148},{"rt":3471,"stimulus":"\n        <div class=\"response-container\">\n          <div class=\"response-instruction\">\n            <p>rotate the bar by using the left and right arrow keys.</p>\n            <p>when you are determined, press the Enter key.</p>\n          </div>\n          <div class=\"response-circle\">\n            <div class=\"response-fixation\"></div>\n            <div id=\"bar\" class=\"rotating-bar\"></div>\n          </div>\n        </div>\n      ","response":"Enter","trial_type":"html-keyboard-response","trial_index":48,"plugin_version":"2.1.0","time_elapsed":137597,"random_initial_angle":130,"response_angle_css":-49,"response_angle_rdk":139,"angular_error_target":-163,"angular_error_distractor":-9,"target_direction":302,"target_group":"black","reward_points":0},{"rt":null,"stimulus":"\n          <p style=\"color: #FF3333;\">Your reward: 0 points</p>\n        ","response":null,"trial_type":"html-keyboard-response","trial_index":49,"plugin_version":"2.1.0","time_elapsed":139606},{"rt":null,"stimulus":"<div class=\"fixation\" style=\"font-size: 60px;\">+</div>","response":null,"trial_type":"html-keyboard-response","trial_index":50,"plugin_version":"2.1.0","time_elapsed":140619},{"target_group":"white","target_index":0,"condition_label":"practice","rt":-1,"response":"","correct":false,"choices":"ALL_KEYS","correct_choice":["a"],"trial_duration":2000,"flip_timestamps":[],"response_ends_trial":false,"number_of_apertures":2,"number_of_dots":[100,77],"number_of_sets":1,"coherent_direction":[79,270],"coherence":1,"opposite_coherence":0,"dot_radius":2,"dot_side_length":1,"dot_life":-1,"move_distance":1,"aperture_width":300,"aperture_height":300,"dot_color":["white","black"],"dot_shape":"circle","background_color":"#AAA","RDK_type":3,"aperture_type":2,"reinsert_type":2,"frame_rate":8.283333333333333,"frame_rate_array":[13,9,8,9,8,9,8,8,8,9,8,8,9,8,8,9,8,8,8,8,8,8,8,8,9,8,8,8,8,8,8,9,8,8,8,8,9,8,9,8,9,9,8,8,9,8,8,8,8,8,8,9,8,8,9,8,8,9,8,8,9,8,8,8,8,8,9,9,8,8,9,8,8,9,8,8,8,8,8,8,9,8,8,9,8,8,9,8,8,9,8,9,8,8,8,8,9,8,8,9,8,9,8,8,8,8,8,8,8,9,8,8,9,8,8,9,8,9,8,8,8,8,9,8,8,9,8,8,9,8,8,9,8,8,8,9,8,8,9,8,8,9,8,9,8,8,8,8,8,8,8,9,8,8,9,8,8,9,8,9,9,8,8,8,8,8,8,9,8,8,9,8,8,8,8,8,8,8,8,8,9,8,8,9,8,8,8,8,8,9,8,8,8,9,8,8,8,9,8,8,8,8,8,8,8,9,9,8,8,9,8,8,9,8,8,8,8,8,8,9,8,9,8,8,8,9,8,8,9,8,8,8,9,8,8,8,8,8,9,8],"number_of_frames":240,"aperture_center_x":960,"aperture_center_y":540,"fixation_cross":true,"fixation_cross_width":15,"fixation_cross_height":15,"fixation_cross_color":"#111","fixation_cross_thickness":1,"border":true,"border_thickness":2,"border_color":"transparent","canvas_width":1920,"canvas_height":1080,"trial_type":"rdk","trial_index":51,"plugin_version":"2.0.0","time_elapsed":142626,"phase":"practice","target_direction":79,"distractor_direction":270},{"rt":2360,"stimulus":"\n        <div class=\"response-container\">\n          <div class=\"response-instruction\">\n            <p>rotate the bar by using the left and right arrow keys.</p>\n            <p>when you are determined, press the Enter key.</p>\n          </div>\n          <div class=\"response-circle\">\n            <div class=\"response-fixation\"></div>\n            <div id=\"bar\" class=\"rotating-bar\"></div>\n          </div>\n        </div>\n      ","response":"Enter","trial_type":"html-keyboard-response","trial_index":52,"plugin_version":"2.1.0","time_elapsed":144987,"random_initial_angle":318,"response_angle_css":526,"response_angle_rdk":284,"angular_error_target":-155,"angular_error_distractor":14,"target_direction":79,"target_group":"white","reward_points":0},{"rt":null,"stimulus":"\n          <p style=\"color: #FF3333;\">Your reward: 0 points</p>\n        ","response":null,"trial_type":"html-keyboard-response","trial_index":53,"plugin_version":"2.1.0","time_elapsed":147000},{"rt":null,"stimulus":"<div class=\"fixation\" style=\"font-size: 60px;\">+</div>","response":null,"trial_type":"html-keyboard-response","trial_index":54,"plugin_version":"2.1.0","time_elapsed":148017},{"target_group":"white","target_index":0,"condition_label":"practice","rt":-1,"response":"","correct":false,"choices":"ALL_KEYS","correct_choice":["a"],"trial_duration":2000,"flip_timestamps":[],"response_ends_trial":false,"number_of_apertures":2,"number_of_dots":[100,94],"number_of_sets":1,"coherent_direction":[165,271],"coherence":1,"opposite_coherence":0,"dot_radius":2,"dot_side_length":1,"dot_life":-1,"move_distance":1,"aperture_width":300,"aperture_height":300,"dot_color":["white","black"],"dot_shape":"circle","background_color":"#AAA","RDK_type":3,"aperture_type":2,"reinsert_type":2,"frame_rate":8.2625,"frame_rate_array":[16,9,9,8,8,9,8,8,8,8,8,8,8,8,8,9,8,8,9,9,8,8,8,8,8,8,8,8,8,8,8,9,8,8,9,8,8,9,8,8,8,8,8,8,9,8,8,9,8,8,9,8,8,8,8,8,8,8,8,8,8,8,8,9,8,8,9,8,8,8,8,8,8,9,8,8,9,8,8,9,8,8,8,8,8,8,9,8,8,9,8,8,9,8,8,8,9,8,8,9,8,8,8,8,8,9,8,9,8,8,9,8,8,8,8,9,8,8,9,8,8,8,9,8,8,8,9,8,8,8,8,9,8,8,9,8,8,8,8,8,8,9,8,8,9,8,8,9,8,8,8,8,8,8,8,8,9,8,8,8,9,8,8,8,8,8,9,8,8,8,9,9,8,8,8,8,8,8,9,8,8,8,8,9,8,8,8,8,8,9,9,8,8,8,8,8,8,8,8,9,8,8,9,8,9,8,8,8,8,9,8,8,9,8,8,9,8,8,9,8,8,8,8,8,8,9,8,8,9,8,8,9,8,9,8,8,8,9,8,8],"number_of_frames":240,"aperture_center_x":960,"aperture_center_y":540,"fixation_cross":true,"fixation_cross_width":15,"fixation_cross_height":15,"fixation_cross_color":"#111","fixation_cross_thickness":1,"border":true,"border_thickness":2,"border_color":"transparent","canvas_width":1920,"canvas_height":1080,"trial_type":"rdk","trial_index":55,"plugin_version":"2.0.0","time_elapsed":150027,"phase":"practice","target_direction":165,"distractor_direction":271},{"rt":3135,"stimulus":"\n        <div class=\"response-container\">\n          <div class=\"response-instruction\">\n            <p>rotate the bar by using the left and right arrow keys.</p>\n            <p>when you are determined, press the Enter key.</p>\n          </div>\n          <div class=\"response-circle\">\n            <div class=\"response-fixation\"></div>\n            <div id=\"bar\" class=\"rotating-bar\"></div>\n          </div>\n        </div>\n      ","response":"Enter","trial_type":"html-keyboard-response","trial_index":56,"plugin_version":"2.1.0","time_elapsed":153163,"random_initial_angle":321,"response_angle_css":521,"response_angle_rdk":289,"angular_error_target":124,"angular_error_distractor":18,"target_direction":165,"target_group":"white","reward_points":0},{"rt":null,"stimulus":"\n          <p style=\"color: #FF3333;\">Your reward: 0 points</p>\n        ","response":null,"trial_type":"html-keyboard-response","trial_index":57,"plugin_version":"2.1.0","time_elapsed":155175},{"rt":null,"stimulus":"<div class=\"fixation\" style=\"font-size: 60px;\">+</div>","response":null,"trial_type":"html-keyboard-response","trial_index":58,"plugin_version":"2.1.0","time_elapsed":156183},{"target_group":"black","target_index":1,"condition_label":"practice","rt":-1,"response":"","correct":false,"choices":"ALL_KEYS","correct_choice":["a"],"trial_duration":2000,"flip_timestamps":[],"response_ends_trial":false,"number_of_apertures":2,"number_of_dots":[95,100],"number_of_sets":1,"coherent_direction":[288,20],"coherence":1,"opposite_coherence":0,"dot_radius":2,"dot_side_length":1,"dot_life":-1,"move_distance":1,"aperture_width":300,"aperture_height":300,"dot_color":["white","black"],"dot_shape":"circle","background_color":"#AAA","RDK_type":3,"aperture_type":2,"reinsert_type":2,"frame_rate":8.275,"frame_rate_array":[11,8,8,9,9,8,8,9,8,8,8,8,8,9,8,8,9,9,8,8,9,8,8,8,9,8,9,8,8,8,9,8,8,9,8,8,8,8,8,8,9,8,8,9,8,9,8,8,8,9,8,8,9,8,9,8,8,9,9,8,8,8,9,8,8,9,8,8,8,9,8,8,8,8,8,9,8,8,9,8,8,8,8,8,8,9,8,8,9,8,8,9,8,8,8,8,8,8,8,8,9,9,8,8,9,8,8,8,9,8,8,9,8,8,9,8,8,7,9,8,9,8,8,9,8,9,8,8,8,9,9,8,8,9,8,9,8,9,8,8,8,8,8,8,8,8,9,8,8,9,8,8,8,8,9,8,8,8,8,9,8,8,9,8,8,8,8,8,8,9,8,8,9,8,8,9,8,8,8,8,8,8,9,8,8,9,8,8,9,8,9,9,8,8,8,9,8,9,9,8,8,8,8,8,9,8,8,8,8,8,8,8,9,8,9,8,8,8,8,8,8,8,8,8,9,8,8,9,8,8,8,8,8,8,8,8,8,8,8,9],"number_of_frames":240,"aperture_center_x":960,"aperture_center_y":540,"fixation_cross":true,"fixation_cross_width":15,"fixation_cross_height":15,"fixation_cross_color":"#111","fixation_cross_thickness":1,"border":true,"border_thickness":2,"border_color":"transparent","canvas_width":1920,"canvas_height":1080,"trial_type":"rdk","trial_index":59,"plugin_version":"2.0.0","time_elapsed":158186,"phase":"practice","target_direction":20,"distractor_direction":288},{"rt":2354,"stimulus":"\n        <div class=\"response-container\">\n          <div class=\"response-instruction\">\n            <p>rotate the bar by using the left and right arrow keys.</p>\n            <p>when you are determined, press the Enter key.</p>\n          </div>\n          <div class=\"response-circle\">\n            <div class=\"response-fixation\"></div>\n            <div id=\"bar\" class=\"rotating-bar\"></div>\n          </div>\n        </div>\n      ","response":"Enter","trial_type":"html-keyboard-response","trial_index":60,"plugin_version":"2.1.0","time_elapsed":160541,"random_initial_angle":160,"response_angle_css":62,"response_angle_rdk":28,"angular_error_target":8,"angular_error_distractor":100,"target_direction":20,"target_group":"black","reward_points":8},{"rt":null,"stimulus":"\n          <p style=\"color: #00FF00;\">Your reward: 8 points</p>\n        ","response":null,"trial_type":"html-keyboard-response","trial_index":61,"plugin_version":"2.1.0","time_elapsed":162550},{"rt":null,"stimulus":"<div class=\"fixation\" style=\"font-size: 60px;\">+</div>","response":null,"trial_type":"html-keyboard-response","trial_index":62,"plugin_version":"2.1.0","time_elapsed":163555},{"target_group":"black","target_index":1,"condition_label":"practice","rt":-1,"response":"","correct":false,"choices":"ALL_KEYS","correct_choice":["a"],"trial_duration":2000,"flip_timestamps":[],"response_ends_trial":false,"number_of_apertures":2,"number_of_dots":[58,100],"number_of_sets":1,"coherent_direction":[10,256],"coherence":1,"opposite_coherence":0,"dot_radius":2,"dot_side_length":1,"dot_life":-1,"move_distance":1,"aperture_width":300,"aperture_height":300,"dot_color":["white","black"],"dot_shape":"circle","background_color":"#AAA","RDK_type":3,"aperture_type":2,"reinsert_type":2,"frame_rate":8.263598326359833,"frame_rate_array":[14,9,17,8,8,8,8,8,8,8,8,8,9,8,8,9,8,8,8,8,8,8,9,8,8,8,8,8,9,8,8,8,8,9,8,8,8,8,8,8,9,9,8,8,8,9,8,8,8,8,8,8,8,8,9,8,8,9,8,8,8,8,8,8,8,8,8,9,8,8,9,8,8,8,8,8,8,8,8,8,8,8,8,9,8,9,9,8,8,8,8,8,8,9,8,8,9,8,8,9,8,8,9,8,8,8,8,8,8,9,8,8,9,8,8,8,8,8,8,8,8,8,8,8,9,8,8,8,9,8,8,8,8,8,8,9,8,8,9,8,8,9,8,8,8,8,8,8,8,8,8,9,8,8,9,8,8,8,8,8,8,9,8,9,8,8,8,9,8,8,8,8,8,9,8,8,8,9,8,8,9,8,8,8,9,8,8,8,8,8,8,8,8,9,9,8,8,8,8,8,8,8,8,9,8,8,9,8,8,9,8,8,9,8,8,8,8,8,8,9,8,8,9,8,9,9,8,8,8,8,8,8,8,8,8,9,8,8,9],"number_of_frames":239,"aperture_center_x":960,"aperture_center_y":540,"fixation_cross":true,"fixation_cross_width":15,"fixation_cross_height":15,"fixation_cross_color":"#111","fixation_cross_thickness":1,"border":true,"border_thickness":2,"border_color":"transparent","canvas_width":1920,"canvas_height":1080,"trial_type":"rdk","trial_index":63,"plugin_version":"2.0.0","time_elapsed":165562,"phase":"practice","target_direction":256,"distractor_direction":10},{"rt":2283,"stimulus":"\n        <div class=\"response-container\">\n          <div class=\"response-instruction\">\n            <p>rotate the bar by using the left and right arrow keys.</p>\n            <p>when you are determined, press the Enter key.</p>\n          </div>\n          <div class=\"response-circle\">\n            <div class=\"response-fixation\"></div>\n            <div id=\"bar\" class=\"rotating-bar\"></div>\n          </div>\n        </div>\n      ","response":"Enter","trial_type":"html-keyboard-response","trial_index":64,"plugin_version":"2.1.0","time_elapsed":167847,"random_initial_angle":104,"response_angle_css":208,"response_angle_rdk":242,"angular_error_target":-14,"angular_error_distractor":-128,"target_direction":256,"target_group":"black","reward_points":7},{"rt":null,"stimulus":"\n          <p style=\"color: #00FF00;\">Your reward: 7 points</p>\n        ","response":null,"trial_type":"html-keyboard-response","trial_index":65,"plugin_version":"2.1.0","time_elapsed":169854},{"rt":3026,"stimulus":"\n        <div class=\"instructions-container\">\n          <h2>End of Practice</h2>\n          <p>You have completed the practice trials.</p>\n          <p>Press <strong>Enter</strong> key to begin the main experiment.</p>\n        </div>\n      ","response":"Enter","trial_type":"html-keyboard-response","trial_index":66,"plugin_version":"2.1.0","time_elapsed":172881},{"rt":null,"stimulus":"<div class=\"fixation\" style=\"font-size: 60px;\">+</div>","response":null,"trial_type":"html-keyboard-response","trial_index":67,"plugin_version":"2.1.0","time_elapsed":173886},{"phase":"learning-awareness","target_group":"white","condition_label":"W_H_vs_B_L_rep23","target_direction":158,"distractor_direction":55,"session_rotation":115,"rt":-1,"response":"","correct":false,"choices":"ALL_KEYS","correct_choice":["a"],"trial_duration":2000,"flip_timestamps":[],"response_ends_trial":false,"number_of_apertures":200,"number_of_dots":[1,1,1,1,1,1,1,1,1,1,1,1,1,1,1,1,1,1,1,1,1,1,1,1,1,1,1,1,1,1,1,1,1,1,1,1,1,1,1,1,1,1,1,1,1,1,1,1,1,1,1,1,1,1,1,1,1,1,1,1,1,1,1,1,1,1,1,1,1,1,1,1,1,1,1,1,1,1,1,1,1,1,1,1,1,1,1,1,1,1,1,1,1,1,1,1,1,1,1,1,1,1,1,1,1,1,1,1,1,1,1,1,1,1,1,1,1,1,1,1,1,1,1,1,1,1,1,1,1,1,1,1,1,1,1,1,1,1,1,1,1,1,1,1,1,1,1,1,1,1,1,1,1,1,1,1,1,1,1,1,1,1,1,1,1,1,1,1,1,1,1,1,1,1,1,1,1,1,1,1,1,1,1,1,1,1,1,1,1,1,1,1,1,1,1,1,1,1,1,1],"number_of_sets":1,"coherent_direction":[55,158,158,158,55,55,55,158,55,158,55,158,55,158,158,55,55,158,55,55,55,158,55,158,158,55,158,55,158,55,158,158,55,158,55,55,158,55,55,55,55,55,158,55,55,158,158,158,55,158,55,55,158,158,158,158,55,158,55,158,158,158,55,158,158,55,55,55,158,158,55,55,55,55,55,55,55,55,55,158,158,158,158,55,55,55,158,158,55,158,55,158,158,55,55,55,158,158,158,158,158,158,158,158,158,158,55,158,158,55,55,158,158,158,55,158,158,158,158,158,55,158,55,55,158,55,55,55,158,158,158,55,55,55,158,158,55,55,158,158,158,158,158,55,158,55,158,55,158,55,158,158,55,158,158,158,55,158,158,158,55,55,55,55,55,55,55,55,158,158,55,55,158,55,158,158,55,55,158,55,55,55,158,55,55,158,55,158,55,158,55,55,158,55,55,158,158,55,55,55],"coherence":1,"opposite_coherence":0,"dot_radius":2,"dot_side_length":1,"dot_life":-1,"move_distance":1,"aperture_width":300,"aperture_height":300,"dot_color":["black","white","white","white","black","black","black","white","black","white","black","white","black","white","white","black","black","white","black","black","black","white","black","white","white","black","white","black","white","black","white","white","black","white","black","black","white","black","black","black","black","black","white","black","black","white","white","white","black","white","black","black","white","white","white","white","black","white","black","white","white","white","black","white","white","black","black","black","white","white","black","black","black","black","black","black","black","black","black","white","white","white","white","black","black","black","white","white","black","white","black","white","white","black","black","black","white","white","white","white","white","white","white","white","white","white","black","white","white","black","black","white","white","white","black","white","white","white","white","white","black","white","black","black","white","black","black","black","white","white","white","black","black","black","white","white","black","black","white","white","white","white","white","black","white","black","white","black","white","black","white","white","black","white","white","white","black","white","white","white","black","black","black","black","black","black","black","black","white","white","black","black","white","black","white","white","black","black","white","black","black","black","white","black","black","white","black","white","black","white","black","black","white","black","black","white","white","black","black","black"],"dot_shape":"circle","background_color":"#AAA","RDK_type":3,"aperture_type":2,"reinsert_type":2,"frame_rate":8.295833333333333,"frame_rate_array":[14,8,8,8,9,8,9,8,8,8,8,8,8,8,8,8,9,8,8,9,8,8,9,8,8,8,8,9,8,9,8,8,9,8,8,8,9,9,8,9,9,8,8,8,9,8,8,8,9,8,8,9,8,8,8,8,8,8,9,8,8,9,8,8,9,9,8,8,8,9,8,8,8,8,9,8,8,9,8,8,8,9,8,8,9,8,8,9,8,8,9,8,8,9,8,8,8,8,8,8,9,9,8,9,8,8,9,8,8,8,8,8,8,9,8,8,9,8,8,9,8,9,8,9,8,8,8,8,8,9,8,8,9,8,8,9,8,8,8,8,8,9,8,8,8,9,8,8,8,9,9,8,8,8,8,9,8,8,9,8,8,9,8,9,8,8,8,8,8,8,8,9,8,8,9,8,8,8,8,8,8,9,8,9,8,8,9,8,8,8,9,8,8,8,8,8,8,9,8,8,8,9,8,8,9,9,8,8,8,8,9,8,9,8,8,8,9,8,8,8,8,9,8,8,8,8,9,8,8,9,8,9,8,8,8,8,8,8,8,9],"number_of_frames":240,"aperture_center_x":960,"aperture_center_y":540,"fixation_cross":true,"fixation_cross_width":15,"fixation_cross_height":15,"fixation_cross_color":"#111","fixation_cross_thickness":1,"border":true,"border_thickness":2,"border_color":"transparent","canvas_width":1920,"canvas_height":1080,"trial_type":"rdk","trial_index":68,"plugin_version":"2.0.0","time_elapsed":175895},{"rt":2863,"stimulus":"\n        <div class=\"response-container\">\n          <div class=\"response-instruction\">\n            <p>rotate the bar by using the left and right arrow keys.</p>\n            <p>when you are determined, press the Enter key.</p>\n          </div>\n          <div class=\"response-circle\">\n            <div class=\"response-fixation\"></div>\n            <div id=\"bar\" class=\"rotating-bar\"></div>\n          </div>\n        </div>\n      ","response":"Enter","trial_type":"html-keyboard-response","trial_index":69,"plugin_version":"2.1.0","time_elapsed":178758,"random_initial_angle":66,"response_angle_css":46,"response_angle_rdk":44,"angular_error_target":-114,"angular_error_distractor":-11,"target_direction":158,"target_group":"white","reward_points":0},{"rt":null,"stimulus":"\n          <p style=\"color: #FF3333;\">Your reward: 0 points</p>\n        ","response":null,"trial_type":"html-keyboard-response","trial_index":70,"plugin_version":"2.1.0","time_elapsed":180763},{"rt":null,"stimulus":"<div class=\"fixation\" style=\"font-size: 60px;\">+</div>","response":null,"trial_type":"html-keyboard-response","trial_index":71,"plugin_version":"2.1.0","time_elapsed":181778},{"phase":"learning-awareness","target_group":"white","condition_label":"W_H_vs_B_L_rep7","target_direction":146,"distractor_direction":31,"session_rotation":115,"rt":-1,"response":"","correct":false,"choices":"ALL_KEYS","correct_choice":["a"],"trial_duration":2000,"flip_timestamps":[],"response_ends_trial":false,"number_of_apertures":200,"number_of_dots":[1,1,1,1,1,1,1,1,1,1,1,1,1,1,1,1,1,1,1,1,1,1,1,1,1,1,1,1,1,1,1,1,1,1,1,1,1,1,1,1,1,1,1,1,1,1,1,1,1,1,1,1,1,1,1,1,1,1,1,1,1,1,1,1,1,1,1,1,1,1,1,1,1,1,1,1,1,1,1,1,1,1,1,1,1,1,1,1,1,1,1,1,1,1,1,1,1,1,1,1,1,1,1,1,1,1,1,1,1,1,1,1,1,1,1,1,1,1,1,1,1,1,1,1,1,1,1,1,1,1,1,1,1,1,1,1,1,1,1,1,1,1,1,1,1,1,1,1,1,1,1,1,1,1,1,1,1,1,1,1,1,1,1,1,1,1,1,1,1,1,1,1,1,1,1,1,1,1,1,1,1,1,1,1,1,1,1,1,1,1,1,1,1,1,1,1,1,1,1,1],"number_of_sets":1,"coherent_direction":[31,31,146,31,31,146,146,31,146,31,146,146,146,146,146,146,31,31,31,146,146,146,146,31,146,146,146,146,31,146,31,146,31,146,31,146,146,31,31,146,146,146,146,146,146,146,31,31,31,31,31,31,31,146,31,31,31,31,146,31,31,31,31,146,146,31,31,31,31,146,31,146,31,31,31,146,146,31,31,31,146,146,31,146,31,31,31,146,146,146,31,31,146,31,31,31,146,31,31,31,31,31,146,146,146,31,146,146,146,31,31,31,31,146,146,146,31,31,31,31,31,146,31,146,146,146,31,31,146,31,146,146,146,31,146,31,146,31,146,146,146,146,146,146,146,31,146,146,146,31,31,31,146,31,146,146,146,31,31,146,31,31,31,31,146,146,146,146,146,31,31,146,31,31,146,146,146,146,31,31,31,31,31,146,146,146,146,31,31,31,146,31,31,146,31,146,146,146,146,31],"coherence":1,"opposite_coherence":0,"dot_radius":2,"dot_side_length":1,"dot_life":-1,"move_distance":1,"aperture_width":300,"aperture_height":300,"dot_color":["black","black","white","black","black","white","white","black","white","black","white","white","white","white","white","white","black","black","black","white","white","white","white","black","white","white","white","white","black","white","black","white","black","white","black","white","white","black","black","white","white","white","white","white","white","white","black","black","black","black","black","black","black","white","black","black","black","black","white","black","black","black","black","white","white","black","black","black","black","white","black","white","black","black","black","white","white","black","black","black","white","white","black","white","black","black","black","white","white","white","black","black","white","black","black","black","white","black","black","black","black","black","white","white","white","black","white","white","white","black","black","black","black","white","white","white","black","black","black","black","black","white","black","white","white","white","black","black","white","black","white","white","white","black","white","black","white","black","white","white","white","white","white","white","white","black","white","white","white","black","black","black","white","black","white","white","white","black","black","white","black","black","black","black","white","white","white","white","white","black","black","white","black","black","white","white","white","white","black","black","black","black","black","white","white","white","white","black","black","black","white","black","black","white","black","white","white","white","white","black"],"dot_shape":"circle","background_color":"#AAA","RDK_type":3,"aperture_type":2,"reinsert_type":2,"frame_rate":8.345833333333333,"frame_rate_array":[14,8,9,9,8,9,8,8,9,8,8,9,8,8,8,9,8,8,8,8,8,9,8,8,9,8,9,8,9,8,9,9,8,8,8,9,8,9,8,8,8,8,9,8,9,8,8,9,8,8,9,8,8,9,8,9,8,8,8,9,9,8,9,8,8,8,9,8,8,8,8,8,8,8,7,8,10,8,8,9,8,8,9,8,9,8,9,8,8,9,8,8,9,8,8,9,8,8,8,8,8,8,9,8,8,9,8,8,9,8,8,9,8,8,8,9,8,8,9,8,8,9,8,8,9,9,8,8,9,8,8,8,8,8,8,9,8,9,8,8,8,9,8,8,8,9,8,9,8,8,9,8,8,9,8,9,8,9,8,8,9,8,8,9,8,8,9,9,8,8,8,8,8,9,7,9,9,8,8,9,9,8,8,8,9,8,9,8,8,9,8,8,9,8,8,9,9,8,8,8,8,8,9,8,8,9,8,9,9,8,8,8,9,8,8,9,8,8,9,8,8,9,8,8,8,8,8,8,9,8,8,9,8,8,8,9,8,9,8,8],"number_of_frames":240,"aperture_center_x":960,"aperture_center_y":540,"fixation_cross":true,"fixation_cross_width":15,"fixation_cross_height":15,"fixation_cross_color":"#111","fixation_cross_thickness":1,"border":true,"border_thickness":2,"border_color":"transparent","canvas_width":1920,"canvas_height":1080,"trial_type":"rdk","trial_index":72,"plugin_version":"2.0.0","time_elapsed":183787},{"rt":1781,"stimulus":"\n        <div class=\"response-container\">\n          <div class=\"response-instruction\">\n            <p>rotate the bar by using the left and right arrow keys.</p>\n            <p>when you are determined, press the Enter key.</p>\n          </div>\n          <div class=\"response-circle\">\n            <div class=\"response-fixation\"></div>\n            <div id=\"bar\" class=\"rotating-bar\"></div>\n          </div>\n        </div>\n      ","response":"Enter","trial_type":"html-keyboard-response","trial_index":73,"plugin_version":"2.1.0","time_elapsed":185568,"random_initial_angle":128,"response_angle_css":45,"response_angle_rdk":45,"angular_error_target":-101,"angular_error_distractor":14,"target_direction":146,"target_group":"white","reward_points":0},{"rt":null,"stimulus":"\n          <p style=\"color: #FF3333;\">Your reward: 0 points</p>\n        ","response":null,"trial_type":"html-keyboard-response","trial_index":74,"plugin_version":"2.1.0","time_elapsed":187579},{"rt":null,"stimulus":"<div class=\"fixation\" style=\"font-size: 60px;\">+</div>","response":null,"trial_type":"html-keyboard-response","trial_index":75,"plugin_version":"2.1.0","time_elapsed":188586},{"phase":"learning-awareness","target_group":"black","condition_label":"B_H_vs_W_L_rep19","target_direction":234,"distractor_direction":333,"session_rotation":115,"rt":-1,"response":"","correct":false,"choices":"ALL_KEYS","correct_choice":["a"],"trial_duration":2000,"flip_timestamps":[],"response_ends_trial":false,"number_of_apertures":200,"number_of_dots":[1,1,1,1,1,1,1,1,1,1,1,1,1,1,1,1,1,1,1,1,1,1,1,1,1,1,1,1,1,1,1,1,1,1,1,1,1,1,1,1,1,1,1,1,1,1,1,1,1,1,1,1,1,1,1,1,1,1,1,1,1,1,1,1,1,1,1,1,1,1,1,1,1,1,1,1,1,1,1,1,1,1,1,1,1,1,1,1,1,1,1,1,1,1,1,1,1,1,1,1,1,1,1,1,1,1,1,1,1,1,1,1,1,1,1,1,1,1,1,1,1,1,1,1,1,1,1,1,1,1,1,1,1,1,1,1,1,1,1,1,1,1,1,1,1,1,1,1,1,1,1,1,1,1,1,1,1,1,1,1,1,1,1,1,1,1,1,1,1,1,1,1,1,1,1,1,1,1,1,1,1,1,1,1,1,1,1,1,1,1,1,1,1,1,1,1,1,1,1,1],"number_of_sets":1,"coherent_direction":[234,333,333,333,333,333,234,234,234,234,234,234,234,234,333,333,234,333,234,333,333,234,333,333,333,333,333,234,234,333,333,234,234,333,234,333,333,234,333,234,333,234,333,234,234,333,333,234,234,333,234,234,333,333,234,234,234,234,333,234,333,333,333,234,333,234,234,333,333,234,333,333,234,234,234,234,333,333,234,333,333,234,333,333,234,234,333,234,333,234,234,333,234,333,234,234,333,234,234,333,333,234,333,234,333,234,333,234,234,234,333,234,333,234,234,333,333,333,234,333,234,333,333,333,234,333,234,333,333,234,234,333,333,234,234,333,333,234,333,234,234,333,234,234,333,333,333,333,333,234,333,333,234,333,333,234,234,234,234,333,234,234,333,333,333,234,234,333,333,333,234,333,234,333,333,234,234,234,234,234,234,333,333,234,234,234,333,234,333,234,234,234,333,333,234,333,333,333,333,234],"coherence":1,"opposite_coherence":0,"dot_radius":2,"dot_side_length":1,"dot_life":-1,"move_distance":1,"aperture_width":300,"aperture_height":300,"dot_color":["black","white","white","white","white","white","black","black","black","black","black","black","black","black","white","white","black","white","black","white","white","black","white","white","white","white","white","black","black","white","white","black","black","white","black","white","white","black","white","black","white","black","white","black","black","white","white","black","black","white","black","black","white","white","black","black","black","black","white","black","white","white","white","black","white","black","black","white","white","black","white","white","black","black","black","black","white","white","black","white","white","black","white","white","black","black","white","black","white","black","black","white","black","white","black","black","white","black","black","white","white","black","white","black","white","black","white","black","black","black","white","black","white","black","black","white","white","white","black","white","black","white","white","white","black","white","black","white","white","black","black","white","white","black","black","white","white","black","white","black","black","white","black","black","white","white","white","white","white","black","white","white","black","white","white","black","black","black","black","white","black","black","white","white","white","black","black","white","white","white","black","white","black","white","white","black","black","black","black","black","black","white","white","black","black","black","white","black","white","black","black","black","white","white","black","white","white","white","white","black"],"dot_shape":"circle","background_color":"#AAA","RDK_type":3,"aperture_type":2,"reinsert_type":2,"frame_rate":8.283333333333333,"frame_rate_array":[16,9,8,9,9,8,8,8,8,9,8,8,8,8,9,8,8,9,8,8,9,8,8,8,8,8,8,8,9,8,9,8,8,9,8,8,9,8,8,8,8,8,8,9,8,8,9,7,9,8,8,8,8,8,8,8,9,8,8,9,8,8,9,9,8,8,8,7,9,9,8,8,9,8,8,9,8,7,9,9,8,9,8,8,8,9,8,8,9,8,8,8,8,8,8,8,8,8,9,8,8,9,8,8,8,9,8,8,9,8,9,8,8,8,9,8,8,9,8,8,8,8,9,8,8,8,8,8,9,8,9,8,8,9,8,8,8,8,8,8,9,8,8,9,8,8,9,7,9,8,9,8,8,9,8,8,9,8,8,9,8,8,8,8,8,8,9,7,9,9,8,8,9,8,8,8,8,8,8,9,8,8,9,8,8,9,8,8,9,8,8,8,8,8,9,8,8,8,9,8,8,9,8,8,8,8,8,8,9,8,8,9,8,8,9,8,8,8,8,8,8,9,8,8,9,8,8,8,9,8,9,8,8,8,9,8,8,8,8,8],"number_of_frames":240,"aperture_center_x":960,"aperture_center_y":540,"fixation_cross":true,"fixation_cross_width":15,"fixation_cross_height":15,"fixation_cross_color":"#111","fixation_cross_thickness":1,"border":true,"border_thickness":2,"border_color":"transparent","canvas_width":1920,"canvas_height":1080,"trial_type":"rdk","trial_index":76,"plugin_version":"2.0.0","time_elapsed":190596},{"rt":2287,"stimulus":"\n        <div class=\"response-container\">\n          <div class=\"response-instruction\">\n            <p>rotate the bar by using the left and right arrow keys.</p>\n            <p>when you are determined, press the Enter key.</p>\n          </div>\n          <div class=\"response-circle\">\n            <div class=\"response-fixation\"></div>\n            <div id=\"bar\" class=\"rotating-bar\"></div>\n          </div>\n        </div>\n      ","response":"Enter","trial_type":"html-keyboard-response","trial_index":77,"plugin_version":"2.1.0","time_elapsed":192884,"random_initial_angle":17,"response_angle_css":226,"response_angle_rdk":224,"angular_error_target":-10,"angular_error_distractor":-109,"target_direction":234,"target_group":"black","reward_points":8},{"rt":null,"stimulus":"\n          <p style=\"color: #00FF00;\">Your reward: 8 points</p>\n        ","response":null,"trial_type":"html-keyboard-response","trial_index":78,"plugin_version":"2.1.0","time_elapsed":194886},{"rt":null,"stimulus":"<div class=\"fixation\" style=\"font-size: 60px;\">+</div>","response":null,"trial_type":"html-keyboard-response","trial_index":79,"plugin_version":"2.1.0","time_elapsed":195891},{"phase":"learning-awareness","target_group":"white","condition_label":"W_H_vs_B_L_rep11","target_direction":151,"distractor_direction":33,"session_rotation":115,"rt":-1,"response":"","correct":false,"choices":"ALL_KEYS","correct_choice":["a"],"trial_duration":2000,"flip_timestamps":[],"response_ends_trial":false,"number_of_apertures":200,"number_of_dots":[1,1,1,1,1,1,1,1,1,1,1,1,1,1,1,1,1,1,1,1,1,1,1,1,1,1,1,1,1,1,1,1,1,1,1,1,1,1,1,1,1,1,1,1,1,1,1,1,1,1,1,1,1,1,1,1,1,1,1,1,1,1,1,1,1,1,1,1,1,1,1,1,1,1,1,1,1,1,1,1,1,1,1,1,1,1,1,1,1,1,1,1,1,1,1,1,1,1,1,1,1,1,1,1,1,1,1,1,1,1,1,1,1,1,1,1,1,1,1,1,1,1,1,1,1,1,1,1,1,1,1,1,1,1,1,1,1,1,1,1,1,1,1,1,1,1,1,1,1,1,1,1,1,1,1,1,1,1,1,1,1,1,1,1,1,1,1,1,1,1,1,1,1,1,1,1,1,1,1,1,1,1,1,1,1,1,1,1,1,1,1,1,1,1,1,1,1,1,1,1],"number_of_sets":1,"coherent_direction":[151,151,151,33,33,151,151,33,33,33,151,151,33,151,33,151,33,151,33,151,33,151,151,151,33,151,33,33,151,151,151,151,33,33,33,151,33,33,33,151,33,33,151,33,151,151,33,33,33,151,151,151,33,151,151,33,151,151,151,151,33,33,33,33,151,151,33,33,33,33,151,151,33,33,33,33,151,33,151,33,151,151,33,33,33,151,151,151,151,33,151,151,151,33,151,33,33,33,151,33,151,151,151,33,33,151,151,151,151,151,33,151,151,151,151,33,151,33,33,151,33,151,33,33,33,151,33,33,33,33,151,151,151,151,33,151,151,33,33,33,33,33,33,33,33,33,151,33,151,33,151,151,33,33,33,151,151,151,151,33,151,33,151,151,151,33,151,33,151,151,33,151,151,151,33,33,33,33,33,151,33,33,33,33,151,33,33,151,151,151,151,33,151,33,33,151,33,151,151,33],"coherence":1,"opposite_coherence":0,"dot_radius":2,"dot_side_length":1,"dot_life":-1,"move_distance":1,"aperture_width":300,"aperture_height":300,"dot_color":["white","white","white","black","black","white","white","black","black","black","white","white","black","white","black","white","black","white","black","white","black","white","white","white","black","white","black","black","white","white","white","white","black","black","black","white","black","black","black","white","black","black","white","black","white","white","black","black","black","white","white","white","black","white","white","black","white","white","white","white","black","black","black","black","white","white","black","black","black","black","white","white","black","black","black","black","white","black","white","black","white","white","black","black","black","white","white","white","white","black","white","white","white","black","white","black","black","black","white","black","white","white","white","black","black","white","white","white","white","white","black","white","white","white","white","black","white","black","black","white","black","white","black","black","black","white","black","black","black","black","white","white","white","white","black","white","white","black","black","black","black","black","black","black","black","black","white","black","white","black","white","white","black","black","black","white","white","white","white","black","white","black","white","white","white","black","white","black","white","white","black","white","white","white","black","black","black","black","black","white","black","black","black","black","white","black","black","white","white","white","white","black","white","black","black","white","black","white","white","black"],"dot_shape":"circle","background_color":"#AAA","RDK_type":3,"aperture_type":2,"reinsert_type":2,"frame_rate":8.316666666666666,"frame_rate_array":[13,8,9,8,9,8,9,8,8,9,8,8,8,9,8,9,8,7,9,8,8,8,9,8,8,8,8,9,8,9,8,8,9,8,8,9,8,8,9,8,8,9,8,7,10,8,8,8,9,8,8,9,8,8,8,9,8,8,8,8,8,9,8,8,9,8,9,8,8,9,8,8,9,8,8,8,8,9,8,8,9,8,8,8,9,8,8,9,9,8,8,8,9,9,8,8,8,9,8,8,9,8,8,8,8,8,9,7,9,8,8,9,8,8,8,8,9,8,8,9,8,8,9,8,8,7,9,8,9,8,8,8,9,8,8,9,8,8,9,9,8,8,8,8,8,8,8,8,9,8,8,8,9,9,8,8,8,8,9,8,8,9,8,8,9,8,8,8,9,8,8,9,8,8,9,8,9,9,9,8,8,8,8,8,8,8,8,9,8,9,9,8,9,8,9,8,8,8,8,8,9,8,8,9,8,8,9,8,8,9,8,8,8,9,9,8,9,8,8,9,8,8,8,9,8,9,8,9,7,9,8,8,8,8,9,8,7,10,8,8],"number_of_frames":240,"aperture_center_x":960,"aperture_center_y":540,"fixation_cross":true,"fixation_cross_width":15,"fixation_cross_height":15,"fixation_cross_color":"#111","fixation_cross_thickness":1,"border":true,"border_thickness":2,"border_color":"transparent","canvas_width":1920,"canvas_height":1080,"trial_type":"rdk","trial_index":80,"plugin_version":"2.0.0","time_elapsed":197898},{"rt":2245,"stimulus":"\n        <div class=\"response-container\">\n          <div class=\"response-instruction\">\n            <p>rotate the bar by using the left and right arrow keys.</p>\n            <p>when you are determined, press the Enter key.</p>\n          </div>\n          <div class=\"response-circle\">\n            <div class=\"response-fixation\"></div>\n            <div id=\"bar\" class=\"rotating-bar\"></div>\n          </div>\n        </div>\n      ","response":"Enter","trial_type":"html-keyboard-response","trial_index":81,"plugin_version":"2.1.0","time_elapsed":200144,"random_initial_angle":206,"response_angle_css":45,"response_angle_rdk":45,"angular_error_target":-106,"angular_error_distractor":12,"target_direction":151,"target_group":"white","reward_points":0},{"rt":null,"stimulus":"\n          <p style=\"color: #FF3333;\">Your reward: 0 points</p>\n        ","response":null,"trial_type":"html-keyboard-response","trial_index":82,"plugin_version":"2.1.0","time_elapsed":202153},{"rt":null,"stimulus":"<div class=\"fixation\" style=\"font-size: 60px;\">+</div>","response":null,"trial_type":"html-keyboard-response","trial_index":83,"plugin_version":"2.1.0","time_elapsed":203158},{"phase":"learning-awareness","target_group":"black","condition_label":"B_H_vs_W_L_rep20","target_direction":218,"distractor_direction":333,"session_rotation":115,"rt":-1,"response":"","correct":false,"choices":"ALL_KEYS","correct_choice":["a"],"trial_duration":2000,"flip_timestamps":[],"response_ends_trial":false,"number_of_apertures":200,"number_of_dots":[1,1,1,1,1,1,1,1,1,1,1,1,1,1,1,1,1,1,1,1,1,1,1,1,1,1,1,1,1,1,1,1,1,1,1,1,1,1,1,1,1,1,1,1,1,1,1,1,1,1,1,1,1,1,1,1,1,1,1,1,1,1,1,1,1,1,1,1,1,1,1,1,1,1,1,1,1,1,1,1,1,1,1,1,1,1,1,1,1,1,1,1,1,1,1,1,1,1,1,1,1,1,1,1,1,1,1,1,1,1,1,1,1,1,1,1,1,1,1,1,1,1,1,1,1,1,1,1,1,1,1,1,1,1,1,1,1,1,1,1,1,1,1,1,1,1,1,1,1,1,1,1,1,1,1,1,1,1,1,1,1,1,1,1,1,1,1,1,1,1,1,1,1,1,1,1,1,1,1,1,1,1,1,1,1,1,1,1,1,1,1,1,1,1,1,1,1,1,1,1],"number_of_sets":1,"coherent_direction":[218,333,218,333,333,218,333,218,218,333,333,333,333,218,218,218,218,218,333,218,218,218,218,218,218,218,333,218,218,218,218,333,333,218,218,333,333,218,333,218,218,333,333,218,333,333,333,333,218,333,218,218,218,333,333,333,333,218,333,333,333,333,333,218,333,218,333,218,333,218,333,218,333,333,218,218,333,333,333,333,333,333,218,333,333,218,333,333,218,218,333,218,218,218,333,333,218,333,333,218,333,333,218,218,218,333,218,333,333,218,218,333,333,218,218,333,333,333,333,218,218,218,218,333,218,333,218,218,333,218,218,333,333,333,218,218,333,218,333,333,218,218,333,218,218,218,333,218,333,333,333,218,218,218,218,218,333,333,333,218,333,218,218,218,333,333,218,218,218,333,218,218,333,218,218,218,333,333,333,333,218,333,218,218,218,333,333,333,218,333,333,333,218,333,333,218,333,218,333,218],"coherence":1,"opposite_coherence":0,"dot_radius":2,"dot_side_length":1,"dot_life":-1,"move_distance":1,"aperture_width":300,"aperture_height":300,"dot_color":["black","white","black","white","white","black","white","black","black","white","white","white","white","black","black","black","black","black","white","black","black","black","black","black","black","black","white","black","black","black","black","white","white","black","black","white","white","black","white","black","black","white","white","black","white","white","white","white","black","white","black","black","black","white","white","white","white","black","white","white","white","white","white","black","white","black","white","black","white","black","white","black","white","white","black","black","white","white","white","white","white","white","black","white","white","black","white","white","black","black","white","black","black","black","white","white","black","white","white","black","white","white","black","black","black","white","black","white","white","black","black","white","white","black","black","white","white","white","white","black","black","black","black","white","black","white","black","black","white","black","black","white","white","white","black","black","white","black","white","white","black","black","white","black","black","black","white","black","white","white","white","black","black","black","black","black","white","white","white","black","white","black","black","black","white","white","black","black","black","white","black","black","white","black","black","black","white","white","white","white","black","white","black","black","black","white","white","white","black","white","white","white","black","white","white","black","white","black","white","black"],"dot_shape":"circle","background_color":"#AAA","RDK_type":3,"aperture_type":2,"reinsert_type":2,"frame_rate":8.308333333333334,"frame_rate_array":[15,9,8,9,8,9,8,8,8,8,8,8,9,8,8,9,8,8,9,8,8,8,8,8,9,7,9,8,9,8,8,9,8,8,8,9,8,8,8,8,8,9,8,8,9,7,9,9,8,8,8,9,8,8,9,8,8,9,8,7,9,8,8,9,9,8,8,9,8,8,8,8,8,9,8,8,8,8,8,8,9,8,8,9,8,7,10,8,9,8,9,8,8,8,8,9,8,8,8,9,8,8,9,8,9,8,9,8,8,9,8,8,9,8,8,9,8,8,8,9,8,8,8,9,8,8,9,8,9,8,8,9,8,8,8,9,8,8,9,8,8,9,8,8,9,8,9,8,8,8,8,9,8,8,9,8,8,9,8,8,8,8,8,8,9,7,9,9,8,8,9,8,8,8,8,8,8,9,8,8,9,8,8,9,8,9,8,8,8,8,9,8,8,9,8,8,9,8,8,9,8,8,8,9,8,8,9,8,8,9,8,8,9,8,8,8,9,8,8,9,8,8,9,8,8,8,9,8,9,8,8,8,8,8,8,8,8,8,9,8],"number_of_frames":240,"aperture_center_x":960,"aperture_center_y":540,"fixation_cross":true,"fixation_cross_width":15,"fixation_cross_height":15,"fixation_cross_color":"#111","fixation_cross_thickness":1,"border":true,"border_thickness":2,"border_color":"transparent","canvas_width":1920,"canvas_height":1080,"trial_type":"rdk","trial_index":84,"plugin_version":"2.0.0","time_elapsed":205167},{"rt":3456,"stimulus":"\n        <div class=\"response-container\">\n          <div class=\"response-instruction\">\n            <p>rotate the bar by using the left and right arrow keys.</p>\n            <p>when you are determined, press the Enter key.</p>\n          </div>\n          <div class=\"response-circle\">\n            <div class=\"response-fixation\"></div>\n            <div id=\"bar\" class=\"rotating-bar\"></div>\n          </div>\n        </div>\n      ","response":"Enter","trial_type":"html-keyboard-response","trial_index":85,"plugin_version":"2.1.0","time_elapsed":208623,"random_initial_angle":5,"response_angle_css":-114,"response_angle_rdk":204,"angular_error_target":-14,"angular_error_distractor":-129,"target_direction":218,"target_group":"black","reward_points":7},{"rt":null,"stimulus":"\n          <p style=\"color: #00FF00;\">Your reward: 7 points</p>\n        ","response":null,"trial_type":"html-keyboard-response","trial_index":86,"plugin_version":"2.1.0","time_elapsed":210633},{"rt":null,"stimulus":"<div class=\"fixation\" style=\"font-size: 60px;\">+</div>","response":null,"trial_type":"html-keyboard-response","trial_index":87,"plugin_version":"2.1.0","time_elapsed":211649},{"phase":"learning-awareness","target_group":"white","condition_label":"W_H_vs_B_L_rep5","target_direction":132,"distractor_direction":29,"session_rotation":115,"rt":-1,"response":"","correct":false,"choices":"ALL_KEYS","correct_choice":["a"],"trial_duration":2000,"flip_timestamps":[],"response_ends_trial":false,"number_of_apertures":200,"number_of_dots":[1,1,1,1,1,1,1,1,1,1,1,1,1,1,1,1,1,1,1,1,1,1,1,1,1,1,1,1,1,1,1,1,1,1,1,1,1,1,1,1,1,1,1,1,1,1,1,1,1,1,1,1,1,1,1,1,1,1,1,1,1,1,1,1,1,1,1,1,1,1,1,1,1,1,1,1,1,1,1,1,1,1,1,1,1,1,1,1,1,1,1,1,1,1,1,1,1,1,1,1,1,1,1,1,1,1,1,1,1,1,1,1,1,1,1,1,1,1,1,1,1,1,1,1,1,1,1,1,1,1,1,1,1,1,1,1,1,1,1,1,1,1,1,1,1,1,1,1,1,1,1,1,1,1,1,1,1,1,1,1,1,1,1,1,1,1,1,1,1,1,1,1,1,1,1,1,1,1,1,1,1,1,1,1,1,1,1,1,1,1,1,1,1,1,1,1,1,1,1,1],"number_of_sets":1,"coherent_direction":[29,132,132,29,29,132,132,132,29,132,29,29,132,132,29,29,132,132,29,132,132,29,132,29,29,29,29,132,132,29,132,132,132,132,29,29,132,29,132,29,132,29,29,132,132,29,29,132,29,29,132,132,132,29,132,29,132,132,132,132,132,132,29,29,132,29,29,29,29,132,29,29,132,29,29,29,29,132,132,132,29,132,29,132,29,132,132,29,29,132,29,29,132,29,132,29,29,132,29,132,29,29,132,29,132,29,29,132,29,29,132,29,132,29,29,29,132,29,29,29,29,132,132,132,132,132,132,132,132,29,132,29,29,29,29,132,132,29,132,132,29,29,132,132,29,132,132,29,29,29,132,132,132,132,132,29,132,132,132,29,132,132,29,29,29,29,132,29,29,29,29,132,132,29,29,132,29,132,29,132,29,29,132,132,132,132,29,29,132,29,132,132,132,29,29,132,29,132,132,29],"coherence":1,"opposite_coherence":0,"dot_radius":2,"dot_side_length":1,"dot_life":-1,"move_distance":1,"aperture_width":300,"aperture_height":300,"dot_color":["black","white","white","black","black","white","white","white","black","white","black","black","white","white","black","black","white","white","black","white","white","black","white","black","black","black","black","white","white","black","white","white","white","white","black","black","white","black","white","black","white","black","black","white","white","black","black","white","black","black","white","white","white","black","white","black","white","white","white","white","white","white","black","black","white","black","black","black","black","white","black","black","white","black","black","black","black","white","white","white","black","white","black","white","black","white","white","black","black","white","black","black","white","black","white","black","black","white","black","white","black","black","white","black","white","black","black","white","black","black","white","black","white","black","black","black","white","black","black","black","black","white","white","white","white","white","white","white","white","black","white","black","black","black","black","white","white","black","white","white","black","black","white","white","black","white","white","black","black","black","white","white","white","white","white","black","white","white","white","black","white","white","black","black","black","black","white","black","black","black","black","white","white","black","black","white","black","white","black","white","black","black","white","white","white","white","black","black","white","black","white","white","white","black","black","white","black","white","white","black"],"dot_shape":"circle","background_color":"#AAA","RDK_type":3,"aperture_type":2,"reinsert_type":2,"frame_rate":8.254166666666666,"frame_rate_array":[15,8,8,9,8,8,9,8,8,8,9,8,8,9,8,8,9,8,8,9,8,8,8,8,8,8,8,7,9,9,8,8,8,9,8,8,9,8,8,9,8,8,9,8,8,9,8,7,9,8,8,8,9,8,8,9,8,8,9,7,9,8,8,9,8,8,8,8,9,8,8,8,8,8,9,8,8,8,8,8,8,8,8,8,9,8,8,8,9,8,8,8,8,8,9,8,8,9,8,8,9,8,8,8,8,8,8,9,8,8,8,8,8,9,8,8,9,8,8,8,8,8,8,9,8,8,9,7,9,9,8,8,9,8,8,8,9,8,8,9,8,8,9,8,8,9,8,8,8,9,8,8,9,8,8,8,9,8,9,8,8,9,8,8,8,8,8,8,9,8,8,9,8,8,8,8,8,8,9,8,8,9,8,8,9,8,8,8,9,8,8,8,8,8,8,8,8,9,8,8,9,8,8,8,8,8,8,7,9,8,9,8,8,9,8,8,8,9,8,8,8,8,8,8,8,8,9,7,9,9,8,8,8,8,9,8,8,8,8,9],"number_of_frames":240,"aperture_center_x":960,"aperture_center_y":540,"fixation_cross":true,"fixation_cross_width":15,"fixation_cross_height":15,"fixation_cross_color":"#111","fixation_cross_thickness":1,"border":true,"border_thickness":2,"border_color":"transparent","canvas_width":1920,"canvas_height":1080,"trial_type":"rdk","trial_index":88,"plugin_version":"2.0.0","time_elapsed":213658},{"rt":1189,"stimulus":"\n        <div class=\"response-container\">\n          <div class=\"response-instruction\">\n            <p>rotate the bar by using the left and right arrow keys.</p>\n            <p>when you are determined, press the Enter key.</p>\n          </div>\n          <div class=\"response-circle\">\n            <div class=\"response-fixation\"></div>\n            <div id=\"bar\" class=\"rotating-bar\"></div>\n          </div>\n        </div>\n      ","response":"Enter","trial_type":"html-keyboard-response","trial_index":89,"plugin_version":"2.1.0","time_elapsed":214848,"random_initial_angle":263,"response_angle_css":263,"response_angle_rdk":187,"angular_error_target":55,"angular_error_distractor":158,"target_direction":132,"target_group":"white","reward_points":0},{"rt":null,"stimulus":"\n          <p style=\"color: #FF3333;\">Your reward: 0 points</p>\n        ","response":null,"trial_type":"html-keyboard-response","trial_index":90,"plugin_version":"2.1.0","time_elapsed":216863},{"rt":null,"stimulus":"<div class=\"fixation\" style=\"font-size: 60px;\">+</div>","response":null,"trial_type":"html-keyboard-response","trial_index":91,"plugin_version":"2.1.0","time_elapsed":217879},{"phase":"learning-awareness","target_group":"black","condition_label":"B_H_vs_W_L_rep3","target_direction":206,"distractor_direction":335,"session_rotation":115,"rt":-1,"response":"","correct":false,"choices":"ALL_KEYS","correct_choice":["a"],"trial_duration":2000,"flip_timestamps":[],"response_ends_trial":false,"number_of_apertures":200,"number_of_dots":[1,1,1,1,1,1,1,1,1,1,1,1,1,1,1,1,1,1,1,1,1,1,1,1,1,1,1,1,1,1,1,1,1,1,1,1,1,1,1,1,1,1,1,1,1,1,1,1,1,1,1,1,1,1,1,1,1,1,1,1,1,1,1,1,1,1,1,1,1,1,1,1,1,1,1,1,1,1,1,1,1,1,1,1,1,1,1,1,1,1,1,1,1,1,1,1,1,1,1,1,1,1,1,1,1,1,1,1,1,1,1,1,1,1,1,1,1,1,1,1,1,1,1,1,1,1,1,1,1,1,1,1,1,1,1,1,1,1,1,1,1,1,1,1,1,1,1,1,1,1,1,1,1,1,1,1,1,1,1,1,1,1,1,1,1,1,1,1,1,1,1,1,1,1,1,1,1,1,1,1,1,1,1,1,1,1,1,1,1,1,1,1,1,1,1,1,1,1,1,1],"number_of_sets":1,"coherent_direction":[335,335,335,335,206,335,335,335,335,335,206,206,206,335,335,335,335,206,335,206,335,206,335,335,335,335,206,206,335,206,206,206,206,335,335,206,335,335,335,206,206,206,335,206,206,206,206,206,335,335,335,206,206,335,335,335,206,335,206,335,335,335,335,206,335,206,206,206,335,206,206,335,206,206,335,206,335,206,206,335,206,206,206,206,335,206,206,335,206,206,206,335,335,335,206,206,206,335,335,335,206,335,206,206,206,335,206,206,206,206,335,206,335,206,206,335,335,335,335,206,206,206,206,335,335,206,335,206,206,206,335,206,206,335,206,206,206,206,206,206,206,206,335,206,335,335,206,335,335,206,206,335,335,206,335,206,335,206,335,335,206,206,335,335,335,335,335,335,206,335,335,206,335,335,206,206,335,335,335,206,335,206,206,335,206,206,335,335,335,335,335,335,206,206,335,206,206,335,335,335],"coherence":1,"opposite_coherence":0,"dot_radius":2,"dot_side_length":1,"dot_life":-1,"move_distance":1,"aperture_width":300,"aperture_height":300,"dot_color":["white","white","white","white","black","white","white","white","white","white","black","black","black","white","white","white","white","black","white","black","white","black","white","white","white","white","black","black","white","black","black","black","black","white","white","black","white","white","white","black","black","black","white","black","black","black","black","black","white","white","white","black","black","white","white","white","black","white","black","white","white","white","white","black","white","black","black","black","white","black","black","white","black","black","white","black","white","black","black","white","black","black","black","black","white","black","black","white","black","black","black","white","white","white","black","black","black","white","white","white","black","white","black","black","black","white","black","black","black","black","white","black","white","black","black","white","white","white","white","black","black","black","black","white","white","black","white","black","black","black","white","black","black","white","black","black","black","black","black","black","black","black","white","black","white","white","black","white","white","black","black","white","white","black","white","black","white","black","white","white","black","black","white","white","white","white","white","white","black","white","white","black","white","white","black","black","white","white","white","black","white","black","black","white","black","black","white","white","white","white","white","white","black","black","white","black","black","white","white","white"],"dot_shape":"circle","background_color":"#AAA","RDK_type":3,"aperture_type":2,"reinsert_type":2,"frame_rate":8.270833333333334,"frame_rate_array":[12,8,9,9,8,8,8,8,8,9,8,9,8,8,8,9,8,8,8,8,8,9,9,8,8,9,8,9,8,9,7,9,8,8,9,8,8,8,8,9,8,8,8,8,8,9,8,9,8,8,9,8,8,8,8,8,8,8,8,8,8,8,7,10,8,8,9,9,8,9,8,9,8,9,8,8,9,8,8,9,8,8,9,8,8,9,8,8,8,9,9,8,9,8,8,9,8,8,8,8,8,9,8,8,9,8,8,7,9,8,8,8,8,8,8,9,8,8,8,8,8,8,8,8,9,9,8,8,8,8,8,8,8,8,8,8,8,9,8,9,8,8,8,8,8,8,9,9,8,8,9,8,8,9,8,7,9,9,8,8,8,8,8,9,8,8,9,8,8,8,9,8,8,9,8,8,9,8,8,9,8,8,8,9,8,9,9,8,8,9,8,8,9,8,8,8,8,8,8,8,8,8,9,8,8,9,8,8,9,8,8,8,9,8,9,8,8,8,8,8,8,9,8,8,8,9,8,7,9,8,8,9,8,8,9,8,8,8,8,8],"number_of_frames":240,"aperture_center_x":960,"aperture_center_y":540,"fixation_cross":true,"fixation_cross_width":15,"fixation_cross_height":15,"fixation_cross_color":"#111","fixation_cross_thickness":1,"border":true,"border_thickness":2,"border_color":"transparent","canvas_width":1920,"canvas_height":1080,"trial_type":"rdk","trial_index":92,"plugin_version":"2.0.0","time_elapsed":219886},{"rt":3177,"stimulus":"\n        <div class=\"response-container\">\n          <div class=\"response-instruction\">\n            <p>rotate the bar by using the left and right arrow keys.</p>\n            <p>when you are determined, press the Enter key.</p>\n          </div>\n          <div class=\"response-circle\">\n            <div class=\"response-fixation\"></div>\n            <div id=\"bar\" class=\"rotating-bar\"></div>\n          </div>\n        </div>\n      ","response":"Enter","trial_type":"html-keyboard-response","trial_index":93,"plugin_version":"2.1.0","time_elapsed":223063,"random_initial_angle":264,"response_angle_css":109,"response_angle_rdk":341,"angular_error_target":135,"angular_error_distractor":6,"target_direction":206,"target_group":"black","reward_points":0},{"rt":null,"stimulus":"\n          <p style=\"color: #FF3333;\">Your reward: 0 points</p>\n        ","response":null,"trial_type":"html-keyboard-response","trial_index":94,"plugin_version":"2.1.0","time_elapsed":225074},{"rt":null,"stimulus":"<div class=\"fixation\" style=\"font-size: 60px;\">+</div>","response":null,"trial_type":"html-keyboard-response","trial_index":95,"plugin_version":"2.1.0","time_elapsed":226079},{"phase":"learning-awareness","target_group":"white","condition_label":"W_H_vs_B_L_rep15","target_direction":158,"distractor_direction":50,"session_rotation":115,"rt":-1,"response":"","correct":false,"choices":"ALL_KEYS","correct_choice":["a"],"trial_duration":2000,"flip_timestamps":[],"response_ends_trial":false,"number_of_apertures":200,"number_of_dots":[1,1,1,1,1,1,1,1,1,1,1,1,1,1,1,1,1,1,1,1,1,1,1,1,1,1,1,1,1,1,1,1,1,1,1,1,1,1,1,1,1,1,1,1,1,1,1,1,1,1,1,1,1,1,1,1,1,1,1,1,1,1,1,1,1,1,1,1,1,1,1,1,1,1,1,1,1,1,1,1,1,1,1,1,1,1,1,1,1,1,1,1,1,1,1,1,1,1,1,1,1,1,1,1,1,1,1,1,1,1,1,1,1,1,1,1,1,1,1,1,1,1,1,1,1,1,1,1,1,1,1,1,1,1,1,1,1,1,1,1,1,1,1,1,1,1,1,1,1,1,1,1,1,1,1,1,1,1,1,1,1,1,1,1,1,1,1,1,1,1,1,1,1,1,1,1,1,1,1,1,1,1,1,1,1,1,1,1,1,1,1,1,1,1,1,1,1,1,1,1],"number_of_sets":1,"coherent_direction":[50,158,50,50,50,50,158,158,158,50,50,50,158,50,158,50,158,50,158,50,158,158,50,158,158,158,50,158,158,158,50,50,50,50,158,158,50,50,50,50,158,50,50,158,158,158,158,158,158,50,50,158,158,50,50,158,158,158,158,50,158,50,50,158,50,158,158,158,158,158,50,50,50,158,50,158,158,158,50,158,50,158,50,50,158,50,158,158,158,50,158,158,158,50,50,50,50,158,158,158,158,50,158,50,158,158,158,50,50,50,50,50,50,50,158,50,50,50,50,158,50,50,158,158,158,50,158,50,50,50,158,50,158,158,50,50,158,50,158,50,50,50,158,158,158,50,50,158,50,50,50,50,50,50,158,158,50,158,158,158,158,50,50,158,158,158,158,50,158,158,158,158,50,158,158,50,50,50,158,50,158,50,50,50,50,50,50,50,50,158,158,50,158,158,158,158,158,50,158,50],"coherence":1,"opposite_coherence":0,"dot_radius":2,"dot_side_length":1,"dot_life":-1,"move_distance":1,"aperture_width":300,"aperture_height":300,"dot_color":["black","white","black","black","black","black","white","white","white","black","black","black","white","black","white","black","white","black","white","black","white","white","black","white","white","white","black","white","white","white","black","black","black","black","white","white","black","black","black","black","white","black","black","white","white","white","white","white","white","black","black","white","white","black","black","white","white","white","white","black","white","black","black","white","black","white","white","white","white","white","black","black","black","white","black","white","white","white","black","white","black","white","black","black","white","black","white","white","white","black","white","white","white","black","black","black","black","white","white","white","white","black","white","black","white","white","white","black","black","black","black","black","black","black","white","black","black","black","black","white","black","black","white","white","white","black","white","black","black","black","white","black","white","white","black","black","white","black","white","black","black","black","white","white","white","black","black","white","black","black","black","black","black","black","white","white","black","white","white","white","white","black","black","white","white","white","white","black","white","white","white","white","black","white","white","black","black","black","white","black","white","black","black","black","black","black","black","black","black","white","white","black","white","white","white","white","white","black","white","black"],"dot_shape":"circle","background_color":"#AAA","RDK_type":3,"aperture_type":2,"reinsert_type":2,"frame_rate":8.370833333333334,"frame_rate_array":[13,8,10,8,8,9,9,8,8,9,8,8,9,7,8,10,8,8,9,8,8,9,8,8,9,9,8,8,9,8,8,9,8,8,8,9,8,8,8,9,8,9,8,8,9,8,8,9,9,8,8,9,8,9,8,9,8,8,9,8,8,9,8,8,10,8,8,9,8,8,9,8,8,9,7,9,9,8,8,9,9,8,8,9,8,8,9,8,8,9,8,8,8,8,7,9,8,8,8,9,7,8,9,8,8,9,8,8,8,9,8,8,9,8,8,9,8,8,9,8,8,9,8,8,8,9,8,8,9,8,8,9,8,8,8,9,8,8,9,8,8,9,8,8,9,8,8,9,9,8,9,9,8,8,8,9,8,9,8,8,8,8,9,8,9,8,8,9,8,8,9,8,8,9,7,10,8,9,8,9,9,8,8,9,8,8,9,8,8,9,9,8,8,8,9,8,9,8,8,8,9,8,8,8,8,8,9,8,8,9,8,8,9,8,8,10,8,8,9,9,8,8,8,9,8,9,8,8,9,8,8,9,8,8,8,9,8,8,9,8],"number_of_frames":240,"aperture_center_x":960,"aperture_center_y":540,"fixation_cross":true,"fixation_cross_width":15,"fixation_cross_height":15,"fixation_cross_color":"#111","fixation_cross_thickness":1,"border":true,"border_thickness":2,"border_color":"transparent","canvas_width":1920,"canvas_height":1080,"trial_type":"rdk","trial_index":96,"plugin_version":"2.0.0","time_elapsed":228086},{"rt":2125,"stimulus":"\n        <div class=\"response-container\">\n          <div class=\"response-instruction\">\n            <p>rotate the bar by using the left and right arrow keys.</p>\n            <p>when you are determined, press the Enter key.</p>\n          </div>\n          <div class=\"response-circle\">\n            <div class=\"response-fixation\"></div>\n            <div id=\"bar\" class=\"rotating-bar\"></div>\n          </div>\n        </div>\n      ","response":"Enter","trial_type":"html-keyboard-response","trial_index":97,"plugin_version":"2.1.0","time_elapsed":230211,"random_initial_angle":182,"response_angle_css":46,"response_angle_rdk":44,"angular_error_target":-114,"angular_error_distractor":-6,"target_direction":158,"target_group":"white","reward_points":0},{"rt":null,"stimulus":"\n          <p style=\"color: #FF3333;\">Your reward: 0 points</p>\n        ","response":null,"trial_type":"html-keyboard-response","trial_index":98,"plugin_version":"2.1.0","time_elapsed":232217},{"rt":null,"stimulus":"<div class=\"fixation\" style=\"font-size: 60px;\">+</div>","response":null,"trial_type":"html-keyboard-response","trial_index":99,"plugin_version":"2.1.0","time_elapsed":233221},{"phase":"learning-awareness","target_group":"white","condition_label":"W_H_vs_B_L_rep3","target_direction":144,"distractor_direction":31,"session_rotation":115,"rt":-1,"response":"","correct":false,"choices":"ALL_KEYS","correct_choice":["a"],"trial_duration":2000,"flip_timestamps":[],"response_ends_trial":false,"number_of_apertures":200,"number_of_dots":[1,1,1,1,1,1,1,1,1,1,1,1,1,1,1,1,1,1,1,1,1,1,1,1,1,1,1,1,1,1,1,1,1,1,1,1,1,1,1,1,1,1,1,1,1,1,1,1,1,1,1,1,1,1,1,1,1,1,1,1,1,1,1,1,1,1,1,1,1,1,1,1,1,1,1,1,1,1,1,1,1,1,1,1,1,1,1,1,1,1,1,1,1,1,1,1,1,1,1,1,1,1,1,1,1,1,1,1,1,1,1,1,1,1,1,1,1,1,1,1,1,1,1,1,1,1,1,1,1,1,1,1,1,1,1,1,1,1,1,1,1,1,1,1,1,1,1,1,1,1,1,1,1,1,1,1,1,1,1,1,1,1,1,1,1,1,1,1,1,1,1,1,1,1,1,1,1,1,1,1,1,1,1,1,1,1,1,1,1,1,1,1,1,1,1,1,1,1,1,1],"number_of_sets":1,"coherent_direction":[31,144,144,31,144,31,31,31,31,31,31,31,144,144,31,31,31,144,144,31,144,31,144,144,31,31,31,31,144,144,144,144,144,144,31,144,31,31,144,144,31,144,31,31,144,144,31,144,31,144,31,31,31,31,31,31,144,31,144,31,31,31,144,31,144,31,31,31,31,31,31,31,31,144,144,31,144,144,31,144,144,31,144,144,31,144,144,31,31,31,31,144,144,31,144,144,31,144,144,31,144,144,144,144,31,31,144,144,144,144,144,31,31,144,31,144,144,144,31,144,31,31,31,31,31,31,144,31,31,31,144,144,144,144,31,144,144,144,144,144,144,144,144,144,144,144,31,31,144,31,31,144,31,144,144,31,31,144,31,31,144,31,144,31,144,144,31,31,144,144,144,31,31,31,144,31,144,31,31,144,144,144,31,31,144,31,31,144,31,31,31,144,31,144,144,31,144,144,144,144],"coherence":1,"opposite_coherence":0,"dot_radius":2,"dot_side_length":1,"dot_life":-1,"move_distance":1,"aperture_width":300,"aperture_height":300,"dot_color":["black","white","white","black","white","black","black","black","black","black","black","black","white","white","black","black","black","white","white","black","white","black","white","white","black","black","black","black","white","white","white","white","white","white","black","white","black","black","white","white","black","white","black","black","white","white","black","white","black","white","black","black","black","black","black","black","white","black","white","black","black","black","white","black","white","black","black","black","black","black","black","black","black","white","white","black","white","white","black","white","white","black","white","white","black","white","white","black","black","black","black","white","white","black","white","white","black","white","white","black","white","white","white","white","black","black","white","white","white","white","white","black","black","white","black","white","white","white","black","white","black","black","black","black","black","black","white","black","black","black","white","white","white","white","black","white","white","white","white","white","white","white","white","white","white","white","black","black","white","black","black","white","black","white","white","black","black","white","black","black","white","black","white","black","white","white","black","black","white","white","white","black","black","black","white","black","white","black","black","white","white","white","black","black","white","black","black","white","black","black","black","white","black","white","white","black","white","white","white","white"],"dot_shape":"circle","background_color":"#AAA","RDK_type":3,"aperture_type":2,"reinsert_type":2,"frame_rate":8.291666666666666,"frame_rate_array":[14,8,8,9,9,8,9,8,8,8,9,8,8,9,8,8,9,8,8,8,9,8,8,8,8,8,9,8,8,9,8,9,8,8,8,8,8,8,8,9,8,8,9,7,9,8,9,8,8,8,8,9,8,9,7,9,8,8,9,8,9,8,9,7,9,7,9,8,9,8,8,9,8,8,8,9,8,8,9,8,8,9,8,8,9,8,8,8,8,8,9,8,9,8,9,8,8,9,8,8,8,8,8,8,9,8,8,9,8,8,9,8,9,8,9,8,8,8,8,8,8,8,8,8,9,8,9,9,8,9,9,8,8,8,8,8,9,8,8,9,8,8,9,9,8,8,8,8,8,9,8,8,9,8,8,9,8,8,8,8,9,8,8,8,9,9,8,8,9,8,8,8,8,8,9,8,8,8,8,8,8,9,8,7,9,8,8,8,9,8,9,8,8,8,9,8,8,9,8,8,8,8,8,8,9,8,8,9,8,8,9,8,8,8,9,8,8,8,8,8,9,8,8,8,9,8,8,8,8,8,8,8,8,9,8,8,9,8,8,9],"number_of_frames":240,"aperture_center_x":960,"aperture_center_y":540,"fixation_cross":true,"fixation_cross_width":15,"fixation_cross_height":15,"fixation_cross_color":"#111","fixation_cross_thickness":1,"border":true,"border_thickness":2,"border_color":"transparent","canvas_width":1920,"canvas_height":1080,"trial_type":"rdk","trial_index":100,"plugin_version":"2.0.0","time_elapsed":235230},{"rt":3815,"stimulus":"\n        <div class=\"response-container\">\n          <div class=\"response-instruction\">\n            <p>rotate the bar by using the left and right arrow keys.</p>\n            <p>when you are determined, press the Enter key.</p>\n          </div>\n          <div class=\"response-circle\">\n            <div class=\"response-fixation\"></div>\n            <div id=\"bar\" class=\"rotating-bar\"></div>\n          </div>\n        </div>\n      ","response":"Enter","trial_type":"html-keyboard-response","trial_index":101,"plugin_version":"2.1.0","time_elapsed":239045,"random_initial_angle":283,"response_angle_css":433,"response_angle_rdk":17,"angular_error_target":-127,"angular_error_distractor":-14,"target_direction":144,"target_group":"white","reward_points":0},{"rt":null,"stimulus":"\n          <p style=\"color: #FF3333;\">Your reward: 0 points</p>\n        ","response":null,"trial_type":"html-keyboard-response","trial_index":102,"plugin_version":"2.1.0","time_elapsed":241051},{"rt":null,"stimulus":"<div class=\"fixation\" style=\"font-size: 60px;\">+</div>","response":null,"trial_type":"html-keyboard-response","trial_index":103,"plugin_version":"2.1.0","time_elapsed":242069},{"phase":"learning-awareness","target_group":"black","condition_label":"B_H_vs_W_L_rep24","target_direction":240,"distractor_direction":331,"session_rotation":115,"rt":-1,"response":"","correct":false,"choices":"ALL_KEYS","correct_choice":["a"],"trial_duration":2000,"flip_timestamps":[],"response_ends_trial":false,"number_of_apertures":200,"number_of_dots":[1,1,1,1,1,1,1,1,1,1,1,1,1,1,1,1,1,1,1,1,1,1,1,1,1,1,1,1,1,1,1,1,1,1,1,1,1,1,1,1,1,1,1,1,1,1,1,1,1,1,1,1,1,1,1,1,1,1,1,1,1,1,1,1,1,1,1,1,1,1,1,1,1,1,1,1,1,1,1,1,1,1,1,1,1,1,1,1,1,1,1,1,1,1,1,1,1,1,1,1,1,1,1,1,1,1,1,1,1,1,1,1,1,1,1,1,1,1,1,1,1,1,1,1,1,1,1,1,1,1,1,1,1,1,1,1,1,1,1,1,1,1,1,1,1,1,1,1,1,1,1,1,1,1,1,1,1,1,1,1,1,1,1,1,1,1,1,1,1,1,1,1,1,1,1,1,1,1,1,1,1,1,1,1,1,1,1,1,1,1,1,1,1,1,1,1,1,1,1,1],"number_of_sets":1,"coherent_direction":[240,331,331,331,331,240,240,331,331,331,331,240,240,240,331,240,240,331,240,240,331,240,240,240,240,240,331,240,240,331,240,240,331,331,331,331,331,240,331,240,331,240,240,331,331,240,331,331,331,331,240,240,331,240,331,331,331,240,240,240,240,331,240,331,240,240,331,240,240,240,240,331,331,240,240,331,331,240,331,240,331,331,331,240,240,331,240,331,240,331,240,240,240,331,331,331,331,331,331,240,240,331,240,240,331,240,331,240,331,331,240,240,240,331,240,331,240,331,240,240,240,331,240,331,331,240,331,240,240,331,331,240,240,240,331,331,331,240,240,240,331,240,240,240,331,331,240,331,331,240,331,331,240,240,240,240,240,331,240,331,240,331,331,331,331,240,331,331,240,240,331,331,331,331,331,331,331,240,240,240,240,240,240,240,331,240,331,331,331,240,331,331,240,331,331,240,331,331,331,240],"coherence":1,"opposite_coherence":0,"dot_radius":2,"dot_side_length":1,"dot_life":-1,"move_distance":1,"aperture_width":300,"aperture_height":300,"dot_color":["black","white","white","white","white","black","black","white","white","white","white","black","black","black","white","black","black","white","black","black","white","black","black","black","black","black","white","black","black","white","black","black","white","white","white","white","white","black","white","black","white","black","black","white","white","black","white","white","white","white","black","black","white","black","white","white","white","black","black","black","black","white","black","white","black","black","white","black","black","black","black","white","white","black","black","white","white","black","w