[{"rt":3559,"stimulus":"Welcome to the experiment. Press any key to begin.","response":" ","trial_type":"html-keyboard-response","trial_index":0,"plugin_version":"2.1.0","time_elapsed":3567},{"rt":47402,"stimulus":"\n        <div class=\"instructions-container\">\n          <h2>Instructions</h2>\n\n          <p>\n          In this experiment, you will see <strong>two Random Dot Kinematograms (RDKs)</strong> displayed simultaneously.\n          </p>\n\n          <p>\n          An RDK is a visual stimulus consisting of many small dots that move coherently in a single direction. \n          In this experiment, the dots will be either <strong>white</strong> or <strong>black</strong> \n          (see the short demo below for an example of an RDK stimulus).\n          </p>\n\n          <p>\n          On each trial, the two RDKs will move in different directions. \n          Your task is to decide <strong>which RDK appears to contain more dots</strong>.\n          </p>\n\n          <p>\n          The RDK that you judge to have more dots is called the <strong>target RDK</strong>. \n          For example, if the white RDK appears to have more dots than the black RDK, \n          you should report the motion direction of the white RDK.\n          </p>\n\n          <p>\n          After viewing the RDKs, you will rotate a bar to indicate the perceived direction of the target RDK \n          using the <strong>left</strong> and <strong>right arrow keys</strong>. \n          Press <strong>Enter</strong> when you are satisfied with your response.\n          When the bar is held down, the rotation speed increases.\n          </p>\n\n          <p>\n          You will receive points based on the <strong>accuracy of your response</strong>, \n          and your final <strong>bonus reward</strong> may depend on your overall performance. \n          Please try to respond as accurately as possible.\n          </p>\n\n          <p>\n          You will first complete <strong>16 practice trials</strong>. \n          Press the <strong>Enter</strong> key to start the practice phase.\n          </p>\n\n          <canvas id=\"instruction-demo-rdk\" width=\"200\" height=\"200\"style=\"display:block;margin:12px auto; border-radius: 50%;\"></canvas>\n        </div>\n      ","response":"Enter","trial_type":"html-keyboard-response","trial_index":1,"plugin_version":"2.1.0","time_elapsed":50969},{"rt":null,"stimulus":"<div class=\"fixation\" style=\"font-size: 60px;\">+</div>","response":null,"trial_type":"html-keyboard-response","trial_index":2,"plugin_version":"2.1.0","time_elapsed":51977},{"target_group":"black","target_index":1,"condition_label":"practice","rt":-1,"response":"","correct":false,"choices":"ALL_KEYS","correct_choice":["a"],"trial_duration":2000,"flip_timestamps":[],"response_ends_trial":false,"number_of_apertures":2,"number_of_dots":[57,100],"number_of_sets":1,"coherent_direction":[96,340],"coherence":1,"opposite_coherence":0,"dot_radius":2,"dot_side_length":1,"dot_life":-1,"move_distance":1,"aperture_width":300,"aperture_height":300,"dot_color":["white","black"],"dot_shape":"circle","background_color":"#AAA","RDK_type":3,"aperture_type":2,"reinsert_type":2,"frame_rate":16.511111111111113,"frame_rate_array":[1,15,14,16,17,17,16,17,17,16,17,16,17,17,16,17,17,16,17,17,16,16,18,16,17,17,17,16,17,17,16,17,16,17,17,16,17,16,18,16,17,17,16,17,17,16,17,16,17,17,16,17,17,16,18,15,17,17,17,16,17,16,18,16,17,17,16,17,16,17,16,18,16,17,16,17,17,16,18,16,16,17,17,16,18,16,17,16,17,16,18,16,17,17,16,16,17,17,17,16,16,17,17,17,16,17,17,16,18,16,17,17,16,17,16,17,17,17,16,17,16,17,17,17,16,16,18,16,16,17,17,17,16,17,16],"number_of_frames":135,"aperture_center_x":720,"aperture_center_y":450,"fixation_cross":true,"fixation_cross_width":15,"fixation_cross_height":15,"fixation_cross_color":"#111","fixation_cross_thickness":1,"border":true,"border_thickness":2,"border_color":"transparent","canvas_width":1440,"canvas_height":900,"trial_type":"rdk","trial_index":3,"plugin_version":"2.0.0","time_elapsed":54217,"phase":"practice","target_direction":340,"distractor_direction":96},{"rt":24815,"stimulus":"\n        <div class=\"response-container\">\n          <div class=\"response-instruction\">\n            <p>rotate the bar by using the left and right arrow keys.</p>\n            <p>when you are determined, press the Enter key.</p>\n          </div>\n          <div class=\"response-circle\">\n            <div class=\"response-fixation\"></div>\n            <div id=\"bar\" class=\"rotating-bar\"></div>\n          </div>\n        </div>\n      ","response":"Enter","trial_type":"html-keyboard-response","trial_index":4,"plugin_version":"2.1.0","time_elapsed":79035,"random_initial_angle":108,"response_angle_css":113,"response_angle_rdk":337,"angular_error_target":-3,"angular_error_distractor":-119,"target_direction":340,"target_group":"black","reward_points":9},{"rt":null,"stimulus":"\n          <p style=\"color: #00FF00;\">Your reward: 9 points</p>\n        ","response":null,"trial_type":"html-keyboard-response","trial_index":5,"plugin_version":"2.1.0","time_elapsed":81231},{"rt":null,"stimulus":"<div class=\"fixation\" style=\"font-size: 60px;\">+</div>","response":null,"trial_type":"html-keyboard-response","trial_index":6,"plugin_version":"2.1.0","time_elapsed":82239},{"target_group":"white","target_index":0,"condition_label":"practice","rt":-1,"response":"","correct":false,"choices":"ALL_KEYS","correct_choice":["a"],"trial_duration":2000,"flip_timestamps":[],"response_ends_trial":false,"number_of_apertures":2,"number_of_dots":[100,77],"number_of_sets":1,"coherent_direction":[137,35],"coherence":1,"opposite_coherence":0,"dot_radius":2,"dot_side_length":1,"dot_life":-1,"move_distance":1,"aperture_width":300,"aperture_height":300,"dot_color":["white","black"],"dot_shape":"circle","background_color":"#AAA","RDK_type":3,"aperture_type":2,"reinsert_type":2,"frame_rate":16.537190082644628,"frame_rate_array":[1,19,13,17,18,16,17,16,18,16,17,16,17,17,16,17,17,16,17,17,16,17,16,17,17,17,16,17,16,18,16,17,16,17,16,18,16,17,17,16,17,16,17,16,17,17,17,16,17,16,17,18,15,18,16,17,16,17,16,18,16,17,16,17,16,18,17,16,17,15,17,18,17,16,16,17,16,17,17,16,17,18,15,18,16,17,17,17,16,17,16,17,16,17,17,17,16,17,16,17,17,17,16,17,17,16,17,16,17,17,17,16,17,17,16,17,17,17,16,17,16],"number_of_frames":121,"aperture_center_x":720,"aperture_center_y":450,"fixation_cross":true,"fixation_cross_width":15,"fixation_cross_height":15,"fixation_cross_color":"#111","fixation_cross_thickness":1,"border":true,"border_thickness":2,"border_color":"transparent","canvas_width":1440,"canvas_height":900,"trial_type":"rdk","trial_index":7,"plugin_version":"2.0.0","time_elapsed":84246,"phase":"practice","target_direction":137,"distractor_direction":35},{"rt":8665,"stimulus":"\n        <div class=\"response-container\">\n          <div class=\"response-instruction\">\n            <p>rotate the bar by using the left and right arrow keys.</p>\n            <p>when you are determined, press the Enter key.</p>\n          </div>\n          <div class=\"response-circle\">\n            <div class=\"response-fixation\"></div>\n            <div id=\"bar\" class=\"rotating-bar\"></div>\n          </div>\n        </div>\n      ","response":"Enter","trial_type":"html-keyboard-response","trial_index":8,"plugin_version":"2.1.0","time_elapsed":92914,"random_initial_angle":261,"response_angle_css":288,"response_angle_rdk":162,"angular_error_target":25,"angular_error_distractor":127,"target_direction":137,"target_group":"white","reward_points":5},{"rt":null,"stimulus":"\n          <p style=\"color: #00FF00;\">Your reward: 5 points</p>\n        ","response":null,"trial_type":"html-keyboard-response","trial_index":9,"plugin_version":"2.1.0","time_elapsed":94921},{"rt":null,"stimulus":"<div class=\"fixation\" style=\"font-size: 60px;\">+</div>","response":null,"trial_type":"html-keyboard-response","trial_index":10,"plugin_version":"2.1.0","time_elapsed":95928},{"target_group":"white","target_index":0,"condition_label":"practice","rt":-1,"response":"","correct":false,"choices":"ALL_KEYS","correct_choice":["a"],"trial_duration":2000,"flip_timestamps":[],"response_ends_trial":false,"number_of_apertures":2,"number_of_dots":[100,75],"number_of_sets":1,"coherent_direction":[70,195],"coherence":1,"opposite_coherence":0,"dot_radius":2,"dot_side_length":1,"dot_life":-1,"move_distance":1,"aperture_width":300,"aperture_height":300,"dot_color":["white","black"],"dot_shape":"circle","background_color":"#AAA","RDK_type":3,"aperture_type":2,"reinsert_type":2,"frame_rate":16.641666666666666,"frame_rate_array":[10,17,18,17,18,17,17,16,17,17,16,17,16,18,16,17,16,17,16,17,17,16,17,17,16,18,15,18,17,16,17,17,16,17,17,16,17,17,16,16,17,17,16,18,16,17,16,17,16,18,16,17,17,16,16,18,16,17,17,16,17,16,17,17,17,16,17,16,17,17,16,17,17,17,16,17,16,17,17,17,16,17,16,17,17,17,16,17,16,17,17,16,17,17,16,17,17,17,16,17,16,18,16,16,17,17,17,16,17,17,16,17,17,16,17,17,16,17,16,17],"number_of_frames":120,"aperture_center_x":720,"aperture_center_y":450,"fixation_cross":true,"fixation_cross_width":15,"fixation_cross_height":15,"fixation_cross_color":"#111","fixation_cross_thickness":1,"border":true,"border_thickness":2,"border_color":"transparent","canvas_width":1440,"canvas_height":900,"trial_type":"rdk","trial_index":11,"plugin_version":"2.0.0","time_elapsed":97934,"phase":"practice","target_direction":70,"distractor_direction":195},{"rt":7218,"stimulus":"\n        <div class=\"response-container\">\n          <div class=\"response-instruction\">\n            <p>rotate the bar by using the left and right arrow keys.</p>\n            <p>when you are determined, press the Enter key.</p>\n          </div>\n          <div class=\"response-circle\">\n            <div class=\"response-fixation\"></div>\n            <div id=\"bar\" class=\"rotating-bar\"></div>\n          </div>\n        </div>\n      ","response":"Enter","trial_type":"html-keyboard-response","trial_index":12,"plugin_version":"2.1.0","time_elapsed":105152,"random_initial_angle":248,"response_angle_css":423,"response_angle_rdk":27,"angular_error_target":-43,"angular_error_distractor":-168,"target_direction":70,"target_group":"white","reward_points":1},{"rt":null,"stimulus":"\n          <p style=\"color: #FF3333;\">Your reward: 1 points</p>\n        ","response":null,"trial_type":"html-keyboard-response","trial_index":13,"plugin_version":"2.1.0","time_elapsed":107154},{"rt":null,"stimulus":"<div class=\"fixation\" style=\"font-size: 60px;\">+</div>","response":null,"trial_type":"html-keyboard-response","trial_index":14,"plugin_version":"2.1.0","time_elapsed":108161},{"target_group":"white","target_index":0,"condition_label":"practice","rt":-1,"response":"","correct":false,"choices":"ALL_KEYS","correct_choice":["a"],"trial_duration":2000,"flip_timestamps":[],"response_ends_trial":false,"number_of_apertures":2,"number_of_dots":[100,78],"number_of_sets":1,"coherent_direction":[142,303],"coherence":1,"opposite_coherence":0,"dot_radius":2,"dot_side_length":1,"dot_life":-1,"move_distance":1,"aperture_width":300,"aperture_height":300,"dot_color":["white","black"],"dot_shape":"circle","background_color":"#AAA","RDK_type":3,"aperture_type":2,"reinsert_type":2,"frame_rate":16.65,"frame_rate_array":[13,18,16,18,16,17,17,16,16,18,17,16,17,16,17,17,17,16,17,16,16,18,17,16,17,16,17,16,17,17,16,18,16,17,16,17,17,17,16,17,16,17,17,16,17,16,17,17,17,16,17,17,16,17,16,17,17,17,17,16,17,17,16,17,17,16,17,17,16,17,16,17,17,17,16,17,16,17,16,17,17,17,16,17,16,17,17,17,16,17,17,16,16,18,16,17,17,16,17,17,16,17,17,16,17,16,17,17,17,16,17,16,17,17,17,16,17,16,17,17],"number_of_frames":120,"aperture_center_x":720,"aperture_center_y":450,"fixation_cross":true,"fixation_cross_width":15,"fixation_cross_height":15,"fixation_cross_color":"#111","fixation_cross_thickness":1,"border":true,"border_thickness":2,"border_color":"transparent","canvas_width":1440,"canvas_height":900,"trial_type":"rdk","trial_index":15,"plugin_version":"2.0.0","time_elapsed":110170,"phase":"practice","target_direction":142,"distractor_direction":303},{"rt":3515,"stimulus":"\n        <div class=\"response-container\">\n          <div class=\"response-instruction\">\n            <p>rotate the bar by using the left and right arrow keys.</p>\n            <p>when you are determined, press the Enter key.</p>\n          </div>\n          <div class=\"response-circle\">\n            <div class=\"response-fixation\"></div>\n            <div id=\"bar\" class=\"rotating-bar\"></div>\n          </div>\n        </div>\n      ","response":"Enter","trial_type":"html-keyboard-response","trial_index":16,"plugin_version":"2.1.0","time_elapsed":113686,"random_initial_angle":261,"response_angle_css":309,"response_angle_rdk":141,"angular_error_target":-1,"angular_error_distractor":-162,"target_direction":142,"target_group":"white","reward_points":9},{"rt":null,"stimulus":"\n          <p style=\"color: #00FF00;\">Your reward: 9 points</p>\n        ","response":null,"trial_type":"html-keyboard-response","trial_index":17,"plugin_version":"2.1.0","time_elapsed":115692},{"rt":null,"stimulus":"<div class=\"fixation\" style=\"font-size: 60px;\">+</div>","response":null,"trial_type":"html-keyboard-response","trial_index":18,"plugin_version":"2.1.0","time_elapsed":116696},{"target_group":"black","target_index":1,"condition_label":"practice","rt":-1,"response":"","correct":false,"choices":"ALL_KEYS","correct_choice":["a"],"trial_duration":2000,"flip_timestamps":[],"response_ends_trial":false,"number_of_apertures":2,"number_of_dots":[79,100],"number_of_sets":1,"coherent_direction":[149,36],"coherence":1,"opposite_coherence":0,"dot_radius":2,"dot_side_length":1,"dot_life":-1,"move_distance":1,"aperture_width":300,"aperture_height":300,"dot_color":["white","black"],"dot_shape":"circle","background_color":"#AAA","RDK_type":3,"aperture_type":2,"reinsert_type":2,"frame_rate":16.647540983606557,"frame_rate_array":[14,17,16,17,16,17,17,17,16,17,17,16,17,17,17,16,16,17,17,17,16,17,17,17,16,17,16,17,17,16,17,17,16,17,17,17,16,17,16,18,16,17,16,17,16,17,17,17,16,17,17,16,17,17,16,17,16,17,17,17,16,17,16,18,16,16,17,17,16,18,16,17,16,18,15,18,17,16,17,16,16,17,17,16,17,17,16,17,17,16,17,17,16,18,16,17,16,17,17,17,16,16,17,16,18,17,16,17,16,17,17,17,17,15,16,18,17,17,16,16,18,16],"number_of_frames":122,"aperture_center_x":720,"aperture_center_y":450,"fixation_cross":true,"fixation_cross_width":15,"fixation_cross_height":15,"fixation_cross_color":"#111","fixation_cross_thickness":1,"border":true,"border_thickness":2,"border_color":"transparent","canvas_width":1440,"canvas_height":900,"trial_type":"rdk","trial_index":19,"plugin_version":"2.0.0","time_elapsed":118732,"phase":"practice","target_direction":36,"distractor_direction":149},{"rt":6072,"stimulus":"\n        <div class=\"response-container\">\n          <div class=\"response-instruction\">\n            <p>rotate the bar by using the left and right arrow keys.</p>\n            <p>when you are determined, press the Enter key.</p>\n          </div>\n          <div class=\"response-circle\">\n            <div class=\"response-fixation\"></div>\n            <div id=\"bar\" class=\"rotating-bar\"></div>\n          </div>\n        </div>\n      ","response":"Enter","trial_type":"html-keyboard-response","trial_index":20,"plugin_version":"2.1.0","time_elapsed":124804,"random_initial_angle":183,"response_angle_css":53,"response_angle_rdk":37,"angular_error_target":1,"angular_error_distractor":-112,"target_direction":36,"target_group":"black","reward_points":9},{"rt":null,"stimulus":"\n          <p style=\"color: #00FF00;\">Your reward: 9 points</p>\n        ","response":null,"trial_type":"html-keyboard-response","trial_index":21,"plugin_version":"2.1.0","time_elapsed":126811},{"rt":null,"stimulus":"<div class=\"fixation\" style=\"font-size: 60px;\">+</div>","response":null,"trial_type":"html-keyboard-response","trial_index":22,"plugin_version":"2.1.0","time_elapsed":127817},{"target_group":"white","target_index":0,"condition_label":"practice","rt":-1,"response":"","correct":false,"choices":"ALL_KEYS","correct_choice":["a"],"trial_duration":2000,"flip_timestamps":[],"response_ends_trial":false,"number_of_apertures":2,"number_of_dots":[100,59],"number_of_sets":1,"coherent_direction":[160,301],"coherence":1,"opposite_coherence":0,"dot_radius":2,"dot_side_length":1,"dot_life":-1,"move_distance":1,"aperture_width":300,"aperture_height":300,"dot_color":["white","black"],"dot_shape":"circle","background_color":"#AAA","RDK_type":3,"aperture_type":2,"reinsert_type":2,"frame_rate":16.608333333333334,"frame_rate_array":[9,17,16,18,16,16,18,16,17,16,17,17,16,17,16,17,17,17,17,16,17,16,17,17,17,16,17,16,17,17,18,15,17,16,17,17,17,16,17,16,17,17,16,17,16,18,16,17,17,16,17,17,17,16,17,16,17,16,17,17,17,16,17,16,17,17,16,17,16,18,16,17,16,17,17,17,16,17,16,17,17,16,17,17,16,17,17,16,17,17,16,17,17,17,16,17,16,17,16,17,17,17,16,17,16,17,17,17,16,17,17,16,17,17,16,17,17,17,16,17],"number_of_frames":120,"aperture_center_x":720,"aperture_center_y":450,"fixation_cross":true,"fixation_cross_width":15,"fixation_cross_height":15,"fixation_cross_color":"#111","fixation_cross_thickness":1,"border":true,"border_thickness":2,"border_color":"transparent","canvas_width":1440,"canvas_height":900,"trial_type":"rdk","trial_index":23,"plugin_version":"2.0.0","time_elapsed":129820,"phase":"practice","target_direction":160,"distractor_direction":301},{"rt":2278,"stimulus":"\n        <div class=\"response-container\">\n          <div class=\"response-instruction\">\n            <p>rotate the bar by using the left and right arrow keys.</p>\n            <p>when you are determined, press the Enter key.</p>\n          </div>\n          <div class=\"response-circle\">\n            <div class=\"response-fixation\"></div>\n            <div id=\"bar\" class=\"rotating-bar\"></div>\n          </div>\n        </div>\n      ","response":"Enter","trial_type":"html-keyboard-response","trial_index":24,"plugin_version":"2.1.0","time_elapsed":132100,"random_initial_angle":326,"response_angle_css":311,"response_angle_rdk":139,"angular_error_target":-21,"angular_error_distractor":-162,"target_direction":160,"target_group":"white","reward_points":5},{"rt":null,"stimulus":"\n          <p style=\"color: #00FF00;\">Your reward: 5 points</p>\n        ","response":null,"trial_type":"html-keyboard-response","trial_index":25,"plugin_version":"2.1.0","time_elapsed":134106},{"rt":null,"stimulus":"<div class=\"fixation\" style=\"font-size: 60px;\">+</div>","response":null,"trial_type":"html-keyboard-response","trial_index":26,"plugin_version":"2.1.0","time_elapsed":135113},{"target_group":"black","target_index":1,"condition_label":"practice","rt":-1,"response":"","correct":false,"choices":"ALL_KEYS","correct_choice":["a"],"trial_duration":2000,"flip_timestamps":[],"response_ends_trial":false,"number_of_apertures":2,"number_of_dots":[71,100],"number_of_sets":1,"coherent_direction":[320,101],"coherence":1,"opposite_coherence":0,"dot_radius":2,"dot_side_length":1,"dot_life":-1,"move_distance":1,"aperture_width":300,"aperture_height":300,"dot_color":["white","black"],"dot_shape":"circle","background_color":"#AAA","RDK_type":3,"aperture_type":2,"reinsert_type":2,"frame_rate":16.641666666666666,"frame_rate_array":[13,17,16,17,17,17,17,16,17,17,16,17,17,16,17,17,16,17,17,16,17,17,16,17,17,16,17,17,16,17,17,17,16,17,16,17,16,17,17,16,17,17,16,18,16,17,17,16,17,16,17,16,17,17,17,16,17,17,16,18,15,17,17,16,17,17,16,18,16,16,17,18,15,18,17,15,18,16,17,16,17,16,17,17,17,16,17,16,17,17,17,15,19,15,18,16,17,17,16,17,17,16,17,16,17,17,17,16,16,17,17,17,16,17,17,16,18,15,17,17],"number_of_frames":120,"aperture_center_x":720,"aperture_center_y":450,"fixation_cross":true,"fixation_cross_width":15,"fixation_cross_height":15,"fixation_cross_color":"#111","fixation_cross_thickness":1,"border":true,"border_thickness":2,"border_color":"transparent","canvas_width":1440,"canvas_height":900,"trial_type":"rdk","trial_index":27,"plugin_version":"2.0.0","time_elapsed":137117,"phase":"practice","target_direction":101,"distractor_direction":320},{"rt":2794,"stimulus":"\n        <div class=\"response-container\">\n          <div class=\"response-instruction\">\n            <p>rotate the bar by using the left and right arrow keys.</p>\n            <p>when you are determined, press the Enter key.</p>\n          </div>\n          <div class=\"response-circle\">\n            <div class=\"response-fixation\"></div>\n            <div id=\"bar\" class=\"rotating-bar\"></div>\n          </div>\n        </div>\n      ","response":"Enter","trial_type":"html-keyboard-response","trial_index":28,"plugin_version":"2.1.0","time_elapsed":139913,"random_initial_angle":133,"response_angle_css":141,"response_angle_rdk":309,"angular_error_target":-152,"angular_error_distractor":-11,"target_direction":101,"target_group":"black","reward_points":0},{"rt":null,"stimulus":"\n          <p style=\"color: #FF3333;\">Your reward: 0 points</p>\n        ","response":null,"trial_type":"html-keyboard-response","trial_index":29,"plugin_version":"2.1.0","time_elapsed":141919},{"rt":null,"stimulus":"<div class=\"fixation\" style=\"font-size: 60px;\">+</div>","response":null,"trial_type":"html-keyboard-response","trial_index":30,"plugin_version":"2.1.0","time_elapsed":142925},{"target_group":"white","target_index":0,"condition_label":"practice","rt":-1,"response":"","correct":false,"choices":"ALL_KEYS","correct_choice":["a"],"trial_duration":2000,"flip_timestamps":[],"response_ends_trial":false,"number_of_apertures":2,"number_of_dots":[100,97],"number_of_sets":1,"coherent_direction":[122,9],"coherence":1,"opposite_coherence":0,"dot_radius":2,"dot_side_length":1,"dot_life":-1,"move_distance":1,"aperture_width":300,"aperture_height":300,"dot_color":["white","black"],"dot_shape":"circle","background_color":"#AAA","RDK_type":3,"aperture_type":2,"reinsert_type":2,"frame_rate":16.52892561983471,"frame_rate_array":[2,19,13,17,17,16,16,18,16,17,16,17,17,17,16,17,16,16,18,16,17,17,17,17,16,17,17,16,17,16,17,16,17,17,17,16,17,16,17,17,16,17,17,16,17,17,16,17,17,17,17,16,17,16,17,16,17,17,17,16,17,16,17,17,17,16,17,17,16,17,17,16,17,16,17,17,17,16,17,17,16,17,17,16,17,17,16,17,16,17,17,17,16,17,16,17,17,17,16,17,16,17,17,16,17,17,16,17,17,16,18,16,16,17,17,17,16,17,16,17,16],"number_of_frames":121,"aperture_center_x":720,"aperture_center_y":450,"fixation_cross":true,"fixation_cross_width":15,"fixation_cross_height":15,"fixation_cross_color":"#111","fixation_cross_thickness":1,"border":true,"border_thickness":2,"border_color":"transparent","canvas_width":1440,"canvas_height":900,"trial_type":"rdk","trial_index":31,"plugin_version":"2.0.0","time_elapsed":144930,"phase":"practice","target_direction":122,"distractor_direction":9},{"rt":4482,"stimulus":"\n        <div class=\"response-container\">\n          <div class=\"response-instruction\">\n            <p>rotate the bar by using the left and right arrow keys.</p>\n            <p>when you are determined, press the Enter key.</p>\n          </div>\n          <div class=\"response-circle\">\n            <div class=\"response-fixation\"></div>\n            <div id=\"bar\" class=\"rotating-bar\"></div>\n          </div>\n        </div>\n      ","response":"Enter","trial_type":"html-keyboard-response","trial_index":32,"plugin_version":"2.1.0","time_elapsed":149412,"random_initial_angle":117,"response_angle_css":-41,"response_angle_rdk":131,"angular_error_target":9,"angular_error_distractor":122,"target_direction":122,"target_group":"white","reward_points":8},{"rt":null,"stimulus":"\n          <p style=\"color: #00FF00;\">Your reward: 8 points</p>\n        ","response":null,"trial_type":"html-keyboard-response","trial_index":33,"plugin_version":"2.1.0","time_elapsed":151419},{"rt":null,"stimulus":"<div class=\"fixation\" style=\"font-size: 60px;\">+</div>","response":null,"trial_type":"html-keyboard-response","trial_index":34,"plugin_version":"2.1.0","time_elapsed":152425},{"target_group":"black","target_index":1,"condition_label":"practice","rt":-1,"response":"","correct":false,"choices":"ALL_KEYS","correct_choice":["a"],"trial_duration":2000,"flip_timestamps":[],"response_ends_trial":false,"number_of_apertures":2,"number_of_dots":[70,100],"number_of_sets":1,"coherent_direction":[266,40],"coherence":1,"opposite_coherence":0,"dot_radius":2,"dot_side_length":1,"dot_life":-1,"move_distance":1,"aperture_width":300,"aperture_height":300,"dot_color":["white","black"],"dot_shape":"circle","background_color":"#AAA","RDK_type":3,"aperture_type":2,"reinsert_type":2,"frame_rate":16.541666666666668,"frame_rate_array":[1,21,12,17,17,17,17,16,17,17,16,17,16,17,16,17,16,17,18,16,17,17,16,16,18,17,16,17,16,17,17,16,17,16,17,17,16,17,17,16,17,17,16,17,17,17,16,17,16,17,17,17,16,17,17,16,17,16,17,17,16,17,17,16,17,17,16,17,17,16,17,17,16,17,17,16,17,17,16,17,17,17,16,17,17,16,17,17,17,16,16,17,17,16,17,17,16,17,16,17,17,17,16,17,16,17,17,16,17,17,17,17,16,17,16,17,17,16,17,17],"number_of_frames":120,"aperture_center_x":720,"aperture_center_y":450,"fixation_cross":true,"fixation_cross_width":15,"fixation_cross_height":15,"fixation_cross_color":"#111","fixation_cross_thickness":1,"border":true,"border_thickness":2,"border_color":"transparent","canvas_width":1440,"canvas_height":900,"trial_type":"rdk","trial_index":35,"plugin_version":"2.0.0","time_elapsed":154429,"phase":"practice","target_direction":40,"distractor_direction":266},{"rt":4577,"stimulus":"\n        <div class=\"response-container\">\n          <div class=\"response-instruction\">\n            <p>rotate the bar by using the left and right arrow keys.</p>\n            <p>when you are determined, press the Enter key.</p>\n          </div>\n          <div class=\"response-circle\">\n            <div class=\"response-fixation\"></div>\n            <div id=\"bar\" class=\"rotating-bar\"></div>\n          </div>\n        </div>\n      ","response":"Enter","trial_type":"html-keyboard-response","trial_index":36,"plugin_version":"2.1.0","time_elapsed":159008,"random_initial_angle":4,"response_angle_css":-160,"response_angle_rdk":250,"angular_error_target":-150,"angular_error_distractor":-16,"target_direction":40,"target_group":"black","reward_points":0},{"rt":null,"stimulus":"\n          <p style=\"color: #FF3333;\">Your reward: 0 points</p>\n        ","response":null,"trial_type":"html-keyboard-response","trial_index":37,"plugin_version":"2.1.0","time_elapsed":161014},{"rt":null,"stimulus":"<div class=\"fixation\" style=\"font-size: 60px;\">+</div>","response":null,"trial_type":"html-keyboard-response","trial_index":38,"plugin_version":"2.1.0","time_elapsed":162021},{"target_group":"white","target_index":0,"condition_label":"practice","rt":-1,"response":"","correct":false,"choices":"ALL_KEYS","correct_choice":["a"],"trial_duration":2000,"flip_timestamps":[],"response_ends_trial":false,"number_of_apertures":2,"number_of_dots":[100,74],"number_of_sets":1,"coherent_direction":[297,159],"coherence":1,"opposite_coherence":0,"dot_radius":2,"dot_side_length":1,"dot_life":-1,"move_distance":1,"aperture_width":300,"aperture_height":300,"dot_color":["white","black"],"dot_shape":"circle","background_color":"#AAA","RDK_type":3,"aperture_type":2,"reinsert_type":2,"frame_rate":16.575,"frame_rate_array":[4,22,11,18,17,17,17,16,17,17,16,17,17,17,16,17,16,17,17,16,17,17,17,16,17,16,17,17,16,17,17,17,16,17,16,17,17,16,17,17,17,16,17,16,17,17,17,16,17,16,17,17,16,17,17,16,17,17,16,17,17,16,17,16,17,17,16,17,17,17,17,16,17,16,17,17,17,16,17,16,17,17,16,17,17,16,17,17,16,17,16,17,17,16,17,17,17,17,16,17,16,17,17,16,17,17,16,17,16,18,16,17,16,17,16,17,17,17,16,17],"number_of_frames":120,"aperture_center_x":720,"aperture_center_y":450,"fixation_cross":true,"fixation_cross_width":15,"fixation_cross_height":15,"fixation_cross_color":"#111","fixation_cross_thickness":1,"border":true,"border_thickness":2,"border_color":"transparent","canvas_width":1440,"canvas_height":900,"trial_type":"rdk","trial_index":39,"plugin_version":"2.0.0","time_elapsed":164026,"phase":"practice","target_direction":297,"distractor_direction":159},{"rt":4393,"stimulus":"\n        <div class=\"response-container\">\n          <div class=\"response-instruction\">\n            <p>rotate the bar by using the left and right arrow keys.</p>\n            <p>when you are determined, press the Enter key.</p>\n          </div>\n          <div class=\"response-circle\">\n            <div class=\"response-fixation\"></div>\n            <div id=\"bar\" class=\"rotating-bar\"></div>\n          </div>\n        </div>\n      ","response":"Enter","trial_type":"html-keyboard-response","trial_index":40,"plugin_version":"2.1.0","time_elapsed":168418,"random_initial_angle":100,"response_angle_css":-59,"response_angle_rdk":149,"angular_error_target":-148,"angular_error_distractor":-10,"target_direction":297,"target_group":"white","reward_points":0},{"rt":null,"stimulus":"\n          <p style=\"color: #FF3333;\">Your reward: 0 points</p>\n        ","response":null,"trial_type":"html-keyboard-response","trial_index":41,"plugin_version":"2.1.0","time_elapsed":170424},{"rt":null,"stimulus":"<div class=\"fixation\" style=\"font-size: 60px;\">+</div>","response":null,"trial_type":"html-keyboard-response","trial_index":42,"plugin_version":"2.1.0","time_elapsed":171431},{"target_group":"white","target_index":0,"condition_label":"practice","rt":-1,"response":"","correct":false,"choices":"ALL_KEYS","correct_choice":["a"],"trial_duration":2000,"flip_timestamps":[],"response_ends_trial":false,"number_of_apertures":2,"number_of_dots":[100,85],"number_of_sets":1,"coherent_direction":[322,204],"coherence":1,"opposite_coherence":0,"dot_radius":2,"dot_side_length":1,"dot_life":-1,"move_distance":1,"aperture_width":300,"aperture_height":300,"dot_color":["white","black"],"dot_shape":"circle","background_color":"#AAA","RDK_type":3,"aperture_type":2,"reinsert_type":2,"frame_rate":16.625,"frame_rate_array":[11,17,16,18,17,15,17,17,17,16,17,18,15,18,16,17,16,18,15,18,16,17,16,18,15,18,16,17,17,16,17,17,16,17,17,16,17,16,17,17,16,17,17,16,17,16,17,17,17,17,16,17,17,17,16,17,16,17,17,16,17,17,16,17,16,17,17,17,17,15,18,16,17,16,17,16,18,17,16,17,16,16,17,17,17,17,16,17,17,16,17,17,16,17,16,18,16,17,16,17,17,16,17,16,18,15,18,17,16,16,17,17,17,16,17,17,16,17,17,16],"number_of_frames":120,"aperture_center_x":720,"aperture_center_y":450,"fixation_cross":true,"fixation_cross_width":15,"fixation_cross_height":15,"fixation_cross_color":"#111","fixation_cross_thickness":1,"border":true,"border_thickness":2,"border_color":"transparent","canvas_width":1440,"canvas_height":900,"trial_type":"rdk","trial_index":43,"plugin_version":"2.0.0","time_elapsed":173439,"phase":"practice","target_direction":322,"distractor_direction":204},{"rt":6801,"stimulus":"\n        <div class=\"response-container\">\n          <div class=\"response-instruction\">\n            <p>rotate the bar by using the left and right arrow keys.</p>\n            <p>when you are determined, press the Enter key.</p>\n          </div>\n          <div class=\"response-circle\">\n            <div class=\"response-fixation\"></div>\n            <div id=\"bar\" class=\"rotating-bar\"></div>\n          </div>\n        </div>\n      ","response":"Enter","trial_type":"html-keyboard-response","trial_index":44,"plugin_version":"2.1.0","time_elapsed":180242,"random_initial_angle":301,"response_angle_css":117,"response_angle_rdk":333,"angular_error_target":11,"angular_error_distractor":129,"target_direction":322,"target_group":"white","reward_points":7},{"rt":null,"stimulus":"\n          <p style=\"color: #00FF00;\">Your reward: 7 points</p>\n        ","response":null,"trial_type":"html-keyboard-response","trial_index":45,"plugin_version":"2.1.0","time_elapsed":182248},{"rt":null,"stimulus":"<div class=\"fixation\" style=\"font-size: 60px;\">+</div>","response":null,"trial_type":"html-keyboard-response","trial_index":46,"plugin_version":"2.1.0","time_elapsed":183255},{"target_group":"black","target_index":1,"condition_label":"practice","rt":-1,"response":"","correct":false,"choices":"ALL_KEYS","correct_choice":["a"],"trial_duration":2000,"flip_timestamps":[],"response_ends_trial":false,"number_of_apertures":2,"number_of_dots":[94,100],"number_of_sets":1,"coherent_direction":[147,256],"coherence":1,"opposite_coherence":0,"dot_radius":2,"dot_side_length":1,"dot_life":-1,"move_distance":1,"aperture_width":300,"aperture_height":300,"dot_color":["white","black"],"dot_shape":"circle","background_color":"#AAA","RDK_type":3,"aperture_type":2,"reinsert_type":2,"frame_rate":16.566666666666666,"frame_rate_array":[4,22,11,18,17,16,17,17,16,17,17,17,16,17,16,17,16,17,17,17,17,16,17,16,16,16,19,15,18,16,17,17,16,17,17,17,16,17,16,17,17,16,17,17,16,17,17,16,17,16,17,17,17,17,15,18,16,17,17,17,16,17,16,17,17,16,17,17,17,16,17,16,17,16,18,16,17,16,17,16,17,17,17,17,15,18,17,16,17,16,17,17,17,16,17,16,17,16,17,17,16,17,17,16,17,17,16,17,17,17,17,16,17,16,17,17,16,17,16,17],"number_of_frames":120,"aperture_center_x":720,"aperture_center_y":450,"fixation_cross":true,"fixation_cross_width":15,"fixation_cross_height":15,"fixation_cross_color":"#111","fixation_cross_thickness":1,"border":true,"border_thickness":2,"border_color":"transparent","canvas_width":1440,"canvas_height":900,"trial_type":"rdk","trial_index":47,"plugin_version":"2.0.0","time_elapsed":185259,"phase":"practice","target_direction":256,"distractor_direction":147},{"rt":3046,"stimulus":"\n        <div class=\"response-container\">\n          <div class=\"response-instruction\">\n            <p>rotate the bar by using the left and right arrow keys.</p>\n            <p>when you are determined, press the Enter key.</p>\n          </div>\n          <div class=\"response-circle\">\n            <div class=\"response-fixation\"></div>\n            <div id=\"bar\" class=\"rotating-bar\"></div>\n          </div>\n        </div>\n      ","response":"Enter","trial_type":"html-keyboard-response","trial_index":48,"plugin_version":"2.1.0","time_elapsed":188306,"random_initial_angle":266,"response_angle_css":301,"response_angle_rdk":149,"angular_error_target":-107,"angular_error_distractor":2,"target_direction":256,"target_group":"black","reward_points":0},{"rt":null,"stimulus":"\n          <p style=\"color: #FF3333;\">Your reward: 0 points</p>\n        ","response":null,"trial_type":"html-keyboard-response","trial_index":49,"plugin_version":"2.1.0","time_elapsed":190312},{"rt":null,"stimulus":"<div class=\"fixation\" style=\"font-size: 60px;\">+</div>","response":null,"trial_type":"html-keyboard-response","trial_index":50,"plugin_version":"2.1.0","time_elapsed":191318},{"target_group":"black","target_index":1,"condition_label":"practice","rt":-1,"response":"","correct":false,"choices":"ALL_KEYS","correct_choice":["a"],"trial_duration":2000,"flip_timestamps":[],"response_ends_trial":false,"number_of_apertures":2,"number_of_dots":[51,100],"number_of_sets":1,"coherent_direction":[244,56],"coherence":1,"opposite_coherence":0,"dot_radius":2,"dot_side_length":1,"dot_life":-1,"move_distance":1,"aperture_width":300,"aperture_height":300,"dot_color":["white","black"],"dot_shape":"circle","background_color":"#AAA","RDK_type":3,"aperture_type":2,"reinsert_type":2,"frame_rate":16.608333333333334,"frame_rate_array":[9,18,15,17,16,17,17,16,17,17,16,17,17,16,17,17,16,17,17,17,17,16,17,16,17,17,16,17,17,16,17,17,17,16,16,17,17,16,17,16,17,17,16,18,17,16,16,17,16,18,17,16,17,16,17,17,16,17,17,16,17,17,17,16,17,16,17,16,17,17,17,17,16,17,16,17,17,17,16,16,17,17,16,17,17,17,16,17,17,16,17,17,16,17,17,16,17,17,16,17,16,17,17,16,17,16,18,16,17,17,17,16,17,16,17,17,16,17,17,17],"number_of_frames":120,"aperture_center_x":720,"aperture_center_y":450,"fixation_cross":true,"fixation_cross_width":15,"fixation_cross_height":15,"fixation_cross_color":"#111","fixation_cross_thickness":1,"border":true,"border_thickness":2,"border_color":"transparent","canvas_width":1440,"canvas_height":900,"trial_type":"rdk","trial_index":51,"plugin_version":"2.0.0","time_elapsed":193329,"phase":"practice","target_direction":56,"distractor_direction":244},{"rt":3788,"stimulus":"\n        <div class=\"response-container\">\n          <div class=\"response-instruction\">\n            <p>rotate the bar by using the left and right arrow keys.</p>\n            <p>when you are determined, press the Enter key.</p>\n          </div>\n          <div class=\"response-circle\">\n            <div class=\"response-fixation\"></div>\n            <div id=\"bar\" class=\"rotating-bar\"></div>\n          </div>\n        </div>\n      ","response":"Enter","trial_type":"html-keyboard-response","trial_index":52,"plugin_version":"2.1.0","time_elapsed":197119,"random_initial_angle":180,"response_angle_css":201,"response_angle_rdk":249,"angular_error_target":-167,"angular_error_distractor":5,"target_direction":56,"target_group":"black","reward_points":0},{"rt":null,"stimulus":"\n          <p style=\"color: #FF3333;\">Your reward: 0 points</p>\n        ","response":null,"trial_type":"html-keyboard-response","trial_index":53,"plugin_version":"2.1.0","time_elapsed":199123},{"rt":null,"stimulus":"<div class=\"fixation\" style=\"font-size: 60px;\">+</div>","response":null,"trial_type":"html-keyboard-response","trial_index":54,"plugin_version":"2.1.0","time_elapsed":200131},{"target_group":"black","target_index":1,"condition_label":"practice","rt":-1,"response":"","correct":false,"choices":"ALL_KEYS","correct_choice":["a"],"trial_duration":2000,"flip_timestamps":[],"response_ends_trial":false,"number_of_apertures":2,"number_of_dots":[80,100],"number_of_sets":1,"coherent_direction":[358,234],"coherence":1,"opposite_coherence":0,"dot_radius":2,"dot_side_length":1,"dot_life":-1,"move_distance":1,"aperture_width":300,"aperture_height":300,"dot_color":["white","black"],"dot_shape":"circle","background_color":"#AAA","RDK_type":3,"aperture_type":2,"reinsert_type":2,"frame_rate":16.616666666666667,"frame_rate_array":[10,17,16,18,16,17,17,17,16,16,18,17,16,16,17,17,16,17,17,16,17,17,16,17,17,17,16,17,16,17,17,16,17,17,16,18,16,16,17,17,16,18,15,18,16,17,17,16,17,16,17,17,16,17,17,16,17,17,16,18,16,16,17,16,17,18,16,17,16,17,17,17,16,17,16,17,16,17,17,16,18,16,17,15,18,16,18,16,17,17,16,17,17,16,17,16,17,17,16,17,17,16,17,17,16,17,17,17,16,16,17,17,17,16,17,16,18,16,17,16],"number_of_frames":120,"aperture_center_x":720,"aperture_center_y":450,"fixation_cross":true,"fixation_cross_width":15,"fixation_cross_height":15,"fixation_cross_color":"#111","fixation_cross_thickness":1,"border":true,"border_thickness":2,"border_color":"transparent","canvas_width":1440,"canvas_height":900,"trial_type":"rdk","trial_index":55,"plugin_version":"2.0.0","time_elapsed":202135,"phase":"practice","target_direction":234,"distractor_direction":358},{"rt":4976,"stimulus":"\n        <div class=\"response-container\">\n          <div class=\"response-instruction\">\n            <p>rotate the bar by using the left and right arrow keys.</p>\n            <p>when you are determined, press the Enter key.</p>\n          </div>\n          <div class=\"response-circle\">\n            <div class=\"response-fixation\"></div>\n            <div id=\"bar\" class=\"rotating-bar\"></div>\n          </div>\n        </div>\n      ","response":"Enter","trial_type":"html-keyboard-response","trial_index":56,"plugin_version":"2.1.0","time_elapsed":207112,"random_initial_angle":177,"response_angle_css":53,"response_angle_rdk":37,"angular_error_target":163,"angular_error_distractor":39,"target_direction":234,"target_group":"black","reward_points":0},{"rt":null,"stimulus":"\n          <p style=\"color: #FF3333;\">Your reward: 0 points</p>\n        ","response":null,"trial_type":"html-keyboard-response","trial_index":57,"plugin_version":"2.1.0","time_elapsed":209118},{"rt":null,"stimulus":"<div class=\"fixation\" style=\"font-size: 60px;\">+</div>","response":null,"trial_type":"html-keyboard-response","trial_index":58,"plugin_version":"2.1.0","time_elapsed":210125},{"target_group":"black","target_index":1,"condition_label":"practice","rt":-1,"response":"","correct":false,"choices":"ALL_KEYS","correct_choice":["a"],"trial_duration":2000,"flip_timestamps":[],"response_ends_trial":false,"number_of_apertures":2,"number_of_dots":[51,100],"number_of_sets":1,"coherent_direction":[281,138],"coherence":1,"opposite_coherence":0,"dot_radius":2,"dot_side_length":1,"dot_life":-1,"move_distance":1,"aperture_width":300,"aperture_height":300,"dot_color":["white","black"],"dot_shape":"circle","background_color":"#AAA","RDK_type":3,"aperture_type":2,"reinsert_type":2,"frame_rate":16.5327868852459,"frame_rate_array":[1,20,12,17,17,16,18,17,16,17,16,17,17,16,17,17,17,16,17,16,18,15,18,16,17,17,16,17,17,16,17,15,18,17,17,16,17,16,17,17,16,17,17,17,16,17,16,17,17,17,16,17,17,16,16,18,16,16,18,16,17,16,17,17,17,16,17,16,17,17,17,16,17,16,17,17,16,17,16,18,16,17,17,16,17,17,17,16,17,16,17,17,16,17,17,16,17,16,17,17,17,16,17,16,17,17,17,16,17,17,16,17,16,17,17,17,16,17,16,17,17,16],"number_of_frames":122,"aperture_center_x":720,"aperture_center_y":450,"fixation_cross":true,"fixation_cross_width":15,"fixation_cross_height":15,"fixation_cross_color":"#111","fixation_cross_thickness":1,"border":true,"border_thickness":2,"border_color":"transparent","canvas_width":1440,"canvas_height":900,"trial_type":"rdk","trial_index":59,"plugin_version":"2.0.0","time_elapsed":212146,"phase":"practice","target_direction":138,"distractor_direction":281},{"rt":3717,"stimulus":"\n        <div class=\"response-container\">\n          <div class=\"response-instruction\">\n            <p>rotate the bar by using the left and right arrow keys.</p>\n            <p>when you are determined, press the Enter key.</p>\n          </div>\n          <div class=\"response-circle\">\n            <div class=\"response-fixation\"></div>\n            <div id=\"bar\" class=\"rotating-bar\"></div>\n          </div>\n        </div>\n      ","response":"Enter","trial_type":"html-keyboard-response","trial_index":60,"plugin_version":"2.1.0","time_elapsed":215866,"random_initial_angle":227,"response_angle_css":307,"response_angle_rdk":143,"angular_error_target":5,"angular_error_distractor":-138,"target_direction":138,"target_group":"black","reward_points":9},{"rt":null,"stimulus":"\n          <p style=\"color: #00FF00;\">Your reward: 9 points</p>\n        ","response":null,"trial_type":"html-keyboard-response","trial_index":61,"plugin_version":"2.1.0","time_elapsed":217870},{"rt":null,"stimulus":"<div class=\"fixation\" style=\"font-size: 60px;\">+</div>","response":null,"trial_type":"html-keyboard-response","trial_index":62,"plugin_version":"2.1.0","time_elapsed":218878},{"target_group":"white","target_index":0,"condition_label":"practice","rt":-1,"response":"","correct":false,"choices":"ALL_KEYS","correct_choice":["a"],"trial_duration":2000,"flip_timestamps":[],"response_ends_trial":false,"number_of_apertures":2,"number_of_dots":[100,63],"number_of_sets":1,"coherent_direction":[31,122],"coherence":1,"opposite_coherence":0,"dot_radius":2,"dot_side_length":1,"dot_life":-1,"move_distance":1,"aperture_width":300,"aperture_height":300,"dot_color":["white","black"],"dot_shape":"circle","background_color":"#AAA","RDK_type":3,"aperture_type":2,"reinsert_type":2,"frame_rate":16.658333333333335,"frame_rate_array":[14,17,17,16,17,17,17,16,17,17,16,18,16,16,17,17,16,18,15,18,16,17,17,16,17,16,17,17,17,16,17,17,16,16,17,17,17,16,17,17,17,16,17,16,18,15,18,16,17,16,17,17,16,17,17,17,16,17,16,17,16,17,17,17,16,17,17,16,18,16,16,17,17,16,18,16,17,16,17,16,17,16,18,17,15,17,17,17,16,17,16,17,17,17,16,17,16,18,17,16,17,17,16,17,17,15,18,16,17,17,17,16,17,16,17,16,17,17,16,18],"number_of_frames":120,"aperture_center_x":720,"aperture_center_y":450,"fixation_cross":true,"fixation_cross_width":15,"fixation_cross_height":15,"fixation_cross_color":"#111","fixation_cross_thickness":1,"border":true,"border_thickness":2,"border_color":"transparent","canvas_width":1440,"canvas_height":900,"trial_type":"rdk","trial_index":63,"plugin_version":"2.0.0","time_elapsed":220886,"phase":"practice","target_direction":31,"distractor_direction":122},{"rt":5610,"stimulus":"\n        <div class=\"response-container\">\n          <div class=\"response-instruction\">\n            <p>rotate the bar by using the left and right arrow keys.</p>\n            <p>when you are determined, press the Enter key.</p>\n          </div>\n          <div class=\"response-circle\">\n            <div class=\"response-fixation\"></div>\n            <div id=\"bar\" class=\"rotating-bar\"></div>\n          </div>\n        </div>\n      ","response":"Enter","trial_type":"html-keyboard-response","trial_index":64,"plugin_version":"2.1.0","time_elapsed":226498,"random_initial_angle":168,"response_angle_css":-51,"response_angle_rdk":141,"angular_error_target":110,"angular_error_distractor":19,"target_direction":31,"target_group":"white","reward_points":0},{"rt":null,"stimulus":"\n          <p style=\"color: #FF3333;\">Your reward: 0 points</p>\n        ","response":null,"trial_type":"html-keyboard-response","trial_index":65,"plugin_version":"2.1.0","time_elapsed":228499},{"rt":10653,"stimulus":"\n        <div class=\"instructions-container\">\n          <h2>End of Practice</h2>\n          <p>You have completed the practice trials.</p>\n          <p>Press <strong>Enter</strong> key to begin the main experiment.</p>\n        </div>\n      ","response":"Enter","trial_type":"html-keyboard-response","trial_index":66,"plugin_version":"2.1.0","time_elapsed":239151},{"rt":null,"stimulus":"<div class=\"fixation\" style=\"font-size: 60px;\">+</div>","response":null,"trial_type":"html-keyboard-response","trial_index":67,"plugin_version":"2.1.0","time_elapsed":240157},{"phase":"learning-awareness","target_group":"black","condition_label":"B_H_vs_W_L_rep13","target_direction":290,"distractor_direction":37,"session_rotation":188,"rt":-1,"response":"","correct":false,"choices":"ALL_KEYS","correct_choice":["a"],"trial_duration":2000,"flip_timestamps":[],"response_ends_trial":false,"number_of_apertures":200,"number_of_dots":[1,1,1,1,1,1,1,1,1,1,1,1,1,1,1,1,1,1,1,1,1,1,1,1,1,1,1,1,1,1,1,1,1,1,1,1,1,1,1,1,1,1,1,1,1,1,1,1,1,1,1,1,1,1,1,1,1,1,1,1,1,1,1,1,1,1,1,1,1,1,1,1,1,1,1,1,1,1,1,1,1,1,1,1,1,1,1,1,1,1,1,1,1,1,1,1,1,1,1,1,1,1,1,1,1,1,1,1,1,1,1,1,1,1,1,1,1,1,1,1,1,1,1,1,1,1,1,1,1,1,1,1,1,1,1,1,1,1,1,1,1,1,1,1,1,1,1,1,1,1,1,1,1,1,1,1,1,1,1,1,1,1,1,1,1,1,1,1,1,1,1,1,1,1,1,1,1,1,1,1,1,1,1,1,1,1,1,1,1,1,1,1,1,1,1,1,1,1,1,1],"number_of_sets":1,"coherent_direction":[37,290,37,37,37,37,290,37,290,290,37,37,290,290,290,290,290,37,37,290,37,290,290,290,37,37,290,290,37,37,290,37,290,290,290,37,290,37,290,37,290,37,290,37,37,290,37,290,37,290,290,290,290,290,37,290,290,37,37,37,37,290,37,37,290,37,37,290,290,37,290,290,37,290,37,37,290,290,37,290,37,290,37,37,290,37,290,37,37,37,37,290,37,290,290,37,290,37,37,37,37,290,290,290,37,37,37,37,290,290,290,37,290,37,37,37,37,290,37,37,37,290,290,37,290,290,37,290,37,290,37,37,37,290,37,290,290,290,290,290,37,290,290,290,37,37,290,37,290,37,290,37,37,290,37,290,37,290,290,37,37,37,37,290,290,290,290,290,290,37,37,290,290,290,37,290,37,290,37,290,37,37,37,290,290,290,290,290,37,290,37,290,37,37,37,37,290,290,37,37],"coherence":1,"opposite_coherence":0,"dot_radius":2,"dot_side_length":1,"dot_life":-1,"move_distance":1,"aperture_width":300,"aperture_height":300,"dot_color":["white","black","white","white","white","white","black","white","black","black","white","white","black","black","black","black","black","white","white","black","white","black","black","black","white","white","black","black","white","white","black","white","black","black","black","white","black","white","black","white","black","white","black","white","white","black","white","black","white","black","black","black","black","black","white","black","black","white","white","white","white","black","white","white","black","white","white","black","black","white","black","black","white","black","white","white","black","black","white","black","white","black","white","white","black","white","black","white","white","white","white","black","white","black","black","white","black","white","white","white","white","black","black","black","white","white","white","white","black","black","black","white","black","white","white","white","white","black","white","white","white","black","black","white","black","black","white","black","white","black","white","white","white","black","white","black","black","black","black","black","white","black","black","black","white","white","black","white","black","white","black","white","white","black","white","black","white","black","black","white","white","white","white","black","black","black","black","black","black","white","white","black","black","black","white","black","white","black","white","black","white","white","white","black","black","black","black","black","white","black","white","black","white","white","white","white","black","black","white","white"],"dot_shape":"circle","background_color":"#AAA","RDK_type":3,"aperture_type":2,"reinsert_type":2,"frame_rate":16.55,"frame_rate_array":[2,20,13,17,17,16,18,17,16,16,17,18,16,16,17,17,16,18,15,17,17,17,16,18,15,18,16,17,16,18,16,17,16,17,16,17,17,16,18,15,18,16,17,16,17,17,17,17,16,16,18,15,18,17,16,17,16,17,16,18,16,17,16,17,17,16,17,16,18,15,18,16,18,15,18,16,17,17,16,17,17,16,17,17,16,17,16,17,17,16,17,17,17,16,17,16,17,17,16,17,17,16,16,18,17,16,16,17,17,17,17,16,17,16,17,16,17,17,16,17],"number_of_frames":120,"aperture_center_x":720,"aperture_center_y":450,"fixation_cross":true,"fixation_cross_width":15,"fixation_cross_height":15,"fixation_cross_color":"#111","fixation_cross_thickness":1,"border":true,"border_thickness":2,"border_color":"transparent","canvas_width":1440,"canvas_height":900,"trial_type":"rdk","trial_index":68,"plugin_version":"2.0.0","time_elapsed":242162},{"rt":6044,"stimulus":"\n        <div class=\"response-container\">\n          <div class=\"response-instruction\">\n            <p>rotate the bar by using the left and right arrow keys.</p>\n            <p>when you are determined, press the Enter key.</p>\n          </div>\n          <div class=\"response-circle\">\n            <div class=\"response-fixation\"></div>\n            <div id=\"bar\" class=\"rotating-bar\"></div>\n          </div>\n        </div>\n      ","response":"Enter","trial_type":"html-keyboard-response","trial_index":69,"plugin_version":"2.1.0","time_elapsed":248207,"random_initial_angle":248,"response_angle_css":398,"response_angle_rdk":52,"angular_error_target":122,"angular_error_distractor":15,"target_direction":290,"target_group":"black","reward_points":0},{"rt":null,"stimulus":"\n          <p style=\"color: #FF3333;\">Your reward: 0 points</p>\n        ","response":null,"trial_type":"html-keyboard-response","trial_index":70,"plugin_version":"2.1.0","time_elapsed":250212},{"rt":null,"stimulus":"<div class=\"fixation\" style=\"font-size: 60px;\">+</div>","response":null,"trial_type":"html-keyboard-response","trial_index":71,"plugin_version":"2.1.0","time_elapsed":251218},{"phase":"learning-awareness","target_group":"white","condition_label":"W_H_vs_B_L_rep11","target_direction":225,"distractor_direction":135,"session_rotation":188,"rt":-1,"response":"","correct":false,"choices":"ALL_KEYS","correct_choice":["a"],"trial_duration":2000,"flip_timestamps":[],"response_ends_trial":false,"number_of_apertures":200,"number_of_dots":[1,1,1,1,1,1,1,1,1,1,1,1,1,1,1,1,1,1,1,1,1,1,1,1,1,1,1,1,1,1,1,1,1,1,1,1,1,1,1,1,1,1,1,1,1,1,1,1,1,1,1,1,1,1,1,1,1,1,1,1,1,1,1,1,1,1,1,1,1,1,1,1,1,1,1,1,1,1,1,1,1,1,1,1,1,1,1,1,1,1,1,1,1,1,1,1,1,1,1,1,1,1,1,1,1,1,1,1,1,1,1,1,1,1,1,1,1,1,1,1,1,1,1,1,1,1,1,1,1,1,1,1,1,1,1,1,1,1,1,1,1,1,1,1,1,1,1,1,1,1,1,1,1,1,1,1,1,1,1,1,1,1,1,1,1,1,1,1,1,1,1,1,1,1,1,1,1,1,1,1,1,1,1,1,1,1,1,1,1,1,1,1,1,1,1,1,1,1,1,1],"number_of_sets":1,"coherent_direction":[225,225,135,225,225,225,225,225,225,135,225,135,135,225,135,225,135,225,225,225,135,135,135,225,225,135,225,135,225,135,225,225,135,225,225,135,135,135,135,225,225,225,225,225,225,135,225,135,135,225,135,225,135,225,135,225,135,135,135,225,135,135,135,135,135,135,135,225,225,135,225,225,225,225,225,135,135,135,225,225,135,225,135,135,135,135,135,135,225,135,225,225,135,135,225,135,225,225,225,135,135,135,225,135,135,135,225,135,225,135,225,135,135,135,225,225,225,135,225,135,135,135,135,135,225,135,225,135,225,225,135,225,135,135,135,225,135,135,225,225,225,225,225,225,135,135,225,225,225,135,225,225,225,225,135,225,135,135,225,225,135,225,135,225,225,135,225,225,135,135,225,225,135,135,135,225,225,225,135,225,135,225,135,135,135,135,135,225,225,225,135,225,225,225,135,135,135,225,135,135],"coherence":1,"opposite_coherence":0,"dot_radius":2,"dot_side_length":1,"dot_life":-1,"move_distance":1,"aperture_width":300,"aperture_height":300,"dot_color":["white","white","black","white","white","white","white","white","white","black","white","black","black","white","black","white","black","white","white","white","black","black","black","white","white","black","white","black","white","black","white","white","black","white","white","black","black","black","black","white","white","white","white","white","white","black","white","black","black","white","black","white","black","white","black","white","black","black","black","white","black","black","black","black","black","black","black","white","white","black","white","white","white","white","white","black","black","black","white","white","black","white","black","black","black","black","black","black","white","black","white","white","black","black","white","black","white","white","white","black","black","black","white","black","black","black","white","black","white","black","white","black","black","black","white","white","white","black","white","black","black","black","black","black","white","black","white","black","white","white","black","white","black","black","black","white","black","black","white","white","white","white","white","white","black","black","white","white","white","black","white","white","white","white","black","white","black","black","white","white","black","white","black","white","white","black","white","white","black","black","white","white","black","black","black","white","white","white","black","white","black","white","black","black","black","black","black","white","white","white","black","white","white","white","black","black","black","white","black","black"],"dot_shape":"circle","background_color":"#AAA","RDK_type":3,"aperture_type":2,"reinsert_type":2,"frame_rate":16.583333333333332,"frame_rate_array":[6,17,17,17,16,17,17,17,16,17,16,17,17,17,17,16,16,18,18,14,18,16,17,17,16,17,17,16,17,16,17,16,17,16,17,18,15,18,17,16,16,18,16,17,17,16,17,17,15,18,17,16,17,16,17,17,17,16,17,16,17,17,17,16,17,17,16,17,16,17,17,17,16,17,16,17,17,16,17,17,16,17,17,16,17,17,16,17,17,16,17,17,16,17,17,16,17,17,17,16,16,18,16,17,17,16,17,17,16,17,16,17,17,17,16,17,16,17,17,16],"number_of_frames":120,"aperture_center_x":720,"aperture_center_y":450,"fixation_cross":true,"fixation_cross_width":15,"fixation_cross_height":15,"fixation_cross_color":"#111","fixation_cross_thickness":1,"border":true,"border_thickness":2,"border_color":"transparent","canvas_width":1440,"canvas_height":900,"trial_type":"rdk","trial_index":72,"plugin_version":"2.0.0","time_elapsed":253227},{"rt":6901,"stimulus":"\n        <div class=\"response-container\">\n          <div class=\"response-instruction\">\n            <p>rotate the bar by using the left and right arrow keys.</p>\n            <p>when you are determined, press the Enter key.</p>\n          </div>\n          <div class=\"response-circle\">\n            <div class=\"response-fixation\"></div>\n            <div id=\"bar\" class=\"rotating-bar\"></div>\n          </div>\n        </div>\n      ","response":"Enter","trial_type":"html-keyboard-response","trial_index":73,"plugin_version":"2.1.0","time_elapsed":260131,"random_initial_angle":119,"response_angle_css":-47,"response_angle_rdk":137,"angular_error_target":-88,"angular_error_distractor":2,"target_direction":225,"target_group":"white","reward_points":0},{"rt":null,"stimulus":"\n          <p style=\"color: #FF3333;\">Your reward: 0 points</p>\n        ","response":null,"trial_type":"html-keyboard-response","trial_index":74,"plugin_version":"2.1.0","time_elapsed":262137},{"rt":null,"stimulus":"<div class=\"fixation\" style=\"font-size: 60px;\">+</div>","response":null,"trial_type":"html-keyboard-response","trial_index":75,"plugin_version":"2.1.0","time_elapsed":263234},{"phase":"learning-awareness","target_group":"black","condition_label":"B_H_vs_W_L_rep20","target_direction":278,"distractor_direction":51,"session_rotation":188,"rt":-1,"response":"","correct":false,"choices":"ALL_KEYS","correct_choice":["a"],"trial_duration":2000,"flip_timestamps":[],"response_ends_trial":false,"number_of_apertures":200,"number_of_dots":[1,1,1,1,1,1,1,1,1,1,1,1,1,1,1,1,1,1,1,1,1,1,1,1,1,1,1,1,1,1,1,1,1,1,1,1,1,1,1,1,1,1,1,1,1,1,1,1,1,1,1,1,1,1,1,1,1,1,1,1,1,1,1,1,1,1,1,1,1,1,1,1,1,1,1,1,1,1,1,1,1,1,1,1,1,1,1,1,1,1,1,1,1,1,1,1,1,1,1,1,1,1,1,1,1,1,1,1,1,1,1,1,1,1,1,1,1,1,1,1,1,1,1,1,1,1,1,1,1,1,1,1,1,1,1,1,1,1,1,1,1,1,1,1,1,1,1,1,1,1,1,1,1,1,1,1,1,1,1,1,1,1,1,1,1,1,1,1,1,1,1,1,1,1,1,1,1,1,1,1,1,1,1,1,1,1,1,1,1,1,1,1,1,1,1,1,1,1,1,1],"number_of_sets":1,"coherent_direction":[278,51,278,278,51,51,51,51,51,278,278,278,278,51,51,278,51,51,278,51,51,51,51,51,51,51,278,278,278,278,278,51,51,51,278,278,278,278,51,51,51,51,278,51,278,51,278,278,51,51,51,51,278,278,51,278,51,51,51,51,278,51,278,278,51,278,51,51,278,278,278,51,51,278,278,278,51,278,51,278,278,51,278,278,278,278,51,51,51,51,51,278,51,278,51,278,278,51,51,278,51,51,51,51,278,51,51,51,51,51,51,278,51,278,278,51,278,51,278,278,51,51,51,278,278,278,51,51,51,278,278,51,278,51,278,278,278,51,278,278,278,278,51,278,51,278,278,278,278,278,278,51,278,278,278,51,51,278,278,51,278,51,51,51,278,51,51,278,51,51,278,278,51,51,278,278,278,51,278,51,278,51,278,278,278,51,51,278,278,51,278,278,51,51,278,278,51,278,51,278],"coherence":1,"opposite_coherence":0,"dot_radius":2,"dot_side_length":1,"dot_life":-1,"move_distance":1,"aperture_width":300,"aperture_height":300,"dot_color":["black","white","black","black","white","white","white","white","white","black","black","black","black","white","white","black","white","white","black","white","white","white","white","white","white","white","black","black","black","black","black","white","white","white","black","black","black","black","white","white","white","white","black","white","black","white","black","black","white","white","white","white","black","black","white","black","white","white","white","white","black","white","black","black","white","black","white","white","black","black","black","white","white","black","black","black","white","black","white","black","black","white","black","black","black","black","white","white","white","white","white","black","white","black","white","black","black","white","white","black","white","white","white","white","black","white","white","white","white","white","white","black","white","black","black","white","black","white","black","black","white","white","white","black","black","black","white","white","white","black","black","white","black","white","black","black","black","white","black","black","black","black","white","black","white","black","black","black","black","black","black","white","black","black","black","white","white","black","black","white","black","white","white","white","black","white","white","black","white","white","black","black","white","white","black","black","black","white","black","white","black","white","black","black","black","white","white","black","black","white","black","black","white","white","black","black","white","black","white","black"],"dot_shape":"circle","background_color":"#AAA","RDK_type":3,"aperture_type":2,"reinsert_type":2,"frame_rate":16.583333333333332,"frame_rate_array":[6,20,13,17,16,17,17,17,17,15,18,16,17,17,16,17,16,17,17,17,17,16,16,17,17,17,17,16,17,16,18,15,18,17,15,18,16,17,17,17,16,17,16,17,16,18,16,17,16,17,16,17,16,18,16,17,17,16,17,17,16,17,17,16,17,16,17,16,17,17,17,17,16,16,17,17,16,18,16,17,16,17,16,18,17,16,16,17,16,18,17,16,17,17,16,17,17,15,18,17,16,16,18,16,17,17,16,17,16,17,17,17,16,17,16,17,16,17,17,17],"number_of_frames":120,"aperture_center_x":720,"aperture_center_y":450,"fixation_cross":true,"fixation_cross_width":15,"fixation_cross_height":15,"fixation_cross_color":"#111","fixation_cross_thickness":1,"border":true,"border_thickness":2,"border_color":"transparent","canvas_width":1440,"canvas_height":900,"trial_type":"rdk","trial_index":76,"plugin_version":"2.0.0","time_elapsed":265243},{"rt":3920,"stimulus":"\n        <div class=\"response-container\">\n          <div class=\"response-instruction\">\n            <p>rotate the bar by using the left and right arrow keys.</p>\n            <p>when you are determined, press the Enter key.</p>\n          </div>\n          <div class=\"response-circle\">\n            <div class=\"response-fixation\"></div>\n            <div id=\"bar\" class=\"rotating-bar\"></div>\n          </div>\n        </div>\n      ","response":"Enter","trial_type":"html-keyboard-response","trial_index":77,"plugin_version":"2.1.0","time_elapsed":269163,"random_initial_angle":277,"response_angle_css":188,"response_angle_rdk":262,"angular_error_target":-16,"angular_error_distractor":-149,"target_direction":278,"target_group":"black","reward_points":6},{"rt":null,"stimulus":"\n          <p style=\"color: #00FF00;\">Your reward: 6 points</p>\n        ","response":null,"trial_type":"html-keyboard-response","trial_index":78,"plugin_version":"2.1.0","time_elapsed":271170},{"rt":null,"stimulus":"<div class=\"fixation\" style=\"font-size: 60px;\">+</div>","response":null,"trial_type":"html-keyboard-response","trial_index":79,"plugin_version":"2.1.0","time_elapsed":272176},{"phase":"learning-awareness","target_group":"white","condition_label":"W_H_vs_B_L_rep2","target_direction":207,"distractor_direction":116,"session_rotation":188,"rt":-1,"response":"","correct":false,"choices":"ALL_KEYS","correct_choice":["a"],"trial_duration":2000,"flip_timestamps":[],"response_ends_trial":false,"number_of_apertures":200,"number_of_dots":[1,1,1,1,1,1,1,1,1,1,1,1,1,1,1,1,1,1,1,1,1,1,1,1,1,1,1,1,1,1,1,1,1,1,1,1,1,1,1,1,1,1,1,1,1,1,1,1,1,1,1,1,1,1,1,1,1,1,1,1,1,1,1,1,1,1,1,1,1,1,1,1,1,1,1,1,1,1,1,1,1,1,1,1,1,1,1,1,1,1,1,1,1,1,1,1,1,1,1,1,1,1,1,1,1,1,1,1,1,1,1,1,1,1,1,1,1,1,1,1,1,1,1,1,1,1,1,1,1,1,1,1,1,1,1,1,1,1,1,1,1,1,1,1,1,1,1,1,1,1,1,1,1,1,1,1,1,1,1,1,1,1,1,1,1,1,1,1,1,1,1,1,1,1,1,1,1,1,1,1,1,1,1,1,1,1,1,1,1,1,1,1,1,1,1,1,1,1,1,1],"number_of_sets":1,"coherent_direction":[116,116,207,116,207,116,116,116,207,116,116,116,207,207,116,116,116,116,116,207,207,207,207,207,207,207,116,207,207,116,116,207,207,207,116,207,207,116,207,207,207,207,207,207,116,116,207,207,116,207,207,207,207,116,207,207,116,207,207,207,207,116,116,116,207,116,207,207,116,207,116,116,207,207,116,116,116,116,116,207,207,207,116,116,207,207,207,207,207,116,116,116,207,116,116,207,116,116,207,207,116,207,116,207,207,207,116,116,207,116,207,207,116,116,207,207,116,116,116,207,207,207,207,116,116,207,116,207,116,116,207,116,116,116,116,207,207,207,116,116,207,116,116,116,116,207,116,207,116,207,116,207,116,116,116,116,116,116,116,207,116,207,116,116,116,207,207,116,207,207,207,207,116,207,207,116,207,207,116,116,116,207,116,116,207,207,116,116,116,207,116,207,207,207,116,207,207,116,116,116],"coherence":1,"opposite_coherence":0,"dot_radius":2,"dot_side_length":1,"dot_life":-1,"move_distance":1,"aperture_width":300,"aperture_height":300,"dot_color":["black","black","white","black","white","black","black","black","white","black","black","black","white","white","black","black","black","black","black","white","white","white","white","white","white","white","black","white","white","black","black","white","white","white","black","white","white","black","white","white","white","white","white","white","black","black","white","white","black","white","white","white","white","black","white","white","black","white","white","white","white","black","black","black","white","black","white","white","black","white","black","black","white","white","black","black","black","black","black","white","white","white","black","black","white","white","white","white","white","black","black","black","white","black","black","white","black","black","white","white","black","white","black","white","white","white","black","black","white","black","white","white","black","black","white","white","black","black","black","white","white","white","white","black","black","white","black","white","black","black","white","black","black","black","black","white","white","white","black","black","white","black","black","black","black","white","black","white","black","white","black","white","black","black","black","black","black","black","black","white","black","white","black","black","black","white","white","black","white","white","white","white","black","white","white","black","white","white","black","black","black","white","black","black","white","white","black","black","black","white","black","white","white","white","black","white","white","black","black","black"],"dot_shape":"circle","background_color":"#AAA","RDK_type":3,"aperture_type":2,"reinsert_type":2,"frame_rate":16.528,"frame_rate_array":[2,16,14,16,18,16,17,17,16,17,16,17,17,16,18,16,16,17,17,16,17,17,16,17,16,17,17,16,17,17,17,17,16,17,16,17,17,16,17,17,16,17,17,17,15,18,16,17,17,16,17,17,16,17,17,16,17,16,17,17,17,16,16,18,17,16,17,17,16,17,16,17,17,17,16,17,17,16,17,16,17,17,16,17,17,17,16,17,16,18,16,17,16,17,16,17,17,16,17,17,16,17,17,16,16,17,17,18,16,16,17,16,18,17,16,17,16,17,16,18,16,17,15,18,17],"number_of_frames":125,"aperture_center_x":720,"aperture_center_y":450,"fixation_cross":true,"fixation_cross_width":15,"fixation_cross_height":15,"fixation_cross_color":"#111","fixation_cross_thickness":1,"border":true,"border_thickness":2,"border_color":"transparent","canvas_width":1440,"canvas_height":900,"trial_type":"rdk","trial_index":80,"plugin_version":"2.0.0","time_elapsed":274252},{"rt":4431,"stimulus":"\n        <div class=\"response-container\">\n          <div class=\"response-instruction\">\n            <p>rotate the bar by using the left and right arrow keys.</p>\n            <p>when you are determined, press the Enter key.</p>\n          </div>\n          <div class=\"response-circle\">\n            <div class=\"response-fixation\"></div>\n            <div id=\"bar\" class=\"rotating-bar\"></div>\n          </div>\n        </div>\n      ","response":"Enter","trial_type":"html-keyboard-response","trial_index":81,"plugin_version":"2.1.0","time_elapsed":278685,"random_initial_angle":244,"response_angle_css":323,"response_angle_rdk":127,"angular_error_target":-80,"angular_error_distractor":11,"target_direction":207,"target_group":"white","reward_points":0},{"rt":null,"stimulus":"\n          <p style=\"color: #FF3333;\">Your reward: 0 points</p>\n        ","response":null,"trial_type":"html-keyboard-response","trial_index":82,"plugin_version":"2.1.0","time_elapsed":280692},{"rt":null,"stimulus":"<div class=\"fixation\" style=\"font-size: 60px;\">+</div>","response":null,"trial_type":"html-keyboard-response","trial_index":83,"plugin_version":"2.1.0","time_elapsed":281699},{"phase":"learning-awareness","target_group":"white","condition_label":"W_H_vs_B_L_rep18","target_direction":205,"distractor_direction":100,"session_rotation":188,"rt":-1,"response":"","correct":false,"choices":"ALL_KEYS","correct_choice":["a"],"trial_duration":2000,"flip_timestamps":[],"response_ends_trial":false,"number_of_apertures":200,"number_of_dots":[1,1,1,1,1,1,1,1,1,1,1,1,1,1,1,1,1,1,1,1,1,1,1,1,1,1,1,1,1,1,1,1,1,1,1,1,1,1,1,1,1,1,1,1,1,1,1,1,1,1,1,1,1,1,1,1,1,1,1,1,1,1,1,1,1,1,1,1,1,1,1,1,1,1,1,1,1,1,1,1,1,1,1,1,1,1,1,1,1,1,1,1,1,1,1,1,1,1,1,1,1,1,1,1,1,1,1,1,1,1,1,1,1,1,1,1,1,1,1,1,1,1,1,1,1,1,1,1,1,1,1,1,1,1,1,1,1,1,1,1,1,1,1,1,1,1,1,1,1,1,1,1,1,1,1,1,1,1,1,1,1,1,1,1,1,1,1,1,1,1,1,1,1,1,1,1,1,1,1,1,1,1,1,1,1,1,1,1,1,1,1,1,1,1,1,1,1,1,1,1],"number_of_sets":1,"coherent_direction":[100,205,100,100,100,205,100,100,205,205,100,205,100,100,205,205,205,205,100,205,100,100,100,100,100,205,100,205,205,100,205,100,100,205,100,100,100,100,100,205,205,100,100,205,100,100,100,100,100,100,100,205,205,205,205,205,100,205,100,205,205,100,100,205,100,205,100,100,205,100,100,100,205,100,205,205,205,205,205,205,100,205,100,205,100,100,100,205,100,205,205,205,205,205,100,205,205,205,205,205,205,100,100,100,205,100,205,100,100,205,100,205,205,205,205,205,205,100,205,100,100,205,100,100,205,205,205,100,205,205,205,100,100,205,100,100,205,205,205,205,205,205,205,100,100,205,100,100,100,100,100,100,100,100,100,205,100,205,205,205,205,205,100,100,205,205,205,100,100,205,100,205,205,205,205,100,100,205,100,100,100,100,100,205,100,205,100,205,205,205,100,205,205,205,205,100,100,100,100,100],"coherence":1,"opposite_coherence":0,"dot_radius":2,"dot_side_length":1,"dot_life":-1,"move_distance":1,"aperture_width":300,"aperture_height":300,"dot_color":["black","white","black","black","black","white","black","black","white","white","black","white","black","black","white","white","white","white","black","white","black","black","black","black","black","white","black","white","white","black","white","black","black","white","black","black","black","black","black","white","white","black","black","white","black","black","black","black","black","black","black","white","white","white","white","white","black","white","black","white","white","black","black","white","black","white","black","black","white","black","black","black","white","black","white","white","white","white","white","white","black","white","black","white","black","black","black","white","black","white","white","white","white","white","black","white","white","white","white","white","white","black","black","black","white","black","white","black","black","white","black","white","white","white","white","white","white","black","white","black","black","white","black","black","white","white","white","black","white","white","white","black","black","white","black","black","white","white","white","white","white","white","white","black","black","white","black","black","black","black","black","black","black","black","black","white","black","white","white","white","white","white","black","black","white","white","white","black","black","white","black","white","white","white","white","black","black","white","black","black","black","black","black","white","black","white","black","white","white","white","black","white","white","white","white","black","black","black","black","black"],"dot_shape":"circle","background_color":"#AAA","RDK_type":3,"aperture_type":2,"reinsert_type":2,"frame_rate":16.616666666666667,"frame_rate_array":[10,16,18,16,17,17,17,16,17,16,17,17,16,17,17,16,17,17,16,17,17,16,17,17,16,17,17,17,16,17,16,17,16,18,16,16,17,17,16,17,17,17,16,17,17,16,18,15,18,16,16,17,16,17,18,16,17,16,17,17,16,16,18,16,17,17,16,17,17,16,18,16,15,18,16,17,18,16,17,16,17,16,18,16,16,17,17,17,16,17,17,16,17,16,17,17,17,16,17,17,16,17,16,17,17,16,17,16,17,17,17,16,16,18,16,17,17,17,16,17],"number_of_frames":120,"aperture_center_x":720,"aperture_center_y":450,"fixation_cross":true,"fixation_cross_width":15,"fixation_cross_height":15,"fixation_cross_color":"#111","fixation_cross_thickness":1,"border":true,"border_thickness":2,"border_color":"transparent","canvas_width":1440,"canvas_height":900,"trial_type":"rdk","trial_index":84,"plugin_version":"2.0.0","time_elapsed":283707},{"rt":3845,"stimulus":"\n        <div class=\"response-container\">\n          <div class=\"response-instruction\">\n            <p>rotate the bar by using the left and right arrow keys.</p>\n            <p>when you are determined, press the Enter key.</p>\n          </div>\n          <div class=\"response-circle\">\n            <div class=\"response-fixation\"></div>\n            <div id=\"bar\" class=\"rotating-bar\"></div>\n          </div>\n        </div>\n      ","response":"Enter","trial_type":"html-keyboard-response","trial_index":85,"plugin_version":"2.1.0","time_elapsed":287553,"random_initial_angle":114,"response_angle_css":-10,"response_angle_rdk":100,"angular_error_target":-105,"angular_error_distractor":0,"target_direction":205,"target_group":"white","reward_points":0},{"rt":null,"stimulus":"\n          <p style=\"color: #FF3333;\">Your reward: 0 points</p>\n        ","response":null,"trial_type":"html-keyboard-response","trial_index":86,"plugin_version":"2.1.0","time_elapsed":289609},{"rt":null,"stimulus":"<div class=\"fixation\" style=\"font-size: 60px;\">+</div>","response":null,"trial_type":"html-keyboard-response","trial_index":87,"plugin_version":"2.1.0","time_elapsed":290612},{"phase":"learning-awareness","target_group":"black","condition_label":"B_H_vs_W_L_rep24","target_direction":278,"distractor_direction":12,"session_rotation":188,"rt":-1,"response":"","correct":false,"choices":"ALL_KEYS","correct_choice":["a"],"trial_duration":2000,"flip_timestamps":[],"response_ends_trial":false,"number_of_apertures":200,"number_of_dots":[1,1,1,1,1,1,1,1,1,1,1,1,1,1,1,1,1,1,1,1,1,1,1,1,1,1,1,1,1,1,1,1,1,1,1,1,1,1,1,1,1,1,1,1,1,1,1,1,1,1,1,1,1,1,1,1,1,1,1,1,1,1,1,1,1,1,1,1,1,1,1,1,1,1,1,1,1,1,1,1,1,1,1,1,1,1,1,1,1,1,1,1,1,1,1,1,1,1,1,1,1,1,1,1,1,1,1,1,1,1,1,1,1,1,1,1,1,1,1,1,1,1,1,1,1,1,1,1,1,1,1,1,1,1,1,1,1,1,1,1,1,1,1,1,1,1,1,1,1,1,1,1,1,1,1,1,1,1,1,1,1,1,1,1,1,1,1,1,1,1,1,1,1,1,1,1,1,1,1,1,1,1,1,1,1,1,1,1,1,1,1,1,1,1,1,1,1,1,1,1],"number_of_sets":1,"coherent_direction":[12,12,278,12,12,278,278,278,12,12,12,12,278,278,278,12,278,12,278,12,278,12,278,278,278,12,12,278,12,12,12,278,12,12,278,278,278,12,12,12,12,278,278,278,12,12,278,278,278,278,278,12,278,278,278,278,12,278,278,278,12,278,12,12,12,278,12,12,278,12,278,12,12,278,278,12,12,278,278,278,12,12,12,12,278,278,278,278,278,278,278,12,12,278,12,278,278,12,12,12,12,278,278,12,12,12,12,12,12,278,278,278,278,12,278,278,12,278,12,12,12,12,278,278,12,278,12,12,278,278,12,12,278,278,278,12,278,278,12,12,12,278,278,12,12,278,278,278,12,278,278,12,278,12,12,278,12,278,12,12,278,278,278,12,12,278,12,12,278,278,12,12,278,12,278,12,12,278,12,12,12,12,278,12,12,278,278,278,278,12,278,12,278,12,278,12,12,278,278,12],"coherence":1,"opposite_coherence":0,"dot_radius":2,"dot_side_length":1,"dot_life":-1,"move_distance":1,"aperture_width":300,"aperture_height":300,"dot_color":["white","white","black","white","white","black","black","black","white","white","white","white","black","black","black","white","black","white","black","white","black","white","black","black","black","white","white","black","white","white","white","black","white","white","black","black","black","white","white","white","white","black","black","black","white","white","black","black","black","black","black","white","black","black","black","black","white","black","black","black","white","black","white","white","white","black","white","white","black","white","black","white","white","black","black","white","white","black","black","black","white","white","white","white","black","black","black","black","black","black","black","white","white","black","white","black","black","white","white","white","white","black","black","white","white","white","white","white","white","black","black","black","black","white","black","black","white","black","white","white","white","white","black","black","white","black","white","white","black","black","white","white","black","black","black","white","black","black","white","white","white","black","black","white","white","black","black","black","white","black","black","white","black","white","white","black","white","black","white","white","black","black","black","white","white","black","white","white","black","black","white","white","black","white","black","white","white","black","white","white","white","white","black","white","white","black","black","black","black","white","black","white","black","white","black","white","white","black","black","white"],"dot_shape":"circle","background_color":"#AAA","RDK_type":3,"aperture_type":2,"reinsert_type":2,"frame_rate":16.641666666666666,"frame_rate_array":[14,16,16,17,18,16,16,17,17,17,16,17,17,16,17,17,16,17,16,17,17,17,15,18,16,17,17,16,17,17,17,16,17,17,16,17,17,16,17,17,16,17,16,17,17,17,16,17,16,17,17,16,17,17,16,17,16,18,16,17,17,15,18,17,16,17,17,17,16,16,17,17,16,17,17,16,17,17,16,17,17,16,17,17,17,16,17,17,16,17,17,16,17,16,17,17,17,16,17,16,17,17,16,17,17,16,17,17,17,16,17,16,17,17,17,16,17,17,16,17],"number_of_frames":120,"aperture_center_x":720,"aperture_center_y":450,"fixation_cross":true,"fixation_cross_width":15,"fixation_cross_height":15,"fixation_cross_color":"#111","fixation_cross_thickness":1,"border":true,"border_thickness":2,"border_color":"transparent","canvas_width":1440,"canvas_height":900,"trial_type":"rdk","trial_index":88,"plugin_version":"2.0.0","time_elapsed":292614},{"rt":2490,"stimulus":"\n        <div class=\"response-container\">\n          <div class=\"response-instruction\">\n            <p>rotate the bar by using the left and right arrow keys.</p>\n            <p>when you are determined, press the Enter key.</p>\n          </div>\n          <div class=\"response-circle\">\n            <div class=\"response-fixation\"></div>\n            <div id=\"bar\" class=\"rotating-bar\"></div>\n          </div>\n        </div>\n      ","response":"Enter","trial_type":"html-keyboard-response","trial_index":89,"plugin_version":"2.1.0","time_elapsed":295106,"random_initial_angle":53,"response_angle_css":47,"response_angle_rdk":43,"angular_error_target":125,"angular_error_distractor":31,"target_direction":278,"target_group":"black","reward_points":0},{"rt":null,"stimulus":"\n          <p style=\"color: #FF3333;\">Your reward: 0 points</p>\n        ","response":null,"trial_type":"html-keyboard-response","trial_index":90,"plugin_version":"2.1.0","time_elapsed":297111},{"rt":null,"stimulus":"<div class=\"fixation\" style=\"font-size: 60px;\">+</div>","response":null,"trial_type":"html-keyboard-response","trial_index":91,"plugin_version":"2.1.0","time_elapsed":298118},{"phase":"learning-awareness","target_group":"white","condition_label":"W_H_vs_B_L_rep22","target_direction":226,"distractor_direction":109,"session_rotation":188,"rt":-1,"response":"","correct":false,"choices":"ALL_KEYS","correct_choice":["a"],"trial_duration":2000,"flip_timestamps":[],"response_ends_trial":false,"number_of_apertures":200,"number_of_dots":[1,1,1,1,1,1,1,1,1,1,1,1,1,1,1,1,1,1,1,1,1,1,1,1,1,1,1,1,1,1,1,1,1,1,1,1,1,1,1,1,1,1,1,1,1,1,1,1,1,1,1,1,1,1,1,1,1,1,1,1,1,1,1,1,1,1,1,1,1,1,1,1,1,1,1,1,1,1,1,1,1,1,1,1,1,1,1,1,1,1,1,1,1,1,1,1,1,1,1,1,1,1,1,1,1,1,1,1,1,1,1,1,1,1,1,1,1,1,1,1,1,1,1,1,1,1,1,1,1,1,1,1,1,1,1,1,1,1,1,1,1,1,1,1,1,1,1,1,1,1,1,1,1,1,1,1,1,1,1,1,1,1,1,1,1,1,1,1,1,1,1,1,1,1,1,1,1,1,1,1,1,1,1,1,1,1,1,1,1,1,1,1,1,1,1,1,1,1,1,1],"number_of_sets":1,"coherent_direction":[109,109,109,109,226,226,226,226,226,226,109,109,109,109,226,226,109,109,226,109,109,109,109,226,226,109,226,109,226,109,109,109,226,109,109,109,226,226,226,226,109,109,109,109,226,109,226,226,226,109,226,109,109,226,226,226,109,226,226,109,109,226,226,226,226,226,226,109,109,226,226,226,226,109,109,109,226,226,226,109,109,226,109,109,109,226,226,226,109,226,226,109,226,226,226,226,109,226,226,226,226,226,109,226,226,226,226,226,226,109,226,109,109,226,226,226,226,109,226,226,109,109,226,109,226,109,226,226,226,226,109,109,109,226,109,226,226,109,226,226,109,109,226,226,109,109,226,226,109,226,109,109,109,109,226,109,109,109,226,226,109,109,109,109,109,109,226,226,226,109,226,226,109,109,109,109,226,109,226,109,109,109,109,226,109,109,109,226,109,109,109,226,109,109,226,109,109,109,109,226],"coherence":1,"opposite_coherence":0,"dot_radius":2,"dot_side_length":1,"dot_life":-1,"move_distance":1,"aperture_width":300,"aperture_height":300,"dot_color":["black","black","black","black","white","white","white","white","white","white","black","black","black","black","white","white","black","black","white","black","black","black","black","white","white","black","white","black","white","black","black","black","white","black","black","black","white","white","white","white","black","black","black","black","white","black","white","white","white","black","white","black","black","white","white","white","black","white","white","black","black","white","white","white","white","white","white","black","black","white","white","white","white","black","black","black","white","white","white","black","black","white","black","black","black","white","white","white","black","white","white","black","white","white","white","white","black","white","white","white","white","white","black","white","white","white","white","white","white","black","white","black","black","white","white","white","white","black","white","white","black","black","white","black","white","black","white","white","white","white","black","black","black","white","black","white","white","black","white","white","black","black","white","white","black","black","white","white","black","white","black","black","black","black","white","black","black","black","white","white","black","black","black","black","black","black","white","white","white","black","white","white","black","black","black","black","white","black","white","black","black","black","black","white","black","black","black","white","black","black","black","white","black","black","white","black","black","black","black","white"],"dot_shape":"circle","background_color":"#AAA","RDK_type":3,"aperture_type":2,"reinsert_type":2,"frame_rate":16.591666666666665,"frame_rate_array":[7,21,12,18,16,17,16,18,16,17,17,16,16,18,16,17,17,16,17,16,17,17,16,16,18,16,18,15,18,17,16,17,16,16,18,17,16,17,16,17,17,16,17,17,16,17,17,17,15,17,18,15,18,16,16,17,18,15,17,18,16,16,17,16,18,16,16,18,16,17,16,18,16,17,17,16,16,17,17,17,16,17,17,16,17,17,16,17,16,17,17,17,17,16,17,16,17,17,16,17,17,16,17,17,16,17,17,16,17,16,17,17,17,16,17,16,17,17,17,16],"number_of_frames":120,"aperture_center_x":720,"aperture_center_y":450,"fixation_cross":true,"fixation_cross_width":15,"fixation_cross_height":15,"fixation_cross_color":"#111","fixation_cross_thickness":1,"border":true,"border_thickness":2,"border_color":"transparent","canvas_width":1440,"canvas_height":900,"trial_type":"rdk","trial_index":92,"plugin_version":"2.0.0","time_elapsed":300126},{"rt":2493,"stimulus":"\n        <div class=\"response-container\">\n          <div class=\"response-instruction\">\n            <p>rotate the bar by using the left and right arrow keys.</p>\n            <p>when you are determined, press the Enter key.</p>\n          </div>\n          <div class=\"response-circle\">\n            <div class=\"response-fixation\"></div>\n            <div id=\"bar\" class=\"rotating-bar\"></div>\n          </div>\n        </div>\n      ","response":"Enter","trial_type":"html-keyboard-response","trial_index":93,"plugin_version":"2.1.0","time_elapsed":302619,"random_initial_angle":335,"response_angle_css":334,"response_angle_rdk":116,"angular_error_target":-110,"angular_error_distractor":7,"target_direction":226,"target_group":"white","reward_points":0},{"rt":null,"stimulus":"\n          <p style=\"color: #FF3333;\">Your reward: 0 points</p>\n        ","response":null,"trial_type":"html-keyboard-response","trial_index":94,"plugin_version":"2.1.0","time_elapsed":304626},{"rt":null,"stimulus":"<div class=\"fixation\" style=\"font-size: 60px;\">+</div>","response":null,"trial_type":"html-keyboard-response","trial_index":95,"plugin_version":"2.1.0","time_elapsed":305633},{"phase":"learning-awareness","target_group":"black","condition_label":"B_H_vs_W_L_rep22","target_direction":292,"distractor_direction":33,"session_rotation":188,"rt":-1,"response":"","correct":false,"choices":"ALL_KEYS","correct_choice":["a"],"trial_duration":2000,"flip_timestamps":[],"response_ends_trial":false,"number_of_apertures":200,"number_of_dots":[1,1,1,1,1,1,1,1,1,1,1,1,1,1,1,1,1,1,1,1,1,1,1,1,1,1,1,1,1,1,1,1,1,1,1,1,1,1,1,1,1,1,1,1,1,1,1,1,1,1,1,1,1,1,1,1,1,1,1,1,1,1,1,1,1,1,1,1,1,1,1,1,1,1,1,1,1,1,1,1,1,1,1,1,1,1,1,1,1,1,1,1,1,1,1,1,1,1,1,1,1,1,1,1,1,1,1,1,1,1,1,1,1,1,1,1,1,1,1,1,1,1,1,1,1,1,1,1,1,1,1,1,1,1,1,1,1,1,1,1,1,1,1,1,1,1,1,1,1,1,1,1,1,1,1,1,1,1,1,1,1,1,1,1,1,1,1,1,1,1,1,1,1,1,1,1,1,1,1,1,1,1,1,1,1,1,1,1,1,1,1,1,1,1,1,1,1,1,1,1],"number_of_sets":1,"coherent_direction":[33,292,292,33,292,33,33,33,33,33,292,292,292,33,33,33,292,33,33,33,292,33,292,292,33,33,292,292,292,292,292,33,33,33,33,292,33,33,33,292,33,292,292,292,33,33,292,292,292,292,33,33,292,292,292,33,33,292,292,33,292,292,292,33,33,292,33,292,33,292,33,33,292,292,33,292,292,33,292,292,292,33,292,33,33,33,33,292,292,33,33,292,33,292,33,33,292,33,33,292,33,33,33,292,33,292,292,292,33,292,292,292,33,292,292,292,33,292,292,292,33,292,33,292,33,292,33,292,292,33,33,33,292,292,33,292,292,33,33,33,292,33,292,292,33,292,292,33,33,33,33,292,33,292,292,33,292,292,292,292,292,292,33,33,292,292,292,33,33,292,292,292,33,292,292,33,33,292,292,33,33,33,292,292,292,33,33,33,33,33,33,33,33,33,33,33,292,33,292,33],"coherence":1,"opposite_coherence":0,"dot_radius":2,"dot_side_length":1,"dot_life":-1,"move_distance":1,"aperture_width":300,"aperture_height":300,"dot_color":["white","black","black","white","black","white","white","white","white","white","black","black","black","white","white","white","black","white","white","white","black","white","black","black","white","white","black","black","black","black","black","white","white","white","white","black","white","white","white","black","white","black","black","black","white","white","black","black","black","black","white","white","black","black","black","white","white","black","black","white","black","black","black","white","white","black","white","black","white","black","white","white","black","black","white","black","black","white","black","black","black","white","black","white","white","white","white","black","black","white","white","black","white","black","white","white","black","white","white","black","white","white","white","black","white","black","black","black","white","black","black","black","white","black","black","black","white","black","black","black","white","black","white","black","white","black","white","black","black","white","white","white","black","black","white","black","black","white","white","white","black","white","black","black","white","black","black","white","white","white","white","black","white","black","black","white","black","black","black","black","black","black","white","white","black","black","black","white","white","black","black","black","white","black","black","white","white","black","black","white","white","white","black","black","black","white","white","white","white","white","white","white","white","white","white","white","black","white","black","white"],"dot_shape":"circle","background_color":"#AAA","RDK_type":3,"aperture_type":2,"reinsert_type":2,"frame_rate":16.608333333333334,"frame_rate_array":[9,17,17,17,16,17,16,17,17,16,18,16,17,16,17,16,18,16,17,16,18,15,17,18,16,17,16,17,17,17,16,17,17,16,17,16,17,17,17,16,17,16,17,16,17,17,17,17,16,16,17,17,17,17,16,16,17,17,17,16,17,16,17,17,16,17,17,16,17,17,16,17,17,17,17,15,18,16,17,17,17,16,16,17,17,17,16,17,17,16,17,17,16,17,17,16,16,18,16,17,17,17,16,17,16,16,18,17,15,17,17,17,16,16,18,16,17,16,18,16],"number_of_frames":120,"aperture_center_x":720,"aperture_center_y":450,"fixation_cross":true,"fixation_cross_width":15,"fixation_cross_height":15,"fixation_cross_color":"#111","fixation_cross_thickness":1,"border":true,"border_thickness":2,"border_color":"transparent","canvas_width":1440,"canvas_height":900,"trial_type":"rdk","trial_index":96,"plugin_version":"2.0.0","time_elapsed":307639},{"rt":2840,"stimulus":"\n        <div class=\"response-container\">\n          <div class=\"response-instruction\">\n            <p>rotate the bar by using the left and right arrow keys.</p>\n            <p>when you are determined, press the Enter key.</p>\n          </div>\n          <div class=\"response-circle\">\n            <div class=\"response-fixation\"></div>\n            <div id=\"bar\" class=\"rotating-bar\"></div>\n          </div>\n        </div>\n      ","response":"Enter","trial_type":"html-keyboard-response","trial_index":97,"plugin_version":"2.1.0","time_elapsed":310480,"random_initial_angle":99,"response_angle_css":51,"response_angle_rdk":39,"angular_error_target":107,"angular_error_distractor":6,"target_direction":292,"target_group":"black","reward_points":0},{"rt":null,"stimulus":"\n          <p style=\"color: #FF3333;\">Your reward: 0 points</p>\n        ","response":null,"trial_type":"html-keyboard-response","trial_index":98,"plugin_version":"2.1.0","time_elapsed":312486},{"rt":null,"stimulus":"<div class=\"fixation\" style=\"font-size: 60px;\">+</div>","response":null,"trial_type":"html-keyboard-response","trial_index":99,"plugin_version":"2.1.0","time_elapsed":313492},{"phase":"learning-awareness","target_group":"white","condition_label":"W_H_vs_B_L_rep17","target_direction":229,"distractor_direction":105,"session_rotation":188,"rt":-1,"response":"","correct":false,"choices":"ALL_KEYS","correct_choice":["a"],"trial_duration":2000,"flip_timestamps":[],"response_ends_trial":false,"number_of_apertures":200,"number_of_dots":[1,1,1,1,1,1,1,1,1,1,1,1,1,1,1,1,1,1,1,1,1,1,1,1,1,1,1,1,1,1,1,1,1,1,1,1,1,1,1,1,1,1,1,1,1,1,1,1,1,1,1,1,1,1,1,1,1,1,1,1,1,1,1,1,1,1,1,1,1,1,1,1,1,1,1,1,1,1,1,1,1,1,1,1,1,1,1,1,1,1,1,1,1,1,1,1,1,1,1,1,1,1,1,1,1,1,1,1,1,1,1,1,1,1,1,1,1,1,1,1,1,1,1,1,1,1,1,1,1,1,1,1,1,1,1,1,1,1,1,1,1,1,1,1,1,1,1,1,1,1,1,1,1,1,1,1,1,1,1,1,1,1,1,1,1,1,1,1,1,1,1,1,1,1,1,1,1,1,1,1,1,1,1,1,1,1,1,1,1,1,1,1,1,1,1,1,1,1,1,1],"number_of_sets":1,"coherent_direction":[105,105,105,229,229,105,105,229,105,105,105,229,105,229,229,105,229,105,229,229,229,229,105,229,105,105,229,229,105,229,105,105,105,229,105,105,229,229,229,105,229,229,105,229,229,229,105,105,105,105,229,229,105,105,229,105,229,105,105,229,229,105,105,105,229,105,229,229,229,229,105,229,105,229,229,105,229,105,229,105,229,229,105,229,229,105,229,229,105,105,105,229,229,229,105,105,229,105,229,229,229,105,229,229,105,229,105,229,229,229,229,105,105,105,105,229,229,229,229,229,229,229,105,229,229,229,105,229,105,105,105,229,105,105,105,229,105,105,105,105,229,105,229,105,229,105,229,229,105,105,105,105,229,105,105,229,105,229,229,105,229,105,105,229,105,105,105,229,105,105,229,229,105,229,105,229,105,105,229,229,229,105,105,105,229,229,229,229,229,229,105,105,229,105,105,105,105,229,105,105],"coherence":1,"opposite_coherence":0,"dot_radius":2,"dot_side_length":1,"dot_life":-1,"move_distance":1,"aperture_width":300,"aperture_height":300,"dot_color":["black","black","black","white","white","black","black","white","black","black","black","white","black","white","white","black","white","black","white","white","white","white","black","white","black","black","white","white","black","white","black","black","black","white","black","black","white","white","white","black","white","white","black","white","white","white","black","black","black","black","white","white","black","black","white","black","white","black","black","white","white","black","black","black","white","black","white","white","white","white","black","white","black","white","white","black","white","black","white","black","white","white","black","white","white","black","white","white","black","black","black","white","white","white","black","black","white","black","white","white","white","black","white","white","black","white","black","white","white","white","white","black","black","black","black","white","white","white","white","white","white","white","black","white","white","white","black","white","black","black","black","white","black","black","black","white","black","black","black","black","white","black","white","black","white","black","white","white","black","black","black","black","white","black","black","white","black","white","white","black","white","black","black","white","black","black","black","white","black","black","white","white","black","white","black","white","black","black","white","white","white","black","black","black","white","white","white","white","white","white","black","black","white","black","black","black","black","white","black","black"],"dot_shape":"circle","background_color":"#AAA","RDK_type":3,"aperture_type":2,"reinsert_type":2,"frame_rate":16.54471544715447,"frame_rate_array":[3,17,13,18,16,17,17,16,17,17,17,16,17,17,17,16,17,16,17,17,16,16,18,17,16,17,16,18,16,17,16,17,17,16,17,17,16,17,16,17,17,16,17,16,18,16,17,16,18,15,18,16,17,16,18,15,18,17,16,17,16,17,17,17,16,17,16,17,17,16,17,16,18,16,17,16,17,16,18,15,18,16,17,16,18,16,17,16,17,17,16,17,17,17,16,16,17,17,17,16,17,17,16,17,17,16,17,17,17,16,17,16,16,18,16,17,17,16,17,17,16,17,17],"number_of_frames":123,"aperture_center_x":720,"aperture_center_y":450,"fixation_cross":true,"fixation_cross_width":15,"fixation_cross_height":15,"fixation_cross_color":"#111","fixation_cross_thickness":1,"border":true,"border_thickness":2,"border_color":"transparent","canvas_width":1440,"canvas_height":900,"trial_type":"rdk","trial_index":100,"plugin_version":"2.0.0","time_elapsed":315529},{"rt":4821,"stimulus":"\n        <div class=\"response-container\">\n          <div class=\"response-instruction\">\n            <p>rotate the bar by using the left and right arrow keys.</p>\n            <p>when you are determined, press the Enter key.</p>\n          </div>\n          <div class=\"response-circle\">\n            <div class=\"response-fixation\"></div>\n            <div id=\"bar\" class=\"rotating-bar\"></div>\n          </div>\n        </div>\n      ","response":"Enter","trial_type":"html-keyboard-response","trial_index":101,"plugin_version":"2.1.0","time_elapsed":320351,"random_initial_angle":224,"response_angle_css":232,"response_angle_rdk":218,"angular_error_target":-11,"angular_error_distractor":113,"target_direction":229,"target_group":"white","reward_points":7},{"rt":null,"stimulus":"\n          <p style=\"color: #00FF00;\">Your reward: 7 points</p>\n        ","response":null,"trial_type":"html-keyboard-response","trial_index":102,"plugin_version":"2.1.0","time_elapsed":322357},{"rt":null,"stimulus":"<div class=\"fixation\" style=\"font-size: 60px;\">+</div>","response":null,"trial_type":"html-keyboard-response","trial_index":103,"plugin_version":"2.1.0","time_elapsed":323362},{"phase":"learning-awareness","target_group":"white","condition_label":"W_H_vs_B_L_rep10","target_direction":223,"distractor_direction":111,"session_rotation":188,"rt":-1,"response":"","correct":false,"choices":"ALL_KEYS","correct_choice":["a"],"trial_duration":2000,"flip_timestamps":[],"response_ends_trial":false,"number_of_apertures":200,"number_of_dots":[1,1,1,1,1,1,1,1,1,1,1,1,1,1,1,1,1,1,1,1,1,1,1,1,1,1,1,1,1,1,1,1,1,1,1,1,1,1,1,1,1,1,1,1,1,1,1,1,1,1,1,1,1,1,1,1,1,1,1,1,1,1,1,1,1,1,1,1,1,1,1,1,1,1,1,1,1,1,1,1,1,1,1,1,1,1,1,1,1,1,1,1,1,1,1,1,1,1,1,1,1,1,1,1,1,1,1,1,1,1,1,1,1,1,1,1,1,1,1,1,1,1,1,1,1,1,1,1,1,1,1,1,1,1,1,1,1,1,1,1,1,1,1,1,1,1,1,1,1,1,1,1,1,1,1,1,1,1,1,1,1,1,1,1,1,1,1,1,1,1,1,1,1,1,1,1,1,1,1,1,1,1,1,1,1,1,1,1,1,1,1,1,1,1,1,1,1,1,1,1],"number_of_sets":1,"coherent_direction":[223,111,223,111,223,223,111,111,223,223,223,111,111,111,223,111,111,223,111,111,223,111,223,111,223,223,111,223,223,223,111,223,223,111,111,223,111,111,111,111,223,223,223,223,111,111,223,223,111,111,111,111,111,223,223,223,223,111,223,223,223,111,223,223,223,223,111,111,111,111,223,111,223,223,223,111,223,111,223,223,223,111,223,111,111,111,111,111,223,111,111,223,111,111,111,223,111,111,223,111,223,223,223,111,111,111,111,111,223,223,223,111,223,111,111,111,111,223,111,111,223,111,223,223,111,223,111,223,223,111,111,223,223,111,111,223,223,223,223,111,111,223,223,223,111,111,111,111,223,111,111,223,111,111,223,111,111,111,111,223,111,223,223,111,111,111,223,223,111,223,223,223,111,223,223,223,223,223,223,111,111,111,223,111,223,111,223,223,223,223,223,111,111,223,223,111,223,111,111,223],"coherence":1,"opposite_coherence":0,"dot_radius":2,"dot_side_length":1,"dot_life":-1,"move_distance":1,"aperture_width":300,"aperture_height":300,"dot_color":["white","black","white","black","white","white","black","black","white","white","white","black","black","black","white","black","black","white","black","black","white","black","white","black","white","white","black","white","white","white","black","white","white","black","black","white","black","black","black","black","white","white","white","white","black","black","white","white","black","black","black","black","black","white","white","white","white","black","white","white","white","black","white","white","white","white","black","black","black","black","white","black","white","white","white","black","white","black","white","white","white","black","white","black","black","black","black","black","white","black","black","white","black","black","black","white","black","black","white","black","white","white","white","black","black","black","black","black","white","white","white","black","white","black","black","black","black","white","black","black","white","black","white","white","black","white","black","white","white","black","black","white","white","black","black","white","white","white","white","black","black","white","white","white","black","black","black","black","white","black","black","white","black","black","white","black","black","black","black","white","black","white","white","black","black","black","white","white","black","white","white","white","black","white","white","white","white","white","white","black","black","black","white","black","white","black","white","white","white","white","white","black","black","white","white","black","white","black","black","white"],"dot_shape":"circle","background_color":"#AAA","RDK_type":3,"aperture_type":2,"reinsert_type":2,"frame_rate":16.64885496183206,"frame_rate_array":[13,17,16,18,16,17,17,17,17,16,16,17,17,17,16,17,16,17,17,16,17,17,16,18,16,17,16,17,17,17,16,17,16,17,16,18,16,17,16,17,17,16,17,17,16,17,17,17,16,16,18,16,17,16,17,17,16,18,16,16,17,16,17,17,16,18,16,17,16,17,17,16,17,17,16,17,17,16,17,16,18,16,17,16,18,15,18,16,17,16,17,16,18,17,16,16,17,17,17,17,16,17,16,17,16,17,16,17,17,16,18,17,16,16,17,16,18,16,17,17,16,16,18,16,17,17,16,17,16,17,17],"number_of_frames":131,"aperture_center_x":720,"aperture_center_y":450,"fixation_cross":true,"fixation_cross_width":15,"fixation_cross_height":15,"fixation_cross_color":"#111","fixation_cross_thickness":1,"border":true,"border_thickness":2,"border_color":"transparent","canvas_width":1440,"canvas_height":900,"trial_type":"rdk","trial_index":104,"plugin_version":"2.0.0","time_elapsed":325551},{"rt":3482,"stimulus":"\n        <div class=\"response-container\">\n          <div class=\"response-instruction\">\n            <p>rotate the bar by using the left and right arrow keys.</p>\n            <p>when you are determined, press the Enter key.</p>\n          </div>\n          <div class=\"response-circle\">\n            <div class=\"response-fixation\"></div>\n            <div id=\"bar\" class=\"rotating-bar\"></div>\n          </div>\n        </div>\n      ","response":"Enter","trial_type":"html-keyboard-response","trial_index":105,"plugin_version":"2.1.0","time_elapsed":329034,"random_initial_angle":350,"response_angle_css":322,"response_angle_rdk":128,"angular_error_target":-95,"angular_error_distractor":17,"target_direction":223,"target_group":"white","reward_points":0},{"rt":null,"stimulus":"\n          <p sty