[{"rt":57031,"stimulus":"Welcome to the experiment. Press any key to begin.","response":"b","trial_type":"html-keyboard-response","trial_index":0,"plugin_version":"2.1.0","time_elapsed":57037},{"rt":83314,"stimulus":"\n        <div class=\"instructions-container\">\n          <h2>Instructions</h2>\n\n          <p>\n          In this experiment, you will see <strong>two Random Dot Kinematograms (RDKs)</strong> displayed simultaneously.\n          </p>\n\n          <p>\n          An RDK is a visual stimulus consisting of many small dots that move coherently in a single direction. \n          In this experiment, the dots will be either <strong>white</strong> or <strong>black</strong> \n          (see the short demo below for an example of an RDK stimulus).\n          </p>\n\n          <p>\n          On each trial, the two RDKs will move in different directions. \n          Your task is to decide <strong>which RDK appears to contain more dots</strong>.\n          </p>\n\n          <p>\n          The RDK that you judge to have more dots is called the <strong>target RDK</strong>. \n          For example, if the white RDK appears to have more dots than the black RDK, \n          you should report the motion direction of the white RDK.\n          </p>\n\n          <p>\n          After viewing the RDKs, you will rotate a bar to indicate the perceived direction of the target RDK \n          using the <strong>left</strong> and <strong>right arrow keys</strong>. \n          Press <strong>Enter</strong> when you are satisfied with your response.\n          When the bar is held down, the rotation speed increases.\n          </p>\n\n          <p>\n          You will receive points based on the <strong>accuracy of your response</strong>, \n          and your final <strong>bonus reward</strong> may depend on your overall performance. \n          Please try to respond as accurately as possible.\n          </p>\n\n          <p>\n          You will first complete <strong>16 practice trials</strong>. \n          Press the <strong>Enter</strong> key to start the practice phase.\n          </p>\n\n          <canvas id=\"instruction-demo-rdk\" width=\"200\" height=\"200\"style=\"display:block;margin:12px auto; border-radius: 50%;\"></canvas>\n        </div>\n      ","response":"Enter","trial_type":"html-keyboard-response","trial_index":1,"plugin_version":"2.1.0","time_elapsed":140358},{"rt":null,"stimulus":"<div class=\"fixation\" style=\"font-size: 60px;\">+</div>","response":null,"trial_type":"html-keyboard-response","trial_index":2,"plugin_version":"2.1.0","time_elapsed":141377},{"target_group":"black","target_index":1,"condition_label":"practice","rt":-1,"response":"","correct":false,"choices":"ALL_KEYS","correct_choice":["a"],"trial_duration":2000,"flip_timestamps":[],"response_ends_trial":false,"number_of_apertures":2,"number_of_dots":[83,100],"number_of_sets":1,"coherent_direction":[39,143],"coherence":1,"opposite_coherence":0,"dot_radius":2,"dot_side_length":1,"dot_life":-1,"move_distance":1,"aperture_width":300,"aperture_height":300,"dot_color":["white","black"],"dot_shape":"circle","background_color":"#AAA","RDK_type":3,"aperture_type":2,"reinsert_type":2,"frame_rate":16.65,"frame_rate_array":[12,6,16,17,16,17,18,16,17,17,16,17,17,16,17,17,16,17,17,17,17,17,16,16,17,17,17,17,16,17,17,17,17,18,16,17,17,16,17,18,16,16,17,16,17,17,17,16,17,16,17,17,16,17,17,16,17,18,16,17,17,16,17,18,16,17,18,15,17,18,16,17,17,16,17,17,16,17,17,16,17,17,16,17,17,17,17,17,16,17,18,16,17,18,16,16,18,16,17,17,16,17,18,16,16,18,16,17,18,16,17,18,16,16,18,16,17,18,16,17],"number_of_frames":120,"aperture_center_x":1029,"aperture_center_y":579,"fixation_cross":true,"fixation_cross_width":15,"fixation_cross_height":15,"fixation_cross_color":"#111","fixation_cross_thickness":1,"border":true,"border_thickness":2,"border_color":"transparent","canvas_width":2058,"canvas_height":1158,"trial_type":"rdk","trial_index":3,"plugin_version":"2.0.0","time_elapsed":143387,"phase":"practice","target_direction":143,"distractor_direction":39},{"rt":6725,"stimulus":"\n        <div class=\"response-container\">\n          <div class=\"response-instruction\">\n            <p>rotate the bar by using the left and right arrow keys.</p>\n            <p>when you are determined, press the Enter key.</p>\n          </div>\n          <div class=\"response-circle\">\n            <div class=\"response-fixation\"></div>\n            <div id=\"bar\" class=\"rotating-bar\"></div>\n          </div>\n        </div>\n      ","response":"Enter","trial_type":"html-keyboard-response","trial_index":4,"plugin_version":"2.1.0","time_elapsed":150115,"random_initial_angle":284,"response_angle_css":281,"response_angle_rdk":169,"angular_error_target":26,"angular_error_distractor":130,"target_direction":143,"target_group":"black","reward_points":4},{"rt":null,"stimulus":"\n          <p style=\"color: #00FF00;\">Your reward: 4 points</p>\n        ","response":null,"trial_type":"html-keyboard-response","trial_index":5,"plugin_version":"2.1.0","time_elapsed":152129},{"rt":null,"stimulus":"<div class=\"fixation\" style=\"font-size: 60px;\">+</div>","response":null,"trial_type":"html-keyboard-response","trial_index":6,"plugin_version":"2.1.0","time_elapsed":153141},{"target_group":"white","target_index":0,"condition_label":"practice","rt":-1,"response":"","correct":false,"choices":"ALL_KEYS","correct_choice":["a"],"trial_duration":2000,"flip_timestamps":[],"response_ends_trial":false,"number_of_apertures":2,"number_of_dots":[100,67],"number_of_sets":1,"coherent_direction":[220,29],"coherence":1,"opposite_coherence":0,"dot_radius":2,"dot_side_length":1,"dot_life":-1,"move_distance":1,"aperture_width":300,"aperture_height":300,"dot_color":["white","black"],"dot_shape":"circle","background_color":"#AAA","RDK_type":3,"aperture_type":2,"reinsert_type":2,"frame_rate":16.59504132231405,"frame_rate_array":[11,4,17,17,17,17,17,17,16,17,16,16,18,16,17,17,17,16,17,17,17,17,16,17,18,15,17,17,16,17,17,16,16,18,16,16,19,16,16,18,16,16,17,17,16,18,16,16,18,16,16,18,16,17,16,17,16,17,16,17,17,16,17,18,16,16,17,16,16,18,16,17,17,16,18,17,16,17,18,16,16,18,15,17,17,17,17,17,17,17,17,17,16,17,16,16,18,16,16,18,16,17,17,17,17,17,16,17,16,16,17,17,16,17,17,17,17,18,17,17,18],"number_of_frames":121,"aperture_center_x":1029,"aperture_center_y":579,"fixation_cross":true,"fixation_cross_width":15,"fixation_cross_height":15,"fixation_cross_color":"#111","fixation_cross_thickness":1,"border":true,"border_thickness":2,"border_color":"transparent","canvas_width":2058,"canvas_height":1158,"trial_type":"rdk","trial_index":7,"plugin_version":"2.0.0","time_elapsed":155148,"phase":"practice","target_direction":220,"distractor_direction":29},{"rt":5677,"stimulus":"\n        <div class=\"response-container\">\n          <div class=\"response-instruction\">\n            <p>rotate the bar by using the left and right arrow keys.</p>\n            <p>when you are determined, press the Enter key.</p>\n          </div>\n          <div class=\"response-circle\">\n            <div class=\"response-fixation\"></div>\n            <div id=\"bar\" class=\"rotating-bar\"></div>\n          </div>\n        </div>\n      ","response":"Enter","trial_type":"html-keyboard-response","trial_index":8,"plugin_version":"2.1.0","time_elapsed":160826,"random_initial_angle":265,"response_angle_css":416,"response_angle_rdk":34,"angular_error_target":174,"angular_error_distractor":5,"target_direction":220,"target_group":"white","reward_points":0},{"rt":null,"stimulus":"\n          <p style=\"color: #FF3333;\">Your reward: 0 points</p>\n        ","response":null,"trial_type":"html-keyboard-response","trial_index":9,"plugin_version":"2.1.0","time_elapsed":162835},{"rt":null,"stimulus":"<div class=\"fixation\" style=\"font-size: 60px;\">+</div>","response":null,"trial_type":"html-keyboard-response","trial_index":10,"plugin_version":"2.1.0","time_elapsed":163848},{"target_group":"black","target_index":1,"condition_label":"practice","rt":-1,"response":"","correct":false,"choices":"ALL_KEYS","correct_choice":["a"],"trial_duration":2000,"flip_timestamps":[],"response_ends_trial":false,"number_of_apertures":2,"number_of_dots":[83,100],"number_of_sets":1,"coherent_direction":[185,332],"coherence":1,"opposite_coherence":0,"dot_radius":2,"dot_side_length":1,"dot_life":-1,"move_distance":1,"aperture_width":300,"aperture_height":300,"dot_color":["white","black"],"dot_shape":"circle","background_color":"#AAA","RDK_type":3,"aperture_type":2,"reinsert_type":2,"frame_rate":16.633333333333333,"frame_rate_array":[10,17,16,17,17,17,17,17,17,16,16,17,16,17,16,16,17,17,16,17,17,16,17,18,16,17,17,16,16,17,17,16,17,16,16,17,17,17,16,16,17,17,17,17,17,17,16,17,17,17,17,17,17,17,16,16,18,16,16,17,17,17,17,17,17,17,16,17,17,17,16,17,16,17,17,16,17,17,16,16,18,16,17,17,16,16,17,17,17,17,16,17,17,17,16,18,16,17,16,17,16,18,16,16,17,16,16,17,16,17,18,15,17,17,17,17,17,17,16,17],"number_of_frames":120,"aperture_center_x":1029,"aperture_center_y":579,"fixation_cross":true,"fixation_cross_width":15,"fixation_cross_height":15,"fixation_cross_color":"#111","fixation_cross_thickness":1,"border":true,"border_thickness":2,"border_color":"transparent","canvas_width":2058,"canvas_height":1158,"trial_type":"rdk","trial_index":11,"plugin_version":"2.0.0","time_elapsed":165862,"phase":"practice","target_direction":332,"distractor_direction":185},{"rt":4624,"stimulus":"\n        <div class=\"response-container\">\n          <div class=\"response-instruction\">\n            <p>rotate the bar by using the left and right arrow keys.</p>\n            <p>when you are determined, press the Enter key.</p>\n          </div>\n          <div class=\"response-circle\">\n            <div class=\"response-fixation\"></div>\n            <div id=\"bar\" class=\"rotating-bar\"></div>\n          </div>\n        </div>\n      ","response":"Enter","trial_type":"html-keyboard-response","trial_index":12,"plugin_version":"2.1.0","time_elapsed":170489,"random_initial_angle":129,"response_angle_css":129,"response_angle_rdk":321,"angular_error_target":-11,"angular_error_distractor":136,"target_direction":332,"target_group":"black","reward_points":7},{"rt":null,"stimulus":"\n          <p style=\"color: #00FF00;\">Your reward: 7 points</p>\n        ","response":null,"trial_type":"html-keyboard-response","trial_index":13,"plugin_version":"2.1.0","time_elapsed":172500},{"rt":null,"stimulus":"<div class=\"fixation\" style=\"font-size: 60px;\">+</div>","response":null,"trial_type":"html-keyboard-response","trial_index":14,"plugin_version":"2.1.0","time_elapsed":173515},{"target_group":"white","target_index":0,"condition_label":"practice","rt":-1,"response":"","correct":false,"choices":"ALL_KEYS","correct_choice":["a"],"trial_duration":2000,"flip_timestamps":[],"response_ends_trial":false,"number_of_apertures":2,"number_of_dots":[100,95],"number_of_sets":1,"coherent_direction":[127,36],"coherence":1,"opposite_coherence":0,"dot_radius":2,"dot_side_length":1,"dot_life":-1,"move_distance":1,"aperture_width":300,"aperture_height":300,"dot_color":["white","black"],"dot_shape":"circle","background_color":"#AAA","RDK_type":3,"aperture_type":2,"reinsert_type":2,"frame_rate":16.641666666666666,"frame_rate_array":[10,17,17,17,17,17,17,17,16,16,17,16,17,18,16,16,17,16,17,17,17,17,17,16,17,16,17,17,17,16,16,17,16,17,17,16,17,16,18,16,18,16,16,16,17,16,17,17,17,17,17,17,17,17,17,17,17,16,17,17,16,17,16,17,17,16,17,16,17,17,17,17,16,17,16,16,17,16,17,17,16,16,17,16,17,17,17,17,17,17,16,17,17,17,17,17,16,17,17,17,16,17,16,18,16,16,17,17,17,16,17,16,17,17,16,17,17,16,17,17],"number_of_frames":120,"aperture_center_x":1029,"aperture_center_y":579,"fixation_cross":true,"fixation_cross_width":15,"fixation_cross_height":15,"fixation_cross_color":"#111","fixation_cross_thickness":1,"border":true,"border_thickness":2,"border_color":"transparent","canvas_width":2058,"canvas_height":1158,"trial_type":"rdk","trial_index":15,"plugin_version":"2.0.0","time_elapsed":175526,"phase":"practice","target_direction":127,"distractor_direction":36},{"rt":3203,"stimulus":"\n        <div class=\"response-container\">\n          <div class=\"response-instruction\">\n            <p>rotate the bar by using the left and right arrow keys.</p>\n            <p>when you are determined, press the Enter key.</p>\n          </div>\n          <div class=\"response-circle\">\n            <div class=\"response-fixation\"></div>\n            <div id=\"bar\" class=\"rotating-bar\"></div>\n          </div>\n        </div>\n      ","response":"Enter","trial_type":"html-keyboard-response","trial_index":16,"plugin_version":"2.1.0","time_elapsed":178731,"random_initial_angle":70,"response_angle_css":70,"response_angle_rdk":20,"angular_error_target":-107,"angular_error_distractor":-16,"target_direction":127,"target_group":"white","reward_points":0},{"rt":null,"stimulus":"\n          <p style=\"color: #FF3333;\">Your reward: 0 points</p>\n        ","response":null,"trial_type":"html-keyboard-response","trial_index":17,"plugin_version":"2.1.0","time_elapsed":180733},{"rt":null,"stimulus":"<div class=\"fixation\" style=\"font-size: 60px;\">+</div>","response":null,"trial_type":"html-keyboard-response","trial_index":18,"plugin_version":"2.1.0","time_elapsed":181739},{"target_group":"black","target_index":1,"condition_label":"practice","rt":-1,"response":"","correct":false,"choices":"ALL_KEYS","correct_choice":["a"],"trial_duration":2000,"flip_timestamps":[],"response_ends_trial":false,"number_of_apertures":2,"number_of_dots":[54,100],"number_of_sets":1,"coherent_direction":[356,115],"coherence":1,"opposite_coherence":0,"dot_radius":2,"dot_side_length":1,"dot_life":-1,"move_distance":1,"aperture_width":300,"aperture_height":300,"dot_color":["white","black"],"dot_shape":"circle","background_color":"#AAA","RDK_type":3,"aperture_type":2,"reinsert_type":2,"frame_rate":16.677685950413224,"frame_rate_array":[11,9,17,16,17,16,17,17,17,17,17,17,17,16,16,17,16,17,18,16,17,17,16,17,16,16,17,17,17,17,17,17,17,17,17,17,17,17,17,17,17,17,17,17,17,17,17,17,17,17,17,17,17,17,17,17,17,17,17,17,17,17,17,17,17,17,17,16,16,17,16,17,17,16,17,17,17,17,17,16,17,17,16,17,17,17,18,16,16,17,17,16,17,17,17,17,17,17,17,16,17,17,17,17,16,17,16,16,17,17,16,16,17,17,16,17,16,17,16,17,17],"number_of_frames":121,"aperture_center_x":1029,"aperture_center_y":579,"fixation_cross":true,"fixation_cross_width":15,"fixation_cross_height":15,"fixation_cross_color":"#111","fixation_cross_thickness":1,"border":true,"border_thickness":2,"border_color":"transparent","canvas_width":2058,"canvas_height":1158,"trial_type":"rdk","trial_index":19,"plugin_version":"2.0.0","time_elapsed":183747,"phase":"practice","target_direction":115,"distractor_direction":356},{"rt":5810,"stimulus":"\n        <div class=\"response-container\">\n          <div class=\"response-instruction\">\n            <p>rotate the bar by using the left and right arrow keys.</p>\n            <p>when you are determined, press the Enter key.</p>\n          </div>\n          <div class=\"response-circle\">\n            <div class=\"response-fixation\"></div>\n            <div id=\"bar\" class=\"rotating-bar\"></div>\n          </div>\n        </div>\n      ","response":"Enter","trial_type":"html-keyboard-response","trial_index":20,"plugin_version":"2.1.0","time_elapsed":189559,"random_initial_angle":152,"response_angle_css":-58,"response_angle_rdk":148,"angular_error_target":33,"angular_error_distractor":152,"target_direction":115,"target_group":"black","reward_points":3},{"rt":null,"stimulus":"\n          <p style=\"color: #00FF00;\">Your reward: 3 points</p>\n        ","response":null,"trial_type":"html-keyboard-response","trial_index":21,"plugin_version":"2.1.0","time_elapsed":191567},{"rt":null,"stimulus":"<div class=\"fixation\" style=\"font-size: 60px;\">+</div>","response":null,"trial_type":"html-keyboard-response","trial_index":22,"plugin_version":"2.1.0","time_elapsed":192570},{"target_group":"white","target_index":0,"condition_label":"practice","rt":-1,"response":"","correct":false,"choices":"ALL_KEYS","correct_choice":["a"],"trial_duration":2000,"flip_timestamps":[],"response_ends_trial":false,"number_of_apertures":2,"number_of_dots":[100,88],"number_of_sets":1,"coherent_direction":[108,205],"coherence":1,"opposite_coherence":0,"dot_radius":2,"dot_side_length":1,"dot_life":-1,"move_distance":1,"aperture_width":300,"aperture_height":300,"dot_color":["white","black"],"dot_shape":"circle","background_color":"#AAA","RDK_type":3,"aperture_type":2,"reinsert_type":2,"frame_rate":16.625,"frame_rate_array":[13,9,14,17,17,17,17,17,16,17,17,16,17,17,16,17,18,15,17,17,16,17,17,16,17,17,16,16,18,16,16,18,15,17,19,14,17,17,16,17,18,16,16,18,16,17,18,15,17,17,16,17,16,17,17,17,16,17,17,16,17,17,16,17,17,17,17,17,17,17,17,16,17,17,17,16,17,17,17,17,16,16,17,17,17,17,17,17,18,15,17,18,16,17,16,17,17,17,17,16,17,17,16,18,16,17,18,16,16,17,17,17,17,16,17,17,17,17,17,16],"number_of_frames":120,"aperture_center_x":1029,"aperture_center_y":579,"fixation_cross":true,"fixation_cross_width":15,"fixation_cross_height":15,"fixation_cross_color":"#111","fixation_cross_thickness":1,"border":true,"border_thickness":2,"border_color":"transparent","canvas_width":2058,"canvas_height":1158,"trial_type":"rdk","trial_index":23,"plugin_version":"2.0.0","time_elapsed":194577,"phase":"practice","target_direction":108,"distractor_direction":205},{"rt":4207,"stimulus":"\n        <div class=\"response-container\">\n          <div class=\"response-instruction\">\n            <p>rotate the bar by using the left and right arrow keys.</p>\n            <p>when you are determined, press the Enter key.</p>\n          </div>\n          <div class=\"response-circle\">\n            <div class=\"response-fixation\"></div>\n            <div id=\"bar\" class=\"rotating-bar\"></div>\n          </div>\n        </div>\n      ","response":"Enter","trial_type":"html-keyboard-response","trial_index":24,"plugin_version":"2.1.0","time_elapsed":198786,"random_initial_angle":266,"response_angle_css":362,"response_angle_rdk":88,"angular_error_target":-20,"angular_error_distractor":-117,"target_direction":108,"target_group":"white","reward_points":6},{"rt":null,"stimulus":"\n          <p style=\"color: #00FF00;\">Your reward: 6 points</p>\n        ","response":null,"trial_type":"html-keyboard-response","trial_index":25,"plugin_version":"2.1.0","time_elapsed":200796},{"rt":null,"stimulus":"<div class=\"fixation\" style=\"font-size: 60px;\">+</div>","response":null,"trial_type":"html-keyboard-response","trial_index":26,"plugin_version":"2.1.0","time_elapsed":201811},{"target_group":"black","target_index":1,"condition_label":"practice","rt":-1,"response":"","correct":false,"choices":"ALL_KEYS","correct_choice":["a"],"trial_duration":2000,"flip_timestamps":[],"response_ends_trial":false,"number_of_apertures":2,"number_of_dots":[85,100],"number_of_sets":1,"coherent_direction":[25,247],"coherence":1,"opposite_coherence":0,"dot_radius":2,"dot_side_length":1,"dot_life":-1,"move_distance":1,"aperture_width":300,"aperture_height":300,"dot_color":["white","black"],"dot_shape":"circle","background_color":"#AAA","RDK_type":3,"aperture_type":2,"reinsert_type":2,"frame_rate":16.775,"frame_rate_array":[14,16,17,17,18,20,13,17,17,17,17,17,17,17,17,17,17,17,17,17,17,17,17,16,17,17,17,16,17,17,17,17,17,17,17,17,17,16,17,17,17,17,17,17,16,17,17,17,17,17,16,17,17,17,17,17,16,17,16,17,17,16,17,17,17,16,17,17,17,17,17,17,16,17,17,17,16,17,17,17,16,17,17,17,17,16,17,17,17,16,17,17,17,16,17,17,17,17,17,17,16,17,16,17,17,16,17,16,16,17,16,16,17,17,16,17,17,17,17,17],"number_of_frames":120,"aperture_center_x":1029,"aperture_center_y":579,"fixation_cross":true,"fixation_cross_width":15,"fixation_cross_height":15,"fixation_cross_color":"#111","fixation_cross_thickness":1,"border":true,"border_thickness":2,"border_color":"transparent","canvas_width":2058,"canvas_height":1158,"trial_type":"rdk","trial_index":27,"plugin_version":"2.0.0","time_elapsed":203821,"phase":"practice","target_direction":247,"distractor_direction":25},{"rt":5696,"stimulus":"\n        <div class=\"response-container\">\n          <div class=\"response-instruction\">\n            <p>rotate the bar by using the left and right arrow keys.</p>\n            <p>when you are determined, press the Enter key.</p>\n          </div>\n          <div class=\"response-circle\">\n            <div class=\"response-fixation\"></div>\n            <div id=\"bar\" class=\"rotating-bar\"></div>\n          </div>\n        </div>\n      ","response":"Enter","trial_type":"html-keyboard-response","trial_index":28,"plugin_version":"2.1.0","time_elapsed":209519,"random_initial_angle":228,"response_angle_css":403,"response_angle_rdk":47,"angular_error_target":160,"angular_error_distractor":22,"target_direction":247,"target_group":"black","reward_points":0},{"rt":null,"stimulus":"\n          <p style=\"color: #FF3333;\">Your reward: 0 points</p>\n        ","response":null,"trial_type":"html-keyboard-response","trial_index":29,"plugin_version":"2.1.0","time_elapsed":211535},{"rt":null,"stimulus":"<div class=\"fixation\" style=\"font-size: 60px;\">+</div>","response":null,"trial_type":"html-keyboard-response","trial_index":30,"plugin_version":"2.1.0","time_elapsed":212548},{"target_group":"black","target_index":1,"condition_label":"practice","rt":-1,"response":"","correct":false,"choices":"ALL_KEYS","correct_choice":["a"],"trial_duration":2000,"flip_timestamps":[],"response_ends_trial":false,"number_of_apertures":2,"number_of_dots":[99,100],"number_of_sets":1,"coherent_direction":[51,308],"coherence":1,"opposite_coherence":0,"dot_radius":2,"dot_side_length":1,"dot_life":-1,"move_distance":1,"aperture_width":300,"aperture_height":300,"dot_color":["white","black"],"dot_shape":"circle","background_color":"#AAA","RDK_type":3,"aperture_type":2,"reinsert_type":2,"frame_rate":16.75,"frame_rate_array":[14,13,17,17,17,17,17,17,17,17,17,17,17,16,17,17,17,17,17,16,17,17,17,17,16,17,17,17,17,17,17,17,16,17,17,17,17,17,16,17,17,16,17,17,18,16,17,17,17,17,16,17,17,17,17,16,17,17,16,16,17,16,17,17,17,17,16,17,16,17,17,17,16,17,17,17,17,17,16,17,17,17,17,17,17,17,17,17,16,19,14,17,17,17,17,17,17,16,17,17,17,16,17,17,17,17,17,17,17,16,17,17,17,16,17,17,16,16,17,17],"number_of_frames":120,"aperture_center_x":1029,"aperture_center_y":579,"fixation_cross":true,"fixation_cross_width":15,"fixation_cross_height":15,"fixation_cross_color":"#111","fixation_cross_thickness":1,"border":true,"border_thickness":2,"border_color":"transparent","canvas_width":2058,"canvas_height":1158,"trial_type":"rdk","trial_index":31,"plugin_version":"2.0.0","time_elapsed":214557,"phase":"practice","target_direction":308,"distractor_direction":51},{"rt":5033,"stimulus":"\n        <div class=\"response-container\">\n          <div class=\"response-instruction\">\n            <p>rotate the bar by using the left and right arrow keys.</p>\n            <p>when you are determined, press the Enter key.</p>\n          </div>\n          <div class=\"response-circle\">\n            <div class=\"response-fixation\"></div>\n            <div id=\"bar\" class=\"rotating-bar\"></div>\n          </div>\n        </div>\n      ","response":"Enter","trial_type":"html-keyboard-response","trial_index":32,"plugin_version":"2.1.0","time_elapsed":219591,"random_initial_angle":126,"response_angle_css":390,"response_angle_rdk":60,"angular_error_target":112,"angular_error_distractor":9,"target_direction":308,"target_group":"black","reward_points":0},{"rt":null,"stimulus":"\n          <p style=\"color: #FF3333;\">Your reward: 0 points</p>\n        ","response":null,"trial_type":"html-keyboard-response","trial_index":33,"plugin_version":"2.1.0","time_elapsed":221606},{"rt":null,"stimulus":"<div class=\"fixation\" style=\"font-size: 60px;\">+</div>","response":null,"trial_type":"html-keyboard-response","trial_index":34,"plugin_version":"2.1.0","time_elapsed":222622},{"target_group":"white","target_index":0,"condition_label":"practice","rt":-1,"response":"","correct":false,"choices":"ALL_KEYS","correct_choice":["a"],"trial_duration":2000,"flip_timestamps":[],"response_ends_trial":false,"number_of_apertures":2,"number_of_dots":[100,68],"number_of_sets":1,"coherent_direction":[247,97],"coherence":1,"opposite_coherence":0,"dot_radius":2,"dot_side_length":1,"dot_life":-1,"move_distance":1,"aperture_width":300,"aperture_height":300,"dot_color":["white","black"],"dot_shape":"circle","background_color":"#AAA","RDK_type":3,"aperture_type":2,"reinsert_type":2,"frame_rate":16.65289256198347,"frame_rate_array":[16,5,15,17,17,17,17,17,16,17,19,15,16,17,17,16,17,17,17,17,17,16,17,17,16,17,16,16,17,17,17,17,17,16,17,16,16,17,17,17,17,17,17,17,16,17,17,16,17,17,16,16,17,16,17,17,17,16,18,16,16,18,16,17,17,16,17,18,16,17,18,16,17,17,16,17,18,16,17,17,17,16,17,16,17,17,16,17,17,16,17,18,16,17,17,16,17,17,16,17,17,17,17,17,16,17,18,16,17,17,17,17,17,17,17,17,17,17,17,16,17],"number_of_frames":121,"aperture_center_x":1029,"aperture_center_y":579,"fixation_cross":true,"fixation_cross_width":15,"fixation_cross_height":15,"fixation_cross_color":"#111","fixation_cross_thickness":1,"border":true,"border_thickness":2,"border_color":"transparent","canvas_width":2058,"canvas_height":1158,"trial_type":"rdk","trial_index":35,"plugin_version":"2.0.0","time_elapsed":224630,"phase":"practice","target_direction":247,"distractor_direction":97},{"rt":1945,"stimulus":"\n        <div class=\"response-container\">\n          <div class=\"response-instruction\">\n            <p>rotate the bar by using the left and right arrow keys.</p>\n            <p>when you are determined, press the Enter key.</p>\n          </div>\n          <div class=\"response-circle\">\n            <div class=\"response-fixation\"></div>\n            <div id=\"bar\" class=\"rotating-bar\"></div>\n          </div>\n        </div>\n      ","response":"Enter","trial_type":"html-keyboard-response","trial_index":36,"plugin_version":"2.1.0","time_elapsed":226578,"random_initial_angle":21,"response_angle_css":11,"response_angle_rdk":79,"angular_error_target":-168,"angular_error_distractor":-18,"target_direction":247,"target_group":"white","reward_points":0},{"rt":null,"stimulus":"\n          <p style=\"color: #FF3333;\">Your reward: 0 points</p>\n        ","response":null,"trial_type":"html-keyboard-response","trial_index":37,"plugin_version":"2.1.0","time_elapsed":228595},{"rt":null,"stimulus":"<div class=\"fixation\" style=\"font-size: 60px;\">+</div>","response":null,"trial_type":"html-keyboard-response","trial_index":38,"plugin_version":"2.1.0","time_elapsed":229611},{"target_group":"black","target_index":1,"condition_label":"practice","rt":-1,"response":"","correct":false,"choices":"ALL_KEYS","correct_choice":["a"],"trial_duration":2000,"flip_timestamps":[],"response_ends_trial":false,"number_of_apertures":2,"number_of_dots":[84,100],"number_of_sets":1,"coherent_direction":[232,33],"coherence":1,"opposite_coherence":0,"dot_radius":2,"dot_side_length":1,"dot_life":-1,"move_distance":1,"aperture_width":300,"aperture_height":300,"dot_color":["white","black"],"dot_shape":"circle","background_color":"#AAA","RDK_type":3,"aperture_type":2,"reinsert_type":2,"frame_rate":16.733333333333334,"frame_rate_array":[15,17,17,17,17,17,17,17,17,17,16,17,17,16,17,17,17,16,17,17,17,17,17,17,17,17,17,17,17,17,16,17,16,17,17,17,17,17,16,17,17,17,17,16,16,17,17,17,17,16,17,17,17,16,17,17,16,16,17,17,17,17,17,17,16,17,17,17,16,17,17,17,16,25,7,17,17,17,17,17,17,17,17,16,17,17,16,18,15,17,16,17,16,17,17,16,16,17,16,17,17,17,17,16,17,16,17,17,16,17,17,17,17,17,16,17,17,17,16,17],"number_of_frames":120,"aperture_center_x":1029,"aperture_center_y":579,"fixation_cross":true,"fixation_cross_width":15,"fixation_cross_height":15,"fixation_cross_color":"#111","fixation_cross_thickness":1,"border":true,"border_thickness":2,"border_color":"transparent","canvas_width":2058,"canvas_height":1158,"trial_type":"rdk","trial_index":39,"plugin_version":"2.0.0","time_elapsed":231630,"phase":"practice","target_direction":33,"distractor_direction":232},{"rt":3053,"stimulus":"\n        <div class=\"response-container\">\n          <div class=\"response-instruction\">\n            <p>rotate the bar by using the left and right arrow keys.</p>\n            <p>when you are determined, press the Enter key.</p>\n          </div>\n          <div class=\"response-circle\">\n            <div class=\"response-fixation\"></div>\n            <div id=\"bar\" class=\"rotating-bar\"></div>\n          </div>\n        </div>\n      ","response":"Enter","trial_type":"html-keyboard-response","trial_index":40,"plugin_version":"2.1.0","time_elapsed":234685,"random_initial_angle":315,"response_angle_css":403,"response_angle_rdk":47,"angular_error_target":14,"angular_error_distractor":175,"target_direction":33,"target_group":"black","reward_points":7},{"rt":null,"stimulus":"\n          <p style=\"color: #00FF00;\">Your reward: 7 points</p>\n        ","response":null,"trial_type":"html-keyboard-response","trial_index":41,"plugin_version":"2.1.0","time_elapsed":236701},{"rt":null,"stimulus":"<div class=\"fixation\" style=\"font-size: 60px;\">+</div>","response":null,"trial_type":"html-keyboard-response","trial_index":42,"plugin_version":"2.1.0","time_elapsed":237708},{"target_group":"black","target_index":1,"condition_label":"practice","rt":-1,"response":"","correct":false,"choices":"ALL_KEYS","correct_choice":["a"],"trial_duration":2000,"flip_timestamps":[],"response_ends_trial":false,"number_of_apertures":2,"number_of_dots":[79,100],"number_of_sets":1,"coherent_direction":[28,284],"coherence":1,"opposite_coherence":0,"dot_radius":2,"dot_side_length":1,"dot_life":-1,"move_distance":1,"aperture_width":300,"aperture_height":300,"dot_color":["white","black"],"dot_shape":"circle","background_color":"#AAA","RDK_type":3,"aperture_type":2,"reinsert_type":2,"frame_rate":16.65289256198347,"frame_rate_array":[16,1,16,16,17,18,15,17,17,16,17,20,13,17,17,17,17,17,17,17,18,15,17,18,15,18,20,13,17,17,17,17,18,16,17,17,16,16,17,16,17,18,16,17,17,16,17,18,16,17,18,16,16,19,15,17,17,16,17,17,16,17,17,16,17,19,15,17,16,17,17,17,17,17,17,17,17,17,17,16,19,15,17,25,9,16,17,17,17,17,17,16,17,17,16,18,16,16,17,17,17,17,17,17,17,17,16,17,18,16,17,16,17,18,16,17,17,16,16,17,17],"number_of_frames":121,"aperture_center_x":1029,"aperture_center_y":579,"fixation_cross":true,"fixation_cross_width":15,"fixation_cross_height":15,"fixation_cross_color":"#111","fixation_cross_thickness":1,"border":true,"border_thickness":2,"border_color":"transparent","canvas_width":2058,"canvas_height":1158,"trial_type":"rdk","trial_index":43,"plugin_version":"2.0.0","time_elapsed":239714,"phase":"practice","target_direction":284,"distractor_direction":28},{"rt":4203,"stimulus":"\n        <div class=\"response-container\">\n          <div class=\"response-instruction\">\n            <p>rotate the bar by using the left and right arrow keys.</p>\n            <p>when you are determined, press the Enter key.</p>\n          </div>\n          <div class=\"response-circle\">\n            <div class=\"response-fixation\"></div>\n            <div id=\"bar\" class=\"rotating-bar\"></div>\n          </div>\n        </div>\n      ","response":"Enter","trial_type":"html-keyboard-response","trial_index":44,"plugin_version":"2.1.0","time_elapsed":243918,"random_initial_angle":172,"response_angle_css":41,"response_angle_rdk":49,"angular_error_target":125,"angular_error_distractor":21,"target_direction":284,"target_group":"black","reward_points":0},{"rt":null,"stimulus":"\n          <p style=\"color: #FF3333;\">Your reward: 0 points</p>\n        ","response":null,"trial_type":"html-keyboard-response","trial_index":45,"plugin_version":"2.1.0","time_elapsed":245926},{"rt":null,"stimulus":"<div class=\"fixation\" style=\"font-size: 60px;\">+</div>","response":null,"trial_type":"html-keyboard-response","trial_index":46,"plugin_version":"2.1.0","time_elapsed":246942},{"target_group":"black","target_index":1,"condition_label":"practice","rt":-1,"response":"","correct":false,"choices":"ALL_KEYS","correct_choice":["a"],"trial_duration":2000,"flip_timestamps":[],"response_ends_trial":false,"number_of_apertures":2,"number_of_dots":[58,100],"number_of_sets":1,"coherent_direction":[132,288],"coherence":1,"opposite_coherence":0,"dot_radius":2,"dot_side_length":1,"dot_life":-1,"move_distance":1,"aperture_width":300,"aperture_height":300,"dot_color":["white","black"],"dot_shape":"circle","background_color":"#AAA","RDK_type":3,"aperture_type":2,"reinsert_type":2,"frame_rate":16.611570247933884,"frame_rate_array":[10,5,17,17,16,17,16,17,17,17,17,17,17,17,17,17,18,16,17,17,17,17,16,17,17,17,17,17,17,17,19,14,17,17,17,17,17,17,16,17,17,17,17,16,16,17,16,17,17,16,17,17,17,17,17,17,17,16,17,17,17,17,17,17,17,16,18,17,16,17,17,17,17,16,16,17,17,17,16,17,16,17,17,16,17,17,17,17,17,16,17,17,16,17,16,17,17,16,16,17,17,17,17,16,16,17,16,17,17,16,17,17,16,17,17,16,17,16,17,17,17],"number_of_frames":121,"aperture_center_x":1029,"aperture_center_y":579,"fixation_cross":true,"fixation_cross_width":15,"fixation_cross_height":15,"fixation_cross_color":"#111","fixation_cross_thickness":1,"border":true,"border_thickness":2,"border_color":"transparent","canvas_width":2058,"canvas_height":1158,"trial_type":"rdk","trial_index":47,"plugin_version":"2.0.0","time_elapsed":248946,"phase":"practice","target_direction":288,"distractor_direction":132},{"rt":4641,"stimulus":"\n        <div class=\"response-container\">\n          <div class=\"response-instruction\">\n            <p>rotate the bar by using the left and right arrow keys.</p>\n            <p>when you are determined, press the Enter key.</p>\n          </div>\n          <div class=\"response-circle\">\n            <div class=\"response-fixation\"></div>\n            <div id=\"bar\" class=\"rotating-bar\"></div>\n          </div>\n        </div>\n      ","response":"Enter","trial_type":"html-keyboard-response","trial_index":48,"plugin_version":"2.1.0","time_elapsed":253588,"random_initial_angle":238,"response_angle_css":147,"response_angle_rdk":303,"angular_error_target":15,"angular_error_distractor":171,"target_direction":288,"target_group":"black","reward_points":7},{"rt":null,"stimulus":"\n          <p style=\"color: #00FF00;\">Your reward: 7 points</p>\n        ","response":null,"trial_type":"html-keyboard-response","trial_index":49,"plugin_version":"2.1.0","time_elapsed":255592},{"rt":null,"stimulus":"<div class=\"fixation\" style=\"font-size: 60px;\">+</div>","response":null,"trial_type":"html-keyboard-response","trial_index":50,"plugin_version":"2.1.0","time_elapsed":256608},{"target_group":"white","target_index":0,"condition_label":"practice","rt":-1,"response":"","correct":false,"choices":"ALL_KEYS","correct_choice":["a"],"trial_duration":2000,"flip_timestamps":[],"response_ends_trial":false,"number_of_apertures":2,"number_of_dots":[100,65],"number_of_sets":1,"coherent_direction":[326,180],"coherence":1,"opposite_coherence":0,"dot_radius":2,"dot_side_length":1,"dot_life":-1,"move_distance":1,"aperture_width":300,"aperture_height":300,"dot_color":["white","black"],"dot_shape":"circle","background_color":"#AAA","RDK_type":3,"aperture_type":2,"reinsert_type":2,"frame_rate":16.628099173553718,"frame_rate_array":[15,9,10,17,17,17,17,17,17,18,15,17,17,17,17,17,18,15,17,17,17,17,17,17,16,17,17,16,17,16,17,17,17,17,17,17,16,16,17,17,16,17,16,17,16,17,17,17,17,17,17,17,17,17,16,17,19,15,17,17,17,17,17,17,16,17,17,16,17,17,16,17,17,17,17,16,17,16,17,18,16,17,17,17,16,16,17,17,17,17,17,16,17,17,16,17,18,15,17,17,16,17,17,17,17,17,17,16,17,17,17,16,17,17,16,17,16,17,16,16,17],"number_of_frames":121,"aperture_center_x":1029,"aperture_center_y":579,"fixation_cross":true,"fixation_cross_width":15,"fixation_cross_height":15,"fixation_cross_color":"#111","fixation_cross_thickness":1,"border":true,"border_thickness":2,"border_color":"transparent","canvas_width":2058,"canvas_height":1158,"trial_type":"rdk","trial_index":51,"plugin_version":"2.0.0","time_elapsed":258614,"phase":"practice","target_direction":326,"distractor_direction":180},{"rt":4464,"stimulus":"\n        <div class=\"response-container\">\n          <div class=\"response-instruction\">\n            <p>rotate the bar by using the left and right arrow keys.</p>\n            <p>when you are determined, press the Enter key.</p>\n          </div>\n          <div class=\"response-circle\">\n            <div class=\"response-fixation\"></div>\n            <div id=\"bar\" class=\"rotating-bar\"></div>\n          </div>\n        </div>\n      ","response":"Enter","trial_type":"html-keyboard-response","trial_index":52,"plugin_version":"2.1.0","time_elapsed":263080,"random_initial_angle":332,"response_angle_css":495,"response_angle_rdk":315,"angular_error_target":-11,"angular_error_distractor":135,"target_direction":326,"target_group":"white","reward_points":7},{"rt":null,"stimulus":"\n          <p style=\"color: #00FF00;\">Your reward: 7 points</p>\n        ","response":null,"trial_type":"html-keyboard-response","trial_index":53,"plugin_version":"2.1.0","time_elapsed":265086},{"rt":null,"stimulus":"<div class=\"fixation\" style=\"font-size: 60px;\">+</div>","response":null,"trial_type":"html-keyboard-response","trial_index":54,"plugin_version":"2.1.0","time_elapsed":266100},{"target_group":"white","target_index":0,"condition_label":"practice","rt":-1,"response":"","correct":false,"choices":"ALL_KEYS","correct_choice":["a"],"trial_duration":2000,"flip_timestamps":[],"response_ends_trial":false,"number_of_apertures":2,"number_of_dots":[100,64],"number_of_sets":1,"coherent_direction":[295,74],"coherence":1,"opposite_coherence":0,"dot_radius":2,"dot_side_length":1,"dot_life":-1,"move_distance":1,"aperture_width":300,"aperture_height":300,"dot_color":["white","black"],"dot_shape":"circle","background_color":"#AAA","RDK_type":3,"aperture_type":2,"reinsert_type":2,"frame_rate":16.733333333333334,"frame_rate_array":[16,8,16,17,17,17,17,16,17,16,17,17,17,17,17,16,17,17,16,17,17,17,17,17,16,17,17,17,17,17,17,17,17,17,17,17,17,17,17,17,17,17,17,16,17,17,16,16,17,17,17,17,17,17,17,17,16,17,17,17,17,17,16,17,17,17,17,17,17,17,17,17,17,16,17,16,16,17,16,17,17,16,17,17,17,17,17,17,17,17,16,17,17,17,17,16,17,17,17,17,17,16,17,17,17,17,17,17,16,17,17,17,17,17,17,17,17,17,16,16],"number_of_frames":120,"aperture_center_x":1029,"aperture_center_y":579,"fixation_cross":true,"fixation_cross_width":15,"fixation_cross_height":15,"fixation_cross_color":"#111","fixation_cross_thickness":1,"border":true,"border_thickness":2,"border_color":"transparent","canvas_width":2058,"canvas_height":1158,"trial_type":"rdk","trial_index":55,"plugin_version":"2.0.0","time_elapsed":268104,"phase":"practice","target_direction":295,"distractor_direction":74},{"rt":2829,"stimulus":"\n        <div class=\"response-container\">\n          <div class=\"response-instruction\">\n            <p>rotate the bar by using the left and right arrow keys.</p>\n            <p>when you are determined, press the Enter key.</p>\n          </div>\n          <div class=\"response-circle\">\n            <div class=\"response-fixation\"></div>\n            <div id=\"bar\" class=\"rotating-bar\"></div>\n          </div>\n        </div>\n      ","response":"Enter","trial_type":"html-keyboard-response","trial_index":56,"plugin_version":"2.1.0","time_elapsed":270934,"random_initial_angle":92,"response_angle_css":9,"response_angle_rdk":81,"angular_error_target":146,"angular_error_distractor":7,"target_direction":295,"target_group":"white","reward_points":0},{"rt":null,"stimulus":"\n          <p style=\"color: #FF3333;\">Your reward: 0 points</p>\n        ","response":null,"trial_type":"html-keyboard-response","trial_index":57,"plugin_version":"2.1.0","time_elapsed":272949},{"rt":null,"stimulus":"<div class=\"fixation\" style=\"font-size: 60px;\">+</div>","response":null,"trial_type":"html-keyboard-response","trial_index":58,"plugin_version":"2.1.0","time_elapsed":273958},{"target_group":"white","target_index":0,"condition_label":"practice","rt":-1,"response":"","correct":false,"choices":"ALL_KEYS","correct_choice":["a"],"trial_duration":2000,"flip_timestamps":[],"response_ends_trial":false,"number_of_apertures":2,"number_of_dots":[100,85],"number_of_sets":1,"coherent_direction":[256,6],"coherence":1,"opposite_coherence":0,"dot_radius":2,"dot_side_length":1,"dot_life":-1,"move_distance":1,"aperture_width":300,"aperture_height":300,"dot_color":["white","black"],"dot_shape":"circle","background_color":"#AAA","RDK_type":3,"aperture_type":2,"reinsert_type":2,"frame_rate":16.619834710743802,"frame_rate_array":[17,1,15,20,14,17,17,17,17,17,17,17,17,17,16,17,17,17,17,17,17,17,17,17,17,16,17,18,16,18,16,17,17,17,16,16,17,17,16,17,16,17,17,16,17,17,17,16,17,17,16,17,17,16,16,18,16,16,17,17,17,17,17,16,17,16,17,17,17,17,17,16,17,17,17,16,16,17,17,17,17,17,17,17,17,17,17,16,17,16,17,17,17,17,16,17,17,17,17,17,16,16,17,16,17,17,17,17,17,17,17,17,16,17,16,16,16,17,17,17,16],"number_of_frames":121,"aperture_center_x":1029,"aperture_center_y":579,"fixation_cross":true,"fixation_cross_width":15,"fixation_cross_height":15,"fixation_cross_color":"#111","fixation_cross_thickness":1,"border":true,"border_thickness":2,"border_color":"transparent","canvas_width":2058,"canvas_height":1158,"trial_type":"rdk","trial_index":59,"plugin_version":"2.0.0","time_elapsed":275963,"phase":"practice","target_direction":256,"distractor_direction":6},{"rt":3792,"stimulus":"\n        <div class=\"response-container\">\n          <div class=\"response-instruction\">\n            <p>rotate the bar by using the left and right arrow keys.</p>\n            <p>when you are determined, press the Enter key.</p>\n          </div>\n          <div class=\"response-circle\">\n            <div class=\"response-fixation\"></div>\n            <div id=\"bar\" class=\"rotating-bar\"></div>\n          </div>\n        </div>\n      ","response":"Enter","trial_type":"html-keyboard-response","trial_index":60,"plugin_version":"2.1.0","time_elapsed":279757,"random_initial_angle":182,"response_angle_css":46,"response_angle_rdk":44,"angular_error_target":148,"angular_error_distractor":38,"target_direction":256,"target_group":"white","reward_points":0},{"rt":null,"stimulus":"\n          <p style=\"color: #FF3333;\">Your reward: 0 points</p>\n        ","response":null,"trial_type":"html-keyboard-response","trial_index":61,"plugin_version":"2.1.0","time_elapsed":281773},{"rt":null,"stimulus":"<div class=\"fixation\" style=\"font-size: 60px;\">+</div>","response":null,"trial_type":"html-keyboard-response","trial_index":62,"plugin_version":"2.1.0","time_elapsed":282788},{"target_group":"white","target_index":0,"condition_label":"practice","rt":-1,"response":"","correct":false,"choices":"ALL_KEYS","correct_choice":["a"],"trial_duration":2000,"flip_timestamps":[],"response_ends_trial":false,"number_of_apertures":2,"number_of_dots":[100,78],"number_of_sets":1,"coherent_direction":[45,191],"coherence":1,"opposite_coherence":0,"dot_radius":2,"dot_side_length":1,"dot_life":-1,"move_distance":1,"aperture_width":300,"aperture_height":300,"dot_color":["white","black"],"dot_shape":"circle","background_color":"#AAA","RDK_type":3,"aperture_type":2,"reinsert_type":2,"frame_rate":16.702479338842974,"frame_rate_array":[7,14,17,17,17,16,17,18,16,17,16,17,16,17,17,17,17,17,17,17,17,17,17,17,17,17,17,17,16,17,16,17,17,17,17,16,16,17,16,17,16,17,17,16,17,17,17,17,17,17,16,17,17,16,16,17,17,16,17,17,17,17,16,17,17,17,17,16,16,17,17,17,17,17,17,17,17,17,17,17,17,16,17,17,16,17,17,17,17,17,17,17,17,16,17,16,17,17,17,17,17,17,17,17,17,17,17,17,17,17,17,17,16,17,17,17,17,17,16,17,17],"number_of_frames":121,"aperture_center_x":1029,"aperture_center_y":579,"fixation_cross":true,"fixation_cross_width":15,"fixation_cross_height":15,"fixation_cross_color":"#111","fixation_cross_thickness":1,"border":true,"border_thickness":2,"border_color":"transparent","canvas_width":2058,"canvas_height":1158,"trial_type":"rdk","trial_index":63,"plugin_version":"2.0.0","time_elapsed":284796,"phase":"practice","target_direction":45,"distractor_direction":191},{"rt":4796,"stimulus":"\n        <div class=\"response-container\">\n          <div class=\"response-instruction\">\n            <p>rotate the bar by using the left and right arrow keys.</p>\n            <p>when you are determined, press the Enter key.</p>\n          </div>\n          <div class=\"response-circle\">\n            <div class=\"response-fixation\"></div>\n            <div id=\"bar\" class=\"rotating-bar\"></div>\n          </div>\n        </div>\n      ","response":"Enter","trial_type":"html-keyboard-response","trial_index":64,"plugin_version":"2.1.0","time_elapsed":289594,"random_initial_angle":243,"response_angle_css":43,"response_angle_rdk":47,"angular_error_target":2,"angular_error_distractor":-144,"target_direction":45,"target_group":"white","reward_points":9},{"rt":null,"stimulus":"\n          <p style=\"color: #00FF00;\">Your reward: 9 points</p>\n        ","response":null,"trial_type":"html-keyboard-response","trial_index":65,"plugin_version":"2.1.0","time_elapsed":291599},{"rt":4321,"stimulus":"\n        <div class=\"instructions-container\">\n          <h2>End of Practice</h2>\n          <p>You have completed the practice trials.</p>\n          <p>Press <strong>Enter</strong> key to begin the main experiment.</p>\n        </div>\n      ","response":"Enter","trial_type":"html-keyboard-response","trial_index":66,"plugin_version":"2.1.0","time_elapsed":295922},{"rt":null,"stimulus":"<div class=\"fixation\" style=\"font-size: 60px;\">+</div>","response":null,"trial_type":"html-keyboard-response","trial_index":67,"plugin_version":"2.1.0","time_elapsed":296937},{"phase":"learning-awareness","target_group":"black","condition_label":"B_H_vs_W_L_rep7","target_direction":109,"distractor_direction":216,"session_rotation":16,"rt":-1,"response":"","correct":false,"choices":"ALL_KEYS","correct_choice":["a"],"trial_duration":2000,"flip_timestamps":[],"response_ends_trial":false,"number_of_apertures":200,"number_of_dots":[1,1,1,1,1,1,1,1,1,1,1,1,1,1,1,1,1,1,1,1,1,1,1,1,1,1,1,1,1,1,1,1,1,1,1,1,1,1,1,1,1,1,1,1,1,1,1,1,1,1,1,1,1,1,1,1,1,1,1,1,1,1,1,1,1,1,1,1,1,1,1,1,1,1,1,1,1,1,1,1,1,1,1,1,1,1,1,1,1,1,1,1,1,1,1,1,1,1,1,1,1,1,1,1,1,1,1,1,1,1,1,1,1,1,1,1,1,1,1,1,1,1,1,1,1,1,1,1,1,1,1,1,1,1,1,1,1,1,1,1,1,1,1,1,1,1,1,1,1,1,1,1,1,1,1,1,1,1,1,1,1,1,1,1,1,1,1,1,1,1,1,1,1,1,1,1,1,1,1,1,1,1,1,1,1,1,1,1,1,1,1,1,1,1,1,1,1,1,1,1],"number_of_sets":1,"coherent_direction":[216,109,109,216,109,216,109,109,109,109,216,216,109,109,216,109,109,109,216,109,216,109,109,216,109,216,109,216,216,109,109,216,216,216,109,216,216,109,216,109,109,216,109,109,216,216,109,216,109,109,216,216,216,109,109,109,109,216,216,216,216,109,109,109,109,109,216,216,109,109,216,216,109,216,216,109,216,109,216,216,216,109,216,109,216,216,109,216,109,216,216,216,109,216,109,109,109,109,109,109,109,216,109,216,109,216,109,109,109,109,216,109,216,216,216,109,109,216,216,109,216,216,216,109,216,216,216,109,216,216,216,216,109,109,109,216,216,216,216,109,216,216,109,109,216,216,216,109,109,109,109,216,109,109,109,216,216,216,216,216,109,109,109,109,216,216,109,216,216,216,109,109,216,109,216,109,109,109,109,216,109,216,216,216,109,109,109,109,109,109,109,216,216,216,109,216,216,216,216,216],"coherence":1,"opposite_coherence":0,"dot_radius":2,"dot_side_length":1,"dot_life":-1,"move_distance":1,"aperture_width":300,"aperture_height":300,"dot_color":["white","black","black","white","black","white","black","black","black","black","white","white","black","black","white","black","black","black","white","black","white","black","black","white","black","white","black","white","white","black","black","white","white","white","black","white","white","black","white","black","black","white","black","black","white","white","black","white","black","black","white","white","white","black","black","black","black","white","white","white","white","black","black","black","black","black","white","white","black","black","white","white","black","white","white","black","white","black","white","white","white","black","white","black","white","white","black","white","black","white","white","white","black","white","black","black","black","black","black","black","black","white","black","white","black","white","black","black","black","black","white","black","white","white","white","black","black","white","white","black","white","white","white","black","white","white","white","black","white","white","white","white","black","black","black","white","white","white","white","black","white","white","black","black","white","white","white","black","black","black","black","white","black","black","black","white","white","white","white","white","black","black","black","black","white","white","black","white","white","white","black","black","white","black","white","black","black","black","black","white","black","white","white","white","black","black","black","black","black","black","black","white","white","white","black","white","white","white","white","white"],"dot_shape":"circle","background_color":"#AAA","RDK_type":3,"aperture_type":2,"reinsert_type":2,"frame_rate":16.691666666666666,"frame_rate_array":[13,8,17,17,16,17,17,17,17,17,17,16,17,17,17,16,17,17,17,17,17,17,18,15,17,17,16,17,17,17,16,17,17,17,18,16,17,17,16,17,18,16,17,17,17,17,17,17,17,16,16,17,17,17,17,17,17,15,17,17,16,17,16,17,17,17,17,16,17,16,17,17,17,29,5,16,17,16,17,17,17,17,16,17,17,17,17,17,17,17,17,17,16,17,17,17,16,17,17,17,17,17,16,17,17,16,17,17,16,17,18,16,17,17,16,17,17,17,17,17],"number_of_frames":120,"aperture_center_x":1029,"aperture_center_y":579,"fixation_cross":true,"fixation_cross_width":15,"fixation_cross_height":15,"fixation_cross_color":"#111","fixation_cross_thickness":1,"border":true,"border_thickness":2,"border_color":"transparent","canvas_width":2058,"canvas_height":1158,"trial_type":"rdk","trial_index":68,"plugin_version":"2.0.0","time_elapsed":298944},{"rt":2706,"stimulus":"\n        <div class=\"response-container\">\n          <div class=\"response-instruction\">\n            <p>rotate the bar by using the left and right arrow keys.</p>\n            <p>when you are determined, press the Enter key.</p>\n          </div>\n          <div class=\"response-circle\">\n            <div class=\"response-fixation\"></div>\n            <div id=\"bar\" class=\"rotating-bar\"></div>\n          </div>\n        </div>\n      ","response":"Enter","trial_type":"html-keyboard-response","trial_index":69,"plugin_version":"2.1.0","time_elapsed":301652,"random_initial_angle":263,"response_angle_css":325,"response_angle_rdk":125,"angular_error_target":16,"angular_error_distractor":-91,"target_direction":109,"target_group":"black","reward_points":6},{"rt":null,"stimulus":"\n          <p style=\"color: #00FF00;\">Your reward: 6 points</p>\n        ","response":null,"trial_type":"html-keyboard-response","trial_index":70,"plugin_version":"2.1.0","time_elapsed":303665},{"rt":null,"stimulus":"<div class=\"fixation\" style=\"font-size: 60px;\">+</div>","response":null,"trial_type":"html-keyboard-response","trial_index":71,"plugin_version":"2.1.0","time_elapsed":304679},{"phase":"learning-awareness","target_group":"white","condition_label":"W_H_vs_B_L_rep9","target_direction":56,"distractor_direction":300,"session_rotation":16,"rt":-1,"response":"","correct":false,"choices":"ALL_KEYS","correct_choice":["a"],"trial_duration":2000,"flip_timestamps":[],"response_ends_trial":false,"number_of_apertures":200,"number_of_dots":[1,1,1,1,1,1,1,1,1,1,1,1,1,1,1,1,1,1,1,1,1,1,1,1,1,1,1,1,1,1,1,1,1,1,1,1,1,1,1,1,1,1,1,1,1,1,1,1,1,1,1,1,1,1,1,1,1,1,1,1,1,1,1,1,1,1,1,1,1,1,1,1,1,1,1,1,1,1,1,1,1,1,1,1,1,1,1,1,1,1,1,1,1,1,1,1,1,1,1,1,1,1,1,1,1,1,1,1,1,1,1,1,1,1,1,1,1,1,1,1,1,1,1,1,1,1,1,1,1,1,1,1,1,1,1,1,1,1,1,1,1,1,1,1,1,1,1,1,1,1,1,1,1,1,1,1,1,1,1,1,1,1,1,1,1,1,1,1,1,1,1,1,1,1,1,1,1,1,1,1,1,1,1,1,1,1,1,1,1,1,1,1,1,1,1,1,1,1,1,1],"number_of_sets":1,"coherent_direction":[56,300,56,56,56,300,56,300,56,300,56,56,56,56,56,56,56,300,300,56,56,300,300,300,56,56,56,56,56,300,300,56,300,56,300,56,300,300,56,56,56,300,300,56,56,56,300,56,56,300,56,300,56,56,56,300,300,300,300,300,300,56,56,56,300,300,300,300,300,56,300,56,300,300,56,300,56,56,56,56,56,300,56,56,56,300,56,300,56,300,300,300,300,56,300,56,300,300,56,300,56,300,300,56,56,56,300,300,300,300,300,56,300,56,300,56,300,56,300,56,56,300,300,300,56,300,56,56,300,56,300,300,56,56,56,300,56,56,300,56,300,56,300,56,300,300,300,300,300,300,300,56,56,300,56,300,56,300,300,56,300,300,300,300,300,56,300,56,300,300,300,56,56,56,56,56,56,300,300,300,56,300,56,56,56,56,300,56,56,56,300,300,56,300,300,300,56,56,300,300],"coherence":1,"opposite_coherence":0,"dot_radius":2,"dot_side_length":1,"dot_life":-1,"move_distance":1,"aperture_width":300,"aperture_height":300,"dot_color":["white","black","white","white","white","black","white","black","white","black","white","white","white","white","white","white","white","black","black","white","white","black","black","black","white","white","white","white","white","black","black","white","black","white","black","white","black","black","white","white","white","black","black","white","white","white","black","white","white","black","white","black","white","white","white","black","black","black","black","black","black","white","white","white","black","black","black","black","black","white","black","white","black","black","white","black","white","white","white","white","white","black","white","white","white","black","white","black","white","black","black","black","black","white","black","white","black","black","white","black","white","black","black","white","white","white","black","black","black","black","black","white","black","white","black","white","black","white","black","white","white","black","black","black","white","black","white","white","black","white","black","black","white","white","white","black","white","white","black","white","black","white","black","white","black","black","black","black","black","black","black","white","white","black","white","black","white","black","black","white","black","black","black","black","black","white","black","white","black","black","black","white","white","white","white","white","white","black","black","black","white","black","white","white","white","white","black","white","white","white","black","black","white","black","black","black","white","white","black","black"],"dot_shape":"circle","background_color":"#AAA","RDK_type":3,"aperture_type":2,"reinsert_type":2,"frame_rate":16.716666666666665,"frame_rate_array":[13,17,17,17,17,17,17,16,17,17,16,16,17,17,17,17,17,17,17,17,17,16,17,17,17,17,17,17,17,16,17,18,16,16,17,16,17,17,17,17,17,16,17,16,18,16,16,17,17,17,17,17,17,17,16,17,17,17,17,17,16,17,16,17,17,17,16,17,16,17,17,17,17,17,17,16,17,16,17,17,16,17,17,17,17,17,16,17,18,16,17,17,16,17,18,15,17,16,17,17,16,17,16,17,16,17,18,15,17,18,16,17,17,15,17,17,15,17,18,16],"number_of_frames":120,"aperture_center_x":1029,"aperture_center_y":579,"fixation_cross":true,"fixation_cross_width":15,"fixation_cross_height":15,"fixation_cross_color":"#111","fixation_cross_thickness":1,"border":true,"border_thickness":2,"border_color":"transparent","canvas_width":2058,"canvas_height":1158,"trial_type":"rdk","trial_index":72,"plugin_version":"2.0.0","time_elapsed":306688},{"rt":1933,"stimulus":"\n        <div class=\"response-container\">\n          <div class=\"response-instruction\">\n            <p>rotate the bar by using the left and right arrow keys.</p>\n            <p>when you are determined, press the Enter key.</p>\n          </div>\n          <div class=\"response-circle\">\n            <div class=\"response-fixation\"></div>\n            <div id=\"bar\" class=\"rotating-bar\"></div>\n          </div>\n        </div>\n      ","response":"Enter","trial_type":"html-keyboard-response","trial_index":73,"plugin_version":"2.1.0","time_elapsed":308622,"random_initial_angle":346,"response_angle_css":383,"response_angle_rdk":67,"angular_error_target":11,"angular_error_distractor":127,"target_direction":56,"target_group":"white","reward_points":7},{"rt":null,"stimulus":"\n          <p style=\"color: #00FF00;\">Your reward: 7 points</p>\n        ","response":null,"trial_type":"html-keyboard-response","trial_index":74,"plugin_version":"2.1.0","time_elapsed":310639},{"rt":null,"stimulus":"<div class=\"fixation\" style=\"font-size: 60px;\">+</div>","response":null,"trial_type":"html-keyboard-response","trial_index":75,"plugin_version":"2.1.0","time_elapsed":311654},{"phase":"learning-awareness","target_group":"black","condition_label":"B_H_vs_W_L_rep17","target_direction":109,"distractor_direction":217,"session_rotation":16,"rt":-1,"response":"","correct":false,"choices":"ALL_KEYS","correct_choice":["a"],"trial_duration":2000,"flip_timestamps":[],"response_ends_trial":false,"number_of_apertures":200,"number_of_dots":[1,1,1,1,1,1,1,1,1,1,1,1,1,1,1,1,1,1,1,1,1,1,1,1,1,1,1,1,1,1,1,1,1,1,1,1,1,1,1,1,1,1,1,1,1,1,1,1,1,1,1,1,1,1,1,1,1,1,1,1,1,1,1,1,1,1,1,1,1,1,1,1,1,1,1,1,1,1,1,1,1,1,1,1,1,1,1,1,1,1,1,1,1,1,1,1,1,1,1,1,1,1,1,1,1,1,1,1,1,1,1,1,1,1,1,1,1,1,1,1,1,1,1,1,1,1,1,1,1,1,1,1,1,1,1,1,1,1,1,1,1,1,1,1,1,1,1,1,1,1,1,1,1,1,1,1,1,1,1,1,1,1,1,1,1,1,1,1,1,1,1,1,1,1,1,1,1,1,1,1,1,1,1,1,1,1,1,1,1,1,1,1,1,1,1,1,1,1,1,1],"number_of_sets":1,"coherent_direction":[217,217,217,217,109,109,109,109,217,109,109,109,217,217,109,217,109,109,217,217,217,109,109,217,217,109,109,109,217,109,109,109,109,217,217,217,217,109,109,109,109,217,109,217,109,217,109,109,217,217,109,109,109,109,217,217,217,109,217,109,109,217,109,217,109,109,217,109,109,217,109,217,217,217,217,217,217,109,109,109,109,109,109,217,217,217,217,109,217,217,109,217,217,109,109,109,109,217,109,109,109,217,109,109,217,217,217,217,217,217,109,217,109,217,109,109,217,217,109,217,109,217,109,217,109,109,217,109,217,109,217,217,109,109,217,109,217,217,217,217,217,217,217,109,109,217,217,109,109,217,217,109,109,109,109,109,217,217,109,217,109,217,217,217,109,217,109,109,109,109,217,217,109,217,217,217,217,109,217,109,217,109,217,217,217,217,109,109,109,217,217,109,109,109,217,109,217,109,217,109],"coherence":1,"opposite_coherence":0,"dot_radius":2,"dot_side_length":1,"dot_life":-1,"move_distance":1,"aperture_width":300,"aperture_height":300,"dot_color":["white","white","white","white","black","black","black","black","white","black","black","black","white","white","black","white","black","black","white","white","white","black","black","white","white","black","black","black","white","black","black","black","black","white","white","white","white","black","black","black","black","white","black","white","black","white","black","black","white","white","black","black","black","black","white","white","white","black","white","black","black","white","black","white","black","black","white","black","black","white","black","white","white","white","white","white","white","black","black","black","black","black","black","white","white","white","white","black","white","white","black","white","white","black","black","black","black","white","black","black","black","white","black","black","white","white","white","white","white","white","black","white","black","white","black","black","white","white","black","white","black","white","black","white","black","black","white","black","white","black","white","white","black","black","white","black","white","white","white","white","white","white","white","black","black","white","white","black","black","white","white","black","black","black","black","black","white","white","black","white","black","white","white","white","black","white","black","black","black","black","white","white","black","white","white","white","white","black","white","black","white","black","white","white","white","white","black","black","black","white","white","black","black","black","white","black","white","black","white","black"],"dot_shape":"circle","background_color":"#AAA","RDK_type":3,"aperture_type":2,"reinsert_type":2,"frame_rate":16.611570247933884,"frame_rate_array":[14,9,15,17,17,17,17,16,16,17,16,17,17,17,16,17,17,17,16,17,17,17,17,16,17,17,17,16,17,16,17,17,16,17,17,18,18,15,17,17,16,16,18,15,17,17,16,16,18,17,16,18,15,17,17,16,16,17,16,17,17,17,17,17,15,17,16,17,17,17,17,17,17,18,16,19,15,17,17,16,17,16,16,17,17,16,17,17,16,17,16,16,17,17,17,17,18,16,17,16,17,17,17,17,17,16,16,16,17,16,17,17,17,17,17,17,17,17,17,16,17],"number_of_frames":121,"aperture_center_x":1029,"aperture_center_y":579,"fixation_cross":true,"fixation_cross_width":15,"fixation_cross_height":15,"fixation_cross_color":"#111","fixation_cross_thickness":1,"border":true,"border_thickness":2,"border_color":"transparent","canvas_width":2058,"canvas_height":1158,"trial_type":"rdk","trial_index":76,"plugin_version":"2.0.0","time_elapsed":313663},{"rt":2522,"stimulus":"\n        <div class=\"response-container\">\n          <div class=\"response-instruction\">\n            <p>rotate the bar by using the left and right arrow keys.</p>\n            <p>when you are determined, press the Enter key.</p>\n          </div>\n          <div class=\"response-circle\">\n            <div class=\"response-fixation\"></div>\n            <div id=\"bar\" class=\"rotating-bar\"></div>\n          </div>\n        </div>\n      ","response":"Enter","trial_type":"html-keyboard-response","trial_index":77,"plugin_version":"2.1.0","time_elapsed":316186,"random_initial_angle":270,"response_angle_css":328,"response_angle_rdk":122,"angular_error_target":13,"angular_error_distractor":-95,"target_direction":109,"target_group":"black","reward_points":7},{"rt":null,"stimulus":"\n          <p style=\"color: #00FF00;\">Your reward: 7 points</p>\n        ","response":null,"trial_type":"html-keyboard-response","trial_index":78,"plugin_version":"2.1.0","time_elapsed":318195},{"rt":null,"stimulus":"<div class=\"fixation\" style=\"font-size: 60px;\">+</div>","response":null,"trial_type":"html-keyboard-response","trial_index":79,"plugin_version":"2.1.0","time_elapsed":319210},{"phase":"learning-awareness","target_group":"black","condition_label":"B_H_vs_W_L_rep16","target_direction":118,"distractor_direction":240,"session_rotation":16,"rt":-1,"response":"","correct":false,"choices":"ALL_KEYS","correct_choice":["a"],"trial_duration":2000,"flip_timestamps":[],"response_ends_trial":false,"number_of_apertures":200,"number_of_dots":[1,1,1,1,1,1,1,1,1,1,1,1,1,1,1,1,1,1,1,1,1,1,1,1,1,1,1,1,1,1,1,1,1,1,1,1,1,1,1,1,1,1,1,1,1,1,1,1,1,1,1,1,1,1,1,1,1,1,1,1,1,1,1,1,1,1,1,1,1,1,1,1,1,1,1,1,1,1,1,1,1,1,1,1,1,1,1,1,1,1,1,1,1,1,1,1,1,1,1,1,1,1,1,1,1,1,1,1,1,1,1,1,1,1,1,1,1,1,1,1,1,1,1,1,1,1,1,1,1,1,1,1,1,1,1,1,1,1,1,1,1,1,1,1,1,1,1,1,1,1,1,1,1,1,1,1,1,1,1,1,1,1,1,1,1,1,1,1,1,1,1,1,1,1,1,1,1,1,1,1,1,1,1,1,1,1,1,1,1,1,1,1,1,1,1,1,1,1,1,1],"number_of_sets":1,"coherent_direction":[240,240,118,240,240,118,240,240,118,240,240,118,118,118,118,240,118,118,118,118,118,240,118,118,118,118,118,118,240,118,240,118,118,118,240,240,240,240,118,118,240,240,118,240,118,240,118,240,240,118,118,240,240,118,118,118,240,118,240,240,240,118,240,240,240,118,240,240,118,240,118,240,118,118,240,118,118,240,118,240,240,118,118,240,240,240,240,240,118,240,240,240,118,118,118,240,118,240,240,240,118,240,240,240,118,240,118,240,118,118,240,240,118,118,118,118,118,240,240,240,240,240,240,118,240,240,118,118,240,118,118,118,240,118,118,240,118,118,240,240,118,240,118,118,240,240,118,118,240,118,118,118,240,118,240,240,118,118,240,118,240,118,240,240,240,118,118,118,118,240,240,118,240,240,118,118,118,240,240,240,118,118,118,118,240,240,118,118,240,240,240,118,118,240,240,118,240,240,240,118],"coherence":1,"opposite_coherence":0,"dot_radius":2,"dot_side_length":1,"dot_life":-1,"move_distance":1,"aperture_width":300,"aperture_height":300,"dot_color":["white","white","black","white","white","black","white","white","black","white","white","black","black","black","black","white","black","black","black","black","black","white","black","black","black","black","black","black","white","black","white","black","black","black","white","white","white","white","black","black","white","white","black","white","black","white","black","white","white","black","black","white","white","black","black","black","white","black","white","white","white","black","white","white","white","black","white","white","black","white","black","white","black","black","white","black","black","white","black","white","white","black","black","white","white","white","white","white","black","white","white","white","black","black","black","white","black","white","white","white","black","white","white","white","black","white","black","white","black","black","white","white","black","black","black","black","black","white","white","white","white","white","white","black","white","white","black","black","white","black","black","black","white","black","black","white","black","black","white","white","black","white","black","black","white","white","black","black","white","black","black","black","white","black","white","white","black","black","white","black","white","black","white","white","white","black","black","black","black","white","white","black","white","white","black","black","black","white","white","white","black","black","black","black","white","white","black","black","white","white","white","black","black","white","white","black","white","white","white","black"],"dot_shape":"circle","background_color":"#AAA","RDK_type":3,"aperture_type":2,"reinsert_type":2,"frame_rate":16.833333333333332,"frame_rate_array":[16,15,17,17,17,17,17,16,17,16,17,17,17,17,17,16,17,17,17,17,17,17,16,17,17,17,17,17,16,17,16,17,17,17,17,16,17,16,17,16,16,17,17,17,17,17,17,17,17,17,17,17,16,17,17,17,17,17,17,17,17,17,17,17,17,17,17,17,18,16,16,16,17,17,17,17,17,17,17,17,17,16,17,17,17,17,17,17,17,17,17,17,17,17,17,17,17,17,17,17,17,17,17,17,16,17,17,17,17,17,17,17,17,17,17,17,16,17,16,17],"number_of_frames":120,"aperture_center_x":1029,"aperture_center_y":579,"fixation_cross":true,"fixation_cross_width":15,"fixation_cross_height":15,"fixation_cross_color":"#111","fixation_cross_thickness":1,"border":true,"border_thickness":2,"border_color":"transparent","canvas_width":2058,"canvas_height":1158,"trial_type":"rdk","trial_index":80,"plugin_version":"2.0.0","time_elapsed":321213},{"rt":3641,"stimulus":"\n        <div class=\"response-container\">\n          <div class=\"response-instruction\">\n            <p>rotate the bar by using the left and right arrow keys.</p>\n            <p>when you are determined, press the Enter key.</p>\n          </div>\n          <div class=\"response-circle\">\n            <div class=\"response-fixation\"></div>\n            <div id=\"bar\" class=\"rotating-bar\"></div>\n          </div>\n        </div>\n      ","response":"Enter","trial_type":"html-keyboard-response","trial_index":81,"plugin_version":"2.1.0","time_elapsed":324855,"random_initial_angle":132,"response_angle_css":-33,"response_angle_rdk":123,"angular_error_target":5,"angular_error_distractor":-117,"target_direction":118,"target_group":"black","reward_points":9},{"rt":null,"stimulus":"\n          <p style=\"color: #00FF00;\">Your reward: 9 points</p>\n        ","response":null,"trial_type":"html-keyboard-response","trial_index":82,"plugin_version":"2.1.0","time_elapsed":326868},{"rt":null,"stimulus":"<div class=\"fixation\" style=\"font-size: 60px;\">+</div>","response":null,"trial_type":"html-keyboard-response","trial_index":83,"plugin_version":"2.1.0","time_elapsed":327887},{"phase":"learning-awareness","target_group":"white","condition_label":"W_H_vs_B_L_rep15","target_direction":55,"distractor_direction":293,"session_rotation":16,"rt":-1,"response":"","correct":false,"choices":"ALL_KEYS","correct_choice":["a"],"trial_duration":2000,"flip_timestamps":[],"response_ends_trial":false,"number_of_apertures":200,"number_of_dots":[1,1,1,1,1,1,1,1,1,1,1,1,1,1,1,1,1,1,1,1,1,1,1,1,1,1,1,1,1,1,1,1,1,1,1,1,1,1,1,1,1,1,1,1,1,1,1,1,1,1,1,1,1,1,1,1,1,1,1,1,1,1,1,1,1,1,1,1,1,1,1,1,1,1,1,1,1,1,1,1,1,1,1,1,1,1,1,1,1,1,1,1,1,1,1,1,1,1,1,1,1,1,1,1,1,1,1,1,1,1,1,1,1,1,1,1,1,1,1,1,1,1,1,1,1,1,1,1,1,1,1,1,1,1,1,1,1,1,1,1,1,1,1,1,1,1,1,1,1,1,1,1,1,1,1,1,1,1,1,1,1,1,1,1,1,1,1,1,1,1,1,1,1,1,1,1,1,1,1,1,1,1,1,1,1,1,1,1,1,1,1,1,1,1,1,1,1,1,1,1],"number_of_sets":1,"coherent_direction":[293,55,293,55,293,55,55,293,55,293,293,293,293,55,293,55,55,55,55,55,293,55,293,293,293,293,55,293,55,293,55,55,293,293,293,55,293,293,55,55,55,55,55,55,55,293,293,55,55,55,293,55,293,293,55,293,55,55,293,55,55,293,55,55,55,293,293,55,55,293,293,55,55,293,55,293,55,55,293,293,55,55,293,293,293,55,55,55,55,55,293,293,55,293,293,55,55,293,293,55,55,55,293,55,55,293,293,293,55,55,293,293,55,55,293,55,55,55,293,293,293,293,293,55,55,55,293,293,55,293,293,55,293,293,55,55,293,293,55,293,293,293,293,293,293,55,55,293,55,293,55,293,55,293,293,293,55,293,55,55,293,55,293,55,55,55,55,55,55,293,55,55,293,293,293,55,55,293,293,55,293,55,293,293,55,293,293,293,293,55,293,55,293,293,55,293,293,293,55,55],"coherence":1,"opposite_coherence":0,"dot_radius":2,"dot_side_length":1,"dot_life":-1,"move_distance":1,"aperture_width":300,"aperture_height":300,"dot_color":["black","white","black","white","black","white","white","black","white","black","black","black","black","white","black","white","white","white","white","white","black","white","black","black","black","black","white","black","white","black","white","white","black","black","black","white","black","black","white","white","white","white","white","white","white","black","black","white","white","white","black","white","black","black","white","black","white","white","black","white","white","black","white","white","white","black","black","white","white","black","black","white","white","black","white","black","white","white","black","black","white","white","black","black","black","white","white","white","white","white","black","black","white","black","black","white","white","black","black","white","white","white","black","white","white","black","black","black","white","white","black","black","white","white","black","white","white","white","black","black","black","black","black","white","white","white","black","black","white","black","black","white","black","black","white","white","black","black","white","black","black","black","black","black","black","white","white","black","white","black","white","black","white","black","black","black","white","black","white","white","black","white","black","white","white","white","white","white","white","black","white","white","black","black","black","white","white","black","black","white","black","white","black","black","white","black","black","black","black","white","black","white","black","black","white","black","black","black","white","white"],"dot_shape":"circle","background_color":"#AAA","RDK_type":3,"aperture_type":2,"reinsert_type":2,"frame_rate":16.66115702479339,"frame_rate_array":[19,7,12,17,17,17,17,18,15,16,19,17,15,17,17,17,19,16,17,16,17,17,16,17,17,18,16,16,18,15,17,18,15,17,17,16,17,16,18,17,18,16,16,18,16,16,18,17,16,17,15,17,18,16,17,18,15,17,16,17,16,17,17,18,17,16,17,20,13,16,17,17,17,17,16,17,16,17,16,17,17,16,17,16,17,17,17,17,17,17,17,17,17,17,17,16,17,17,17,17,18,16,17,18,16,17,17,16,17,17,17,15,18,16,17,17,16,16,17,17,16],"number_of_frames":121,"aperture_center_x":1029,"aperture_center_y":579,"fixation_cross":true,"fixation_cross_width":15,"fixation_cross_height":15,"fixation_cross_color":"#111","fixation_cross_thickness":1,"border":true,"border_thickness":2,"border_color":"transparent","canvas_width":2058,"canvas_height":1158,"trial_type":"rdk","trial_index":84,"plugin_version":"2.0.0","time_elapsed":329896},{"rt":3273,"stimulus":"\n        <div class=\"response-container\">\n          <div class=\"response-instruction\">\n            <p>rotate the bar by using the left and right arrow keys.</p>\n            <p>when you are determined, press the Enter key.</p>\n          </div>\n          <div class=\"response-circle\">\n            <div class=\"response-fixation\"></div>\n            <div id=\"bar\" class=\"rotating-bar\"></div>\n          </div>\n        </div>\n      ","response":"Enter","trial_type":"html-keyboard-response","trial_index":85,"plugin_version":"2.1.0","time_elapsed":333170,"random_initial_angle":147,"response_angle_css":33,"response_angle_rdk":57,"angular_error_target":2,"angular_error_distractor":124,"target_direction":55,"target_group":"white","reward_points":9},{"rt":null,"stimulus":"\n          <p style=\"color: #00FF00;\">Your reward: 9 points</p>\n        ","response":null,"trial_type":"html-keyboard-response","trial_index":86,"plugin_version":"2.1.0","time_elapsed":335187},{"rt":null,"stimulus":"<div class=\"fixation\" style=\"font-size: 60px;\">+</div>","response":null,"trial_type":"html-keyboard-response","trial_index":87,"plugin_version":"2.1.0","time_elapsed":336202},{"phase":"learning-awareness","target_group":"black","condition_label":"B_H_vs_W_L_rep6","target_direction":108,"distractor_direction":200,"session_rotation":16,"rt":-1,"response":"","correct":false,"choices":"ALL_KEYS","correct_choice":["a"],"trial_duration":2000,"flip_timestamps":[],"response_ends_trial":false,"number_of_apertures":200,"number_of_dots":[1,1,1,1,1,1,1,1,1,1,1,1,1,1,1,1,1,1,1,1,1,1,1,1,1,1,1,1,1,1,1,1,1,1,1,1,1,1,1,1,1,1,1,1,1,1,1,1,1,1,1,1,1,1,1,1,1,1,1,1,1,1,1,1,1,1,1,1,1,1,1,1,1,1,1,1,1,1,1,1,1,1,1,1,1,1,1,1,1,1,1,1,1,1,1,1,1,1,1,1,1,1,1,1,1,1,1,1,1,1,1,1,1,1,1,1,1,1,1,1,1,1,1,1,1,1,1,1,1,1,1,1,1,1,1,1,1,1,1,1,1,1,1,1,1,1,1,1,1,1,1,1,1,1,1,1,1,1,1,1,1,1,1,1,1,1,1,1,1,1,1,1,1,1,1,1,1,1,1,1,1,1,1,1,1,1,1,1,1,1,1,1,1,1,1,1,1,1,1,1],"number_of_sets":1,"coherent_direction":[200,108,108,200,108,108,200,200,108,108,200,200,108,200,200,108,108,200,108,108,108,200,108,108,200,108,108,200,200,108,200,200,108,200,108,200,200,108,108,200,200,108,108,200,108,108,200,200,200,108,200,200,200,200,108,200,200,108,200,108,108,108,200,108,108,200,200,108,200,200,108,200,108,200,200,108,108,200,200,200,200,108,200,200,108,200,200,200,200,108,108,108,108,200,108,108,108,108,200,108,200,108,200,108,200,108,200,108,108,200,108,200,108,200,108,200,200,200,200,200,200,200,200,108,200,108,200,200,200,108,108,108,108,200,108,200,200,108,200,108,108,200,200,108,108,108,108,200,108,108,108,108,108,108,108,108,108,108,108,108,200,108,200,200,108,200,200,108,108,200,108,200,108,108,200,108,108,200,200,200,200,200,108,200,200,108,200,108,200,108,108,200,200,200,108,108,200,108,200,200],"coherence":1,"opposite_coherence":0,"dot_radius":2,"dot_side_length":1,"dot_life":-1,"move_distance":1,"aperture_width":300,"aperture_height":300,"dot_color":["white","black","black","white","black","black","white","white","black","black","white","white","black","white","white","black","black","white","black","black","black","white","black","black","white","black","black","white","white","black","white","white","black","white","black","white","white","black","black","white","white","black","black","white","black","black","white","white","white","black","white","white","white","white","black","white","white","black","white","black","black","black","white","black","black","white","white","black","white","white","black","white","black","white","white","black","black","white","white","white","white","black","white","white","black","white","white","white","white","black","black","black","black","white","black","black","black","black","white","black","white","black","white","black","white","black","white","black","black","white","black","white","black","white","black","white","white","white","white","white","white","white","white","black","white","black","white","white","white","black","black","black","black","white","black","white","white","black","white","black","black","white","white","black","black","black","black","white","black","black","black","black","black","black","black","black","black","black","black","black","white","black","white","white","black","white","white","black","black","white","black","white","black","black","white","black","black","white","white","white","white","white","black","white","white","black","white","black","white","black","black","white","white","white","black","black","white","black","white","white"],"dot_shape":"circle","background_color":"#AAA","RDK_type":3,"aperture_type":2,"reinsert_type":2,"frame_rate":16.66115702479339,"frame_rate_array":[7,16,17,17,17,16,17,17,16,18,16,16,17,17,17,17,16,17,17,16,17,17,16,18,16,16,17,17,16,17,17,17,17,17,17,17,16,17,17,16,17,18,16,17,17,17,17,17,17,16,17,17,17,16,17,16,16,17,17,17,18,16,17,17,17,17,17,16,17,17,16,16,16,17,16,17,17,17,17,17,17,17,17,16,17,17,16,17,16,17,17,17,18,16,16,17,16,17,17,17,16,16,17,17,17,17,17,17,17,16,17,16,17,17,17,17,17,17,16,17,16],"number_of_frames":121,"aperture_center_x":1029,"aperture_center_y":579,"fixation_cross":true,"fixation_cross_width":15,"fixation_cross_height":15,"fixation_cross_color":"#111","fixation_cross_thickness":1,"border":true,"border_thickness":2,"border_color":"transparent","canvas_width":2058,"canvas_height":1158,"trial_type":"rdk","trial_index":88,"plugin_version":"2.0.0","time_elapsed":338213},{"rt":3690,"stimulus":"\n        <div class=\"response-container\">\n          <div class=\"response-instruction\">\n            <p>rotate the bar by using the left and right arrow keys.</p>\n            <p>when you are determined, press the Enter key.</p>\n          </div>\n          <div class=\"response-circle\">\n            <div class=\"response-fixation\"></div>\n            <div id=\"bar\" class=\"rotating-bar\"></div>\n          </div>\n        </div>\n      ","response":"Enter","trial_type":"html-keyboard-response","trial_index":89,"plugin_version":"2.1.0","time_elapsed":341904,"random_initial_angle":31,"response_angle_css":-10,"response_angle_rdk":100,"angular_error_target":-8,"angular_error_distractor":-100,"target_direction":108,"target_group":"black","reward_points":8},{"rt":null,"stimulus":"\n          <p style=\"color: #00FF00;\">Your reward: 8 points</p>\n        ","response":null,"trial_type":"html-keyboard-response","trial_index":90,"plugin_version":"2.1.0","time_elapsed":343920},{"rt":null,"stimulus":"<div class=\"fixation\" style=\"font-size: 60px;\">+</div>","response":null,"trial_type":"html-keyboard-response","trial_index":91,"plugin_version":"2.1.0","time_elapsed":344936},{"phase":"learning-awareness","target_group":"black","condition_label":"B_H_vs_W_L_rep19","target_direction":133,"distractor_direction":228,"session_rotation":16,"rt":-1,"response":"","correct":false,"choices":"ALL_KEYS","correct_choice":["a"],"trial_duration":2000,"flip_timestamps":[],"response_ends_trial":false,"number_of_apertures":200,"number_of_dots":[1,1,1,1,1,1,1,1,1,1,1,1,1,1,1,1,1,1,1,1,1,1,1,1,1,1,1,1,1,1,1,1,1,1,1,1,1,1,1,1,1,1,1,1,1,1,1,1,1,1,1,1,1,1,1,1,1,1,1,1,1,1,1,1,1,1,1,1,1,1,1,1,1,1,1,1,1,1,1,1,1,1,1,1,1,1,1,1,1,1,1,1,1,1,1,1,1,1,1,1,1,1,1,1,1,1,1,1,1,1,1,1,1,1,1,1,1,1,1,1,1,1,1,1,1,1,1,1,1,1,1,1,1,1,1,1,1,1,1,1,1,1,1,1,1,1,1,1,1,1,1,1,1,1,1,1,1,1,1,1,1,1,1,1,1,1,1,1,1,1,1,1,1,1,1,1,1,1,1,1,1,1,1,1,1,1,1,1,1,1,1,1,1,1,1,1,1,1,1,1],"number_of_sets":1,"coherent_direction":[228,228,228,228,133,228,133,228,228,228,133,133,228,133,133,228,228,133,133,228,228,228,133,133,133,228,228,133,133,133,133,133,133,133,133,228,133,228,228,228,228,133,133,228,133,228,228,228,228,228,228,133,133,133,228,133,133,133,228,133,228,133,133,133,133,228,228,228,228,228,133,228,228,228,133,133,133,133,228,133,228,133,133,133,228,228,228,228,228,133,228,133,133,228,133,133,228,228,228,133,228,133,133,228,133,228,133,133,133,133,133,133,228,228,133,228,133,228,133,133,228,133,228,133,133,228,133,133,133,228,228,133,133,228,133,228,133,133,228,228,133,133,228,228,133,228,228,228,133,133,228,133,133,133,133,228,133,133,133,228,133,228,133,228,228,133,228,228,228,133,133,228,228,228,133,228,228,228,133,228,133,228,133,228,228,133,228,228,228,228,228,228,133,228,133,133,228,228,133,133],"coherence":1,"opposite_coherence":0,"dot_radius":2,"dot_side_length":1,"dot_life":-1,"move_distance":1,"aperture_width":300,"aperture_height":300,"dot_color":["white","white","white","white","black","white","black","white","white","white","black","black","white","black","black","white","white","black","black","white","white","white","black","black","black","white","white","black","black","black","black","black","black","black","black","white","black","white","white","white","white","black","black","white","black","white","white","white","white","white","white","black","black","black","white","black","black","black","white","black","white","black","black","black","black","white","white","white","white","white","black","white","white","white","black","black","black","black","white","black","white","black","black","black","white","white","white","white","white","black","white","black","black","white","black","black","white","white","white","black","white","black","black","white","black","white","black","black","black","black","black","black","white","white","black","white","black","white","black","black","white","black","white","black","black","white","black","black","black","white","white","black","black","white","black","white","black","black","white","white","black","black","white","white","black","white","white","white","black","black","white","black","black","black","black","white","black","black","black","white","black","white","black","white","white","black","white","white","white","black","black","white","white","white","black","white","white","white","black","white","black","white","black","white","white","black","white","white","white","white","white","white","black","white","black","black","white","white","black","black"],"dot_shape":"circle","background_color":"#AAA","RDK_type":3,"aperture_type":2,"reinsert_type":2,"frame_rate":16.66115702479339,"frame_rate_array":[17,10,12,17,19,15,16,17,16,17,17,16,17,17,16,17,18,16,17,17,17,16,18,16,16,17,16,17,18,16,17,18,16,17,18,15,16,18,15,17,17,17,16,17,17,16,18,15,16,17,17,17,17,16,16,17,16,17,17,17,17,18,16,17,18,17,16,18,16,16,17,17,17,17,17,16,17,17,17,17,17,16,17,17,18,16,17,16,16,17,16,18,16,17,18,16,16,18,16,16,18,16,16,17,17,17,17,17,17,18,15,17,17,16,17,18,16,16,17,17,17],"number_of_frames":121,"aperture_center_x":1029,"aperture_center_y":579,"fixation_cross":true,"fixation_cross_width":15,"fixation_cross_height":15,"fixation_cross_color":"#111","fixation_cross_thickness":1,"border":true,"border_thickness":2,"border_color":"transparent","canvas_width":2058,"canvas_height":1158,"trial_type":"rdk","trial_index":92,"plugin_version":"2.0.0","time_elapsed":346948},{"rt":2238,"stimulus":"\n        <div class=\"response-container\">\n          <div class=\"response-instruction\">\n            <p>rotate the bar by using the left and right arrow keys.</p>\n            <p>when you are determined, press the Enter key.</p>\n          </div>\n          <div class=\"response-circle\">\n            <div class=\"response-fixation\"></div>\n            <div id=\"bar\" class=\"rotating-bar\"></div>\n          </div>\n        </div>\n      ","response":"Enter","trial_type":"html-keyboard-response","trial_index":93,"plugin_version":"2.1.0","time_elapsed":349187,"random_initial_angle":285,"response_angle_css":321,"response_angle_rdk":129,"angular_error_target":-4,"angular_error_distractor":-99,"target_direction":133,"target_group":"black","reward_points":9},{"rt":null,"stimulus":"\n          <p style=\"color: #00FF00;\">Your reward: 9 points</p>\n        ","response":null,"trial_type":"html-keyboard-response","trial_index":94,"plugin_version":"2.1.0","time_elapsed":351202},{"rt":null,"stimulus":"<div class=\"fixation\" style=\"font-size: 60px;\">+</div>","response":null,"trial_type":"html-keyboard-response","trial_index":95,"plugin_version":"2.1.0","time_elapsed":352214},{"phase":"learning-awareness","target_group":"white","condition_label":"W_H_vs_B_L_rep20","target_direction":22,"distractor_direction":289,"session_rotation":16,"rt":-1,"response":"","correct":false,"choices":"ALL_KEYS","correct_choice":["a"],"trial_duration":2000,"flip_timestamps":[],"response_ends_trial":false,"number_of_apertures":200,"number_of_dots":[1,1,1,1,1,1,1,1,1,1,1,1,1,1,1,1,1,1,1,1,1,1,1,1,1,1,1,1,1,1,1,1,1,1,1,1,1,1,1,1,1,1,1,1,1,1,1,1,1,1,1,1,1,1,1,1,1,1,1,1,1,1,1,1,1,1,1,1,1,1,1,1,1,1,1,1,1,1,1,1,1,1,1,1,1,1,1,1,1,1,1,1,1,1,1,1,1,1,1,1,1,1,1,1,1,1,1,1,1,1,1,1,1,1,1,1,1,1,1,1,1,1,1,1,1,1,1,1,1,1,1,1,1,1,1,1,1,1,1,1,1,1,1,1,1,1,1,1,1,1,1,1,1,1,1,1,1,1,1,1,1,1,1,1,1,1,1,1,1,1,1,1,1,1,1,1,1,1,1,1,1,1,1,1,1,1,1,1,1,1,1,1,1,1,1,1,1,1,1,1],"number_of_sets":1,"coherent_direction":[22,22,289,22,289,22,289,22,22,289,289,22,289,22,289,22,289,289,22,22,289,289,22,22,22,22,22,22,289,289,289,22,289,289,22,289,289,289,22,289,22,22,22,289,22,22,22,22,22,289,289,289,289,22,22,22,289,289,289,289,289,22,22,289,289,22,289,22,289,22,22,22,289,22,289,289,22,22,22,289,22,22,289,22,22,289,22,22,22,289,289,289,289,22,22,289,22,289,22,289,289,22,289,22,22,289,289,289,289,289,289,289,22,22,289,289,289,289,22,22,22,289,22,289,22,22,289,289,289,22,22,22,289,22,22,22,22,22,289,289,289,22,22,22,289,289,22,289,22,289,22,289,289,22,289,289,289,289,22,289,22,289,289,22,22,289,289,22,22,289,22,289,22,289,22,22,22,289,289,289,22,289,289,289,22,289,289,289,289,289,289,22,22,22,22,289,22,22,22,22],"coherence":1,"opposite_coherence":0,"dot_radius":2,"dot_side_length":1,"dot_life":-1,"move_distance":1,"aperture_width":300,"aperture_height":300,"dot_color":["white","white","black","white","black","white","black","white","white","black","black","white","black","white","black","white","black","black","white","white","black","black","white","white","white","white","white","white","black","black","black","white","black","black","white","black","black","black","white","black","white","white","white","black","white","white","white","white","white","black","black","black","black","white","white","white","black","black","black","black","black","white","white","black","black","white","black","white","black","white","white","white","black","white","black","black","white","white","white","black","white","white","black","white","white","black","white","white","white","black","black","black","black","white","white","black","white","black","white","black","black","white","black","white","white","black","black","black","black","black","black","black","white","white","black","black","black","black","white","white","white","black","white","black","white","white","black","black","black","white","white","white","black","white","white","white","white","white","black","black","black","white","white","white","black","black","white","black","white","black","white","black","black","white","black","black","black","black","white","black","white","black","black","white","white","black","black","white","white","black","white","black","white","black","white","white","white","black","black","black","white","black","black","black","white","black","black","black","black","black","black","white","white","white","white","black","white","white","white","white"],"dot_shape":"circle","background_color":"#AAA","RDK_type":3,"aperture_type":2,"reinsert_type":2,"frame_rate":16.708333333333332,"frame_rate_array":[16,13,16,16,17,17,17,17,16,17,16,18,16,17,18,15,17,16,18,17,16,17,17,18,15,17,17,16,17,18,16,17,17,16,17,18,15,17,17,17,16,17,17,17,18,17,16,15,17,17,18,15,17,17,16,17,17,16,17,17,17,16,16,17,17,16,17,16,17,16,17,17,17,16,17,17,16,17,17,17,16,17,17,17,18,16,18,16,17,17,17,16,17,17,17,18,16,17,17,17,17,17,17,16,18,16,17,17,16,16,17,17,16,17,17,16,17,16,17,18],"number_of_frames":120,"aperture_center_x":1029,"aperture_center_y":579,"fixation_cross":true,"fixation_cross_width":15,"fixation_cross_height":15,"fixation_cross_color":"#111","fixation_cross_thickness":1,"border":true,"border_thickness":2,"border_color":"transparent","canvas_width":2058,"canvas_height":1158,"trial_type":"rdk","trial_index":96,"plugin_version":"2.0.0","time_elapsed":354217},{"rt":2880,"stimulus":"\n        <div class=\"response-container\">\n          <div class=\"response-instruction\">\n            <p>rotate the bar by using the left and right arrow keys.</p>\n            <p>when you are determined, press the Enter key.</p>\n          </div>\n          <div class=\"response-circle\">\n            <div class=\"response-fixation\"></div>\n            <div id=\"bar\" class=\"rotating-bar\"></div>\n          </div>\n        </div>\n      ","response":"Enter","trial_type":"html-keyboard-response","trial_index":97,"plugin_version":"2.1.0","time_elapsed":357099,"random_initial_angle":107,"response_angle_css":40,"response_angle_rdk":50,"angular_error_target":28,"angular_error_distractor":121,"target_direction":22,"target_group":"white","reward_points":4},{"rt":null,"stimulus":"\n          <p style=\"color: #00FF00;\">Your reward: 4 points</p>\n        ","response":null,"trial_type":"html-keyboard-response","trial_index":98,"plugin_version":"2.1.0","time_elapsed":359105},{"rt":null,"stimulus":"<div class=\"fixation\" style=\"font-size: 60px;\">+</div>","response":null,"trial_type":"html-keyboard-response","trial_index":99,"plugin_version":"2.1.0","time_elapsed":360118},{"phase":"learning-awareness","target_group":"black","condition_label":"B_H_vs_W_L_rep8","target_direction":119,"distractor_direction":226,"session_rotation":16,"rt":-1,"response":"","correct":false,"choices":"ALL_KEYS","correct_choice":["a"],"trial_duration":2000,"flip_timestamps":[],"response_ends_trial":false,"number_of_apertures":200,"number_of_dots":[1,1,1,1,1,1,1,1,1,1,1,1,1,1,1,1,1,1,1,1,1,1,1,1,1,1,1,1,1,1,1,1,1,1,1,1,1,1,1,1,1,1,1,1,1,1,1,1,1,1,1,1,1,1,1,1,1,1,1,1,1,1,1,1,1,1,1,1,1,1,1,1,1,1,1,1,1,1,1,1,1,1,1,1,1,1,1,1,1,1,1,1,1,1,1,1,1,1,1,1,1,1,1,1,1,1,1,1,1,1,1,1,1,1,1,1,1,1,1,1,1,1,1,1,1,1,1,1,1,1,1,1,1,1,1,1,1,1,1,1,1,1,1,1,1,1,1,1,1,1,1,1,1,1,1,1,1,1,1,1,1,1,1,1,1,1,1,1,1,1,1,1,1,1,1,1,1,1,1,1,1,1,1,1,1,1,1,1,1,1,1,1,1,1,1,1,1,1,1,1],"number_of_sets":1,"coherent_direction":[119,226,119,226,119,226,119,226,226,119,226,226,226,226,226,119,226,119,226,226,119,119,119,119,119,119,119,119,226,119,119,119,119,119,119,119,226,226,119,226,119,119,119,119,119,226,119,226,226,119,226,119,226,119,226,226,119,226,119,226,119,119,226,226,119,119,226,119,226,119,226,226,119,119,226,226,119,226,119,226,226,119,119,119,119,226,226,119,226,226,226,226,119,119,226,119,226,119,226,226,119,119,119,119,226,226,226,119,226,119,226,226,226,226,226,226,226,226,119,119,119,119,119,119,119,119,226,119,226,119,119,119,226,226,226,119,226,226,226,119,226,226,226,226,226,119,119,226,119,226,119,226,119,226,119,226,226,119,119,226,119,226,119,226,119,226,226,226,119,119,226,119,119,226,226,119,119,226,226,226,226,119,119,119,226,226,119,226,119,119,119,119,226,226,226,226,119,226,119,226],"coherence":1,"opposite_coherence":0,"dot_radius":2,"dot_side_length":1,"dot_life":-1,"move_distance":1,"aperture_width":300,"aperture_height":300,"dot_color":["black","white","black","white","black","white","black","white","white","black","white","white","white","white","white","black","white","black","white","white","black","black","black","black","black","black","black","black","white","black","black","black","black","black","black","black","white","white","black","white","black","black","black","black","black","white","black","white","white","black","white","black","white","black","white","white","black","white","black","white","black","black","white","white","black","black","white","black","white","black","white","white","black","black","white","white","black","white","black","white","white","black","black","black","black","white","white","black","white","white","white","white","black","black","white","black","white","black","white","white","black","black","black","black","white","white","white","black","white","black","white","white","white","white","white","white","white","white","black","black","black","black","black","black","black","black","white","black","white","black","black","black","white","white","white","black","white","white","white","black","white","white","white","white","white","black","black","white","black","white","black","white","black","white","black","white","white","black","black","white","black","white","black","white","black","white","white","white","black","black","white","black","black","white","white","black","black","white","white","white","white","black","black","black","white","white","black","white","black","black","black","black","white","white","white","white","black","white","black","white"],"dot_shape":"circle","background_color":"#AAA","RDK_type":3,"aperture_type":2,"reinsert_type":2,"frame_rate":16.735537190082646,"frame_rate_array":[10,15,17,17,18,17,16,17,18,16,17,18,16,16,18,16,17,18,16,16,17,17,17,17,17,17,17,17,17,16,17,16,17,16,17,18,16,17,17,17,17,17,17,17,17,17,17,16,17,17,17,16,17,17,16,17,16,17,16,17,16,17,17,17,16,17,17,17,17,17,17,16,17,17,17,17,16,17,17,17,16,17,16,17,17,17,16,17,17,17,16,17,17,17,17,17,17,17,17,17,17,17,17,17,17,16,17,17,16,17,16,17,17,17,17,16,17,17,16,17,17],"number_of_frames":121,"aperture_center_x":1029,"aperture_center_y":579,"fixation_cross":true,"fixation_cross_width":15,"fixation_cross_height":15,"fixation_cross_color":"#111","fixation_cross_thickness":1,"border":true,"border_thickness":2,"border_color":"transparent","canvas_width":2058,"canvas_height":1158,"trial_type":"rdk","trial_index":100,"plugin_version":"2.0.0","time_elapsed":362130},{"rt":2058,"stimulus":"\n        <div class=\"response-container\">\n          <div class=\"response-instruction\">\n            <p>rotate the bar by using the left and right arrow keys.</p>\n            <p>when you are determined, press the Enter key.</p>\n          </div>\n          <div class=\"response-circle\">\n            <div class=\"response-fixation\"></div>\n            <div id=\"bar\" class=\"rotating-bar\"></div>\n          </div>\n        </div>\n      ","response":"Enter","trial_type":"html-keyboard-response","trial_index":101,"plugin_version":"2.1.0","time_elapsed":364189,"random_initial_angle":292,"response_angle_css":322,"response_angle_rdk":128,"angular_error_target":9,"angular_error_distractor":-98,"target_direction":119,"target_group":"black","reward_points":8},{"rt":null,"stimulus":"\n          <p style=\"color: #00FF00;\">Your reward: 8 points</p>\n        ","response":null,"trial_type":"html-keyboard-response","trial_index":102,"plugin_version":"2.1.0","time_elapsed":366191},{"rt":null,"stimulus":"<div class=\"fixation\" style=\"font-size: 60px;\">+</div>","response":null,"trial_type":"html-keyboard-response","trial_index":103,"plugin_version":"2.1.0","time_elapsed":367208},{"phase":"learning-awareness","target_group":"white","condition_label":"W_H_vs_B_L_rep2","target_direction":54,"distractor_direction":324,"session_rotation":16,"rt":-1,"response":"","correct":false,"choices":"ALL_KEYS","correct_choice":["a"],"trial_duration":2000,"flip_timestamps":[],"response_ends_trial":false,"number_of_apertures":200,"number_of_dots":[1,1,1,1,1,1,1,1,1,1,1,1,1,1,1,1,1,1,1,1,1,1,1,1,1,1,1,1,1,1,1,1,1,1,1,1,1,1,1,1,1,1,1,1,1,1,1,1,1,1,1,1,1,1,1,1,1,1,1,1,1,1,1,1,1,1,1,1,1,1,1,1,1,1,1,1,1,1,1,1,1,1,1,1,1,1,1,1,1,1,1,1,1,1,1,1,1,1,1,1,1,1,1,1,1,1,1,1,1,1,1,1,1,1,1,1,1,1,1,1,1,1,1,1,1,1,1,1,1,1,1,1,1,1,1,1,1,1,1,1,1,1,1,1,1,1,1,1,1,1,1,1,1,1,1,1,1,1,1,1,1,1,1,1,1,1,1,1,1,1,1,1,1,1,1,1,1,1,1,1,1,1,1,1,1,1,1,1,1,1,1,1,1,1,1,1,1,1,1,1],"number_of_sets":1,"coherent_direction":[324,324,324,324,54,324,54,324,324,54,324,54,324,54,324,54,54,54,54,324,54,324,324,324,324,54,54,54,54,324,54,54,324,54,54,324,54,54,324,54,54,54,324,324,324,324,324,324,324,324,54,324,324,324,54,324,324,324,324,54,54,54,54,324,54,324,54,54,54,324,324,54,54,324,54,54,324,324,54,54,54,54,324,324,324,54,54,324,324,54,324,324,54,54,324,324,324,54,54,324,54,324,54,54,54,54,54,54,324,54,324,324,324,54,54,324,324,324,54,54,54,54,54,54,54,54,324,54,324,324,324,324,324,54,54,324,324,54,324,54,324,54,54,324,324,324,54,54,324,54,324,54,324,324,54,324,324,54,324,54,54,54,324,324,54,324,324,54,54,324,324,324,324,54,324,324,54,54,54,324,54,54,324,54,324,54,324,54,324,324,54,54,54,324,54,324,54,54,324,324],"coherence":1,"opposite_coherence":0,"dot_radius":2,"dot_side_length":1,"dot_life":-1,"move_distance":1,"aperture_width":300,"aperture_height":300,"dot_color":["black","black","black","black","white","black","white","black","black","white","black","white","black","white","black","white","white","white","white","black","white","black","black","black","black","white","white","white","white","black","white","white","black","white","white","black","white","white","black","white","white","white","black","black","black","black","black","black","black","black","white","black","black","black","white","black","black","black","black","white","white","white","white","black","white","black","white","white","white","black","black","white","white","black","white","white","black","black","white","white","white","white","black","black","black","white","white","black","black","white","black","black","white","white","black","black","black","white","white","black","white","black","white","white","white","white","white","white","black","white","black","black","black","white","white","black","black","black","white","white","white","white","white","white","white","white","black","white","black","black","black","black","black","white","white","black","black","white","black","white","black","white","white","black","black","black","white","white","black","white","black","white","black","black","white","black","black","white","black","white","white","white","black","black","white","black","black","white","white","black","black","black","black","white","black","black","white","white","white","black","white","white","black","white","black","white","black","white","black","black","white","white","white","black","white","black","white","white","black","black"],"dot_shape":"circle","background_color":"#AAA","RDK_type":3,"aperture_type":2,"reinsert_type":2,"frame_rate":16.68595041322314,"frame_rate_array":[13,6,16,19,14,17,20,14,17,18,16,16,18,15,17,17,16,17,17,17,17,16,17,17,17,16,17,17,17,17,17,17,17,17,16,17,17,16,17,17,17,17,17,16,17,17,16,17,16,17,16,17,17,17,17,17,17,17,17,17,17,17,16,17,16,17,16,17,16,18,16,17,17,17,16,17,17,17,17,17,17,17,17,17,17,17,17,17,16,17,17,17,17,17,16,17,17,17,17,17,17,17,17,17,16,17,17,17,17,16,17,17,17,16,17,17,17,17,17,17,17],"number_of_frames":121,"aperture_center_x":1029,"aperture_center_y":579,"fixation_cross":true,"fixation_cross_width":15,"fixation_cross_height":15,"fixation_cross_color":"#111","fixation_cross_thickness":1,"border":true,"border_thickness":2,"border_color":"transparent","canvas_width":2058,"canvas_height":1158,"trial_type":"rdk","trial_index":104,"plugin_version":"2.0.0","time_elapsed":369214},{"rt":3898,"stimulus":"\n        <div class=\"response-container\">\n          <div class=\"response-instruction\">\n            <p>rotate the bar by using the left and right arrow keys.</p>\n            <p>when you are determined, press the Enter key.</p>\n          </div>\n          <div class=\"response-circle\">\n            <div class=\"response-fixation\"></div>\n            <div id=\"bar\" class=\"rotating-bar\"></div>\n          </div>\n        </div>\n      ","response":"Enter","trial_type":"html-keyboard-response","trial_index":105,"plugin_version":"2.1.0","time_elapsed":373113,"random_initial_angle":208,"response_angle_css":395,"response_angle_rdk":55,"angular_error_target":1,"angular_error_distractor":91,"target_direction":54,"target_group":"white","reward_points":9},{"rt":null,"stimulus":"\n          <p style=\"color: #00FF00;\">Your reward: 9 points</p>\n    