[{"rt":9773,"stimulus":"Welcome to the experiment. Press any key to begin.","response":"c","trial_type":"html-keyboard-response","trial_index":0,"plugin_version":"2.1.0","time_elapsed":9776},{"rt":31229,"stimulus":"\n        <div class=\"instructions-container\">\n          <h2>Instructions</h2>\n\n          <p>\n          In this experiment, you will see <strong>two Random Dot Kinematograms (RDKs)</strong> displayed simultaneously.\n          </p>\n\n          <p>\n          An RDK is a visual stimulus consisting of many small dots that move coherently in a single direction. \n          In this experiment, the dots will be either <strong>white</strong> or <strong>black</strong> \n          (see the short demo below for an example of an RDK stimulus).\n          </p>\n\n          <p>\n          On each trial, the two RDKs will move in different directions. \n          Your task is to decide <strong>which RDK appears to contain more dots</strong>.\n          </p>\n\n          <p>\n          The RDK that you judge to have more dots is called the <strong>target RDK</strong>. \n          For example, if the white RDK appears to have more dots than the black RDK, \n          you should report the motion direction of the white RDK.\n          </p>\n\n          <p>\n          After viewing the RDKs, you will rotate a bar to indicate the perceived direction of the target RDK \n          using the <strong>left</strong> and <strong>right arrow keys</strong>. \n          Press <strong>Enter</strong> when you are satisfied with your response.\n          When the bar is held down, the rotation speed increases.\n          </p>\n\n          <p>\n          You will receive points based on the <strong>accuracy of your response</strong>, \n          and your final <strong>bonus reward</strong> may depend on your overall performance. \n          Please try to respond as accurately as possible.\n          </p>\n\n          <p>\n          You will first complete <strong>16 practice trials</strong>. \n          Press the <strong>Enter</strong> key to start the practice phase.\n          </p>\n\n          <canvas id=\"instruction-demo-rdk\" width=\"200\" height=\"200\"style=\"display:block;margin:12px auto; border-radius: 50%;\"></canvas>\n        </div>\n      ","response":"Enter","trial_type":"html-keyboard-response","trial_index":1,"plugin_version":"2.1.0","time_elapsed":41007},{"rt":null,"stimulus":"<div class=\"fixation\" style=\"font-size: 60px;\">+</div>","response":null,"trial_type":"html-keyboard-response","trial_index":2,"plugin_version":"2.1.0","time_elapsed":42011},{"target_group":"black","target_index":1,"condition_label":"practice","rt":-1,"response":"","correct":false,"choices":"ALL_KEYS","correct_choice":["a"],"trial_duration":2000,"flip_timestamps":[],"response_ends_trial":false,"number_of_apertures":2,"number_of_dots":[60,100],"number_of_sets":1,"coherent_direction":[107,343],"coherence":1,"opposite_coherence":0,"dot_radius":2,"dot_side_length":1,"dot_life":-1,"move_distance":1,"aperture_width":300,"aperture_height":300,"dot_color":["white","black"],"dot_shape":"circle","background_color":"#AAA","RDK_type":3,"aperture_type":2,"reinsert_type":2,"frame_rate":16.925,"frame_rate_array":[12,16,17,17,17,17,17,17,17,17,17,17,17,17,17,17,17,17,17,17,17,17,17,17,17,17,17,17,17,17,17,17,17,17,16,17,17,17,17,17,17,17,17,17,17,17,17,17,17,17,17,17,17,17,17,17,17,17,17,17,17,17,17,17,17,17,17,17,17,16,17,17,17,17,17,17,17,17,17,17,17,17,17,17,17,17,17,17,16,17,17,17,17,17,17,17,17,17,17,17,17,17,17,17,17,17,17,17,17,17,17,17,17,17,17,17,17,17,17,17],"number_of_frames":120,"aperture_center_x":777,"aperture_center_y":487.5,"fixation_cross":true,"fixation_cross_width":15,"fixation_cross_height":15,"fixation_cross_color":"#111","fixation_cross_thickness":1,"border":true,"border_thickness":2,"border_color":"transparent","canvas_width":1554,"canvas_height":975,"trial_type":"rdk","trial_index":3,"plugin_version":"2.0.0","time_elapsed":44019,"phase":"practice","target_direction":343,"distractor_direction":107},{"rt":11203,"stimulus":"\n        <div class=\"response-container\">\n          <div class=\"response-instruction\">\n            <p>rotate the bar by using the left and right arrow keys.</p>\n            <p>when you are determined, press the Enter key.</p>\n          </div>\n          <div class=\"response-circle\">\n            <div class=\"response-fixation\"></div>\n            <div id=\"bar\" class=\"rotating-bar\"></div>\n          </div>\n        </div>\n      ","response":"Enter","trial_type":"html-keyboard-response","trial_index":4,"plugin_version":"2.1.0","time_elapsed":55224,"random_initial_angle":261,"response_angle_css":234,"response_angle_rdk":216,"angular_error_target":-127,"angular_error_distractor":109,"target_direction":343,"target_group":"black","reward_points":0},{"rt":null,"stimulus":"\n          <p style=\"color: #FF3333;\">Your reward: 0 points</p>\n        ","response":null,"trial_type":"html-keyboard-response","trial_index":5,"plugin_version":"2.1.0","time_elapsed":57229},{"rt":null,"stimulus":"<div class=\"fixation\" style=\"font-size: 60px;\">+</div>","response":null,"trial_type":"html-keyboard-response","trial_index":6,"plugin_version":"2.1.0","time_elapsed":58232},{"target_group":"black","target_index":1,"condition_label":"practice","rt":-1,"response":"","correct":false,"choices":"ALL_KEYS","correct_choice":["a"],"trial_duration":2000,"flip_timestamps":[],"response_ends_trial":false,"number_of_apertures":2,"number_of_dots":[94,100],"number_of_sets":1,"coherent_direction":[25,272],"coherence":1,"opposite_coherence":0,"dot_radius":2,"dot_side_length":1,"dot_life":-1,"move_distance":1,"aperture_width":300,"aperture_height":300,"dot_color":["white","black"],"dot_shape":"circle","background_color":"#AAA","RDK_type":3,"aperture_type":2,"reinsert_type":2,"frame_rate":16.9,"frame_rate_array":[11,17,17,16,17,17,17,17,17,17,17,17,17,17,17,17,17,17,17,17,17,17,17,17,17,17,17,17,17,17,17,17,17,17,17,17,17,17,17,17,17,17,16,17,17,17,17,17,17,17,16,17,17,17,17,17,17,17,17,17,16,17,17,17,17,17,17,17,17,17,17,17,17,17,17,17,17,17,17,17,17,17,17,17,17,17,17,17,17,17,17,17,17,16,17,17,17,17,17,17,17,17,17,17,17,17,17,17,17,16,17,17,17,17,17,17,17,17,17,17],"number_of_frames":120,"aperture_center_x":777,"aperture_center_y":487.5,"fixation_cross":true,"fixation_cross_width":15,"fixation_cross_height":15,"fixation_cross_color":"#111","fixation_cross_thickness":1,"border":true,"border_thickness":2,"border_color":"transparent","canvas_width":1554,"canvas_height":975,"trial_type":"rdk","trial_index":7,"plugin_version":"2.0.0","time_elapsed":60238,"phase":"practice","target_direction":272,"distractor_direction":25},{"rt":5010,"stimulus":"\n        <div class=\"response-container\">\n          <div class=\"response-instruction\">\n            <p>rotate the bar by using the left and right arrow keys.</p>\n            <p>when you are determined, press the Enter key.</p>\n          </div>\n          <div class=\"response-circle\">\n            <div class=\"response-fixation\"></div>\n            <div id=\"bar\" class=\"rotating-bar\"></div>\n          </div>\n        </div>\n      ","response":"Enter","trial_type":"html-keyboard-response","trial_index":8,"plugin_version":"2.1.0","time_elapsed":65250,"random_initial_angle":143,"response_angle_css":228,"response_angle_rdk":222,"angular_error_target":-50,"angular_error_distractor":-163,"target_direction":272,"target_group":"black","reward_points":0},{"rt":null,"stimulus":"\n          <p style=\"color: #FF3333;\">Your reward: 0 points</p>\n        ","response":null,"trial_type":"html-keyboard-response","trial_index":9,"plugin_version":"2.1.0","time_elapsed":67254},{"rt":null,"stimulus":"<div class=\"fixation\" style=\"font-size: 60px;\">+</div>","response":null,"trial_type":"html-keyboard-response","trial_index":10,"plugin_version":"2.1.0","time_elapsed":68258},{"target_group":"black","target_index":1,"condition_label":"practice","rt":-1,"response":"","correct":false,"choices":"ALL_KEYS","correct_choice":["a"],"trial_duration":2000,"flip_timestamps":[],"response_ends_trial":false,"number_of_apertures":2,"number_of_dots":[61,100],"number_of_sets":1,"coherent_direction":[78,345],"coherence":1,"opposite_coherence":0,"dot_radius":2,"dot_side_length":1,"dot_life":-1,"move_distance":1,"aperture_width":300,"aperture_height":300,"dot_color":["white","black"],"dot_shape":"circle","background_color":"#AAA","RDK_type":3,"aperture_type":2,"reinsert_type":2,"frame_rate":16.75206611570248,"frame_rate_array":[1,16,17,16,17,17,17,17,17,17,17,17,16,17,17,17,17,17,17,17,17,17,17,17,16,16,16,17,16,17,17,17,17,17,17,17,17,17,17,17,17,17,16,18,17,17,17,16,17,17,17,17,17,17,17,17,17,17,17,17,17,16,17,17,17,17,17,17,16,17,17,16,17,17,16,17,17,17,17,17,17,17,17,17,17,17,17,17,17,17,17,17,17,17,17,17,17,17,17,17,17,17,17,17,17,16,17,17,17,17,17,16,18,17,16,17,17,17,17,17,17],"number_of_frames":121,"aperture_center_x":777,"aperture_center_y":487.5,"fixation_cross":true,"fixation_cross_width":15,"fixation_cross_height":15,"fixation_cross_color":"#111","fixation_cross_thickness":1,"border":true,"border_thickness":2,"border_color":"transparent","canvas_width":1554,"canvas_height":975,"trial_type":"rdk","trial_index":11,"plugin_version":"2.0.0","time_elapsed":70265,"phase":"practice","target_direction":345,"distractor_direction":78},{"rt":3418,"stimulus":"\n        <div class=\"response-container\">\n          <div class=\"response-instruction\">\n            <p>rotate the bar by using the left and right arrow keys.</p>\n            <p>when you are determined, press the Enter key.</p>\n          </div>\n          <div class=\"response-circle\">\n            <div class=\"response-fixation\"></div>\n            <div id=\"bar\" class=\"rotating-bar\"></div>\n          </div>\n        </div>\n      ","response":"Enter","trial_type":"html-keyboard-response","trial_index":12,"plugin_version":"2.1.0","time_elapsed":73685,"random_initial_angle":181,"response_angle_css":160,"response_angle_rdk":290,"angular_error_target":-55,"angular_error_distractor":-148,"target_direction":345,"target_group":"black","reward_points":0},{"rt":null,"stimulus":"\n          <p style=\"color: #FF3333;\">Your reward: 0 points</p>\n        ","response":null,"trial_type":"html-keyboard-response","trial_index":13,"plugin_version":"2.1.0","time_elapsed":75688},{"rt":null,"stimulus":"<div class=\"fixation\" style=\"font-size: 60px;\">+</div>","response":null,"trial_type":"html-keyboard-response","trial_index":14,"plugin_version":"2.1.0","time_elapsed":76692},{"target_group":"white","target_index":0,"condition_label":"practice","rt":-1,"response":"","correct":false,"choices":"ALL_KEYS","correct_choice":["a"],"trial_duration":2000,"flip_timestamps":[],"response_ends_trial":false,"number_of_apertures":2,"number_of_dots":[100,50],"number_of_sets":1,"coherent_direction":[359,132],"coherence":1,"opposite_coherence":0,"dot_radius":2,"dot_side_length":1,"dot_life":-1,"move_distance":1,"aperture_width":300,"aperture_height":300,"dot_color":["white","black"],"dot_shape":"circle","background_color":"#AAA","RDK_type":3,"aperture_type":2,"reinsert_type":2,"frame_rate":16.95798319327731,"frame_rate_array":[18,17,16,17,17,16,17,17,17,17,17,17,17,17,17,17,17,17,17,17,17,17,17,17,17,17,17,17,17,17,17,17,17,17,17,17,17,17,17,17,17,17,17,17,17,17,17,17,17,17,17,17,17,17,16,17,17,17,17,16,17,17,17,17,17,17,17,17,17,17,17,17,17,17,17,17,17,17,17,16,17,17,17,17,17,17,17,17,17,16,17,17,17,17,17,17,17,17,17,17,17,17,17,17,16,18,17,17,17,17,17,17,17,17,17,17,17,17,17],"number_of_frames":119,"aperture_center_x":777,"aperture_center_y":487.5,"fixation_cross":true,"fixation_cross_width":15,"fixation_cross_height":15,"fixation_cross_color":"#111","fixation_cross_thickness":1,"border":true,"border_thickness":2,"border_color":"transparent","canvas_width":1554,"canvas_height":975,"trial_type":"rdk","trial_index":15,"plugin_version":"2.0.0","time_elapsed":78698,"phase":"practice","target_direction":359,"distractor_direction":132},{"rt":2953,"stimulus":"\n        <div class=\"response-container\">\n          <div class=\"response-instruction\">\n            <p>rotate the bar by using the left and right arrow keys.</p>\n            <p>when you are determined, press the Enter key.</p>\n          </div>\n          <div class=\"response-circle\">\n            <div class=\"response-fixation\"></div>\n            <div id=\"bar\" class=\"rotating-bar\"></div>\n          </div>\n        </div>\n      ","response":"Enter","trial_type":"html-keyboard-response","trial_index":16,"plugin_version":"2.1.0","time_elapsed":81653,"random_initial_angle":287,"response_angle_css":319,"response_angle_rdk":131,"angular_error_target":132,"angular_error_distractor":-1,"target_direction":359,"target_group":"white","reward_points":0},{"rt":null,"stimulus":"\n          <p style=\"color: #FF3333;\">Your reward: 0 points</p>\n        ","response":null,"trial_type":"html-keyboard-response","trial_index":17,"plugin_version":"2.1.0","time_elapsed":83656},{"rt":null,"stimulus":"<div class=\"fixation\" style=\"font-size: 60px;\">+</div>","response":null,"trial_type":"html-keyboard-response","trial_index":18,"plugin_version":"2.1.0","time_elapsed":84661},{"target_group":"white","target_index":0,"condition_label":"practice","rt":-1,"response":"","correct":false,"choices":"ALL_KEYS","correct_choice":["a"],"trial_duration":2000,"flip_timestamps":[],"response_ends_trial":false,"number_of_apertures":2,"number_of_dots":[100,65],"number_of_sets":1,"coherent_direction":[80,219],"coherence":1,"opposite_coherence":0,"dot_radius":2,"dot_side_length":1,"dot_life":-1,"move_distance":1,"aperture_width":300,"aperture_height":300,"dot_color":["white","black"],"dot_shape":"circle","background_color":"#AAA","RDK_type":3,"aperture_type":2,"reinsert_type":2,"frame_rate":16.975,"frame_rate_array":[16,17,17,17,17,17,17,17,17,17,17,17,17,17,17,17,17,16,18,17,17,17,17,17,17,17,17,17,17,17,17,17,17,17,17,17,16,17,17,17,17,17,17,17,17,17,17,17,17,17,17,17,17,17,17,17,17,17,17,17,17,17,17,17,17,17,17,17,17,17,17,17,17,17,17,17,17,17,17,17,17,17,17,17,17,17,17,17,17,17,17,17,17,17,17,17,17,17,17,17,17,17,17,17,17,17,17,17,17,17,17,17,17,17,17,16,17,17,17,17],"number_of_frames":120,"aperture_center_x":777,"aperture_center_y":487.5,"fixation_cross":true,"fixation_cross_width":15,"fixation_cross_height":15,"fixation_cross_color":"#111","fixation_cross_thickness":1,"border":true,"border_thickness":2,"border_color":"transparent","canvas_width":1554,"canvas_height":975,"trial_type":"rdk","trial_index":19,"plugin_version":"2.0.0","time_elapsed":86665,"phase":"practice","target_direction":80,"distractor_direction":219},{"rt":2796,"stimulus":"\n        <div class=\"response-container\">\n          <div class=\"response-instruction\">\n            <p>rotate the bar by using the left and right arrow keys.</p>\n            <p>when you are determined, press the Enter key.</p>\n          </div>\n          <div class=\"response-circle\">\n            <div class=\"response-fixation\"></div>\n            <div id=\"bar\" class=\"rotating-bar\"></div>\n          </div>\n        </div>\n      ","response":"Enter","trial_type":"html-keyboard-response","trial_index":20,"plugin_version":"2.1.0","time_elapsed":89463,"random_initial_angle":338,"response_angle_css":234,"response_angle_rdk":216,"angular_error_target":136,"angular_error_distractor":-3,"target_direction":80,"target_group":"white","reward_points":0},{"rt":null,"stimulus":"\n          <p style=\"color: #FF3333;\">Your reward: 0 points</p>\n        ","response":null,"trial_type":"html-keyboard-response","trial_index":21,"plugin_version":"2.1.0","time_elapsed":91466},{"rt":null,"stimulus":"<div class=\"fixation\" style=\"font-size: 60px;\">+</div>","response":null,"trial_type":"html-keyboard-response","trial_index":22,"plugin_version":"2.1.0","time_elapsed":92470},{"target_group":"white","target_index":0,"condition_label":"practice","rt":-1,"response":"","correct":false,"choices":"ALL_KEYS","correct_choice":["a"],"trial_duration":2000,"flip_timestamps":[],"response_ends_trial":false,"number_of_apertures":2,"number_of_dots":[100,69],"number_of_sets":1,"coherent_direction":[347,195],"coherence":1,"opposite_coherence":0,"dot_radius":2,"dot_side_length":1,"dot_life":-1,"move_distance":1,"aperture_width":300,"aperture_height":300,"dot_color":["white","black"],"dot_shape":"circle","background_color":"#AAA","RDK_type":3,"aperture_type":2,"reinsert_type":2,"frame_rate":16.983193277310924,"frame_rate_array":[23,17,16,17,17,16,17,16,17,17,17,17,17,16,17,17,17,17,17,17,17,17,17,17,17,17,17,17,17,17,17,17,17,17,17,17,17,17,17,17,17,17,17,17,17,17,17,17,17,17,17,17,17,17,16,17,17,17,17,17,17,17,17,17,17,17,17,17,17,17,17,17,17,17,17,16,17,17,17,17,17,17,17,17,17,17,17,17,17,17,17,17,17,17,17,17,17,16,17,17,17,17,17,17,17,16,16,18,17,17,17,17,17,17,17,17,17,17,17],"number_of_frames":119,"aperture_center_x":777,"aperture_center_y":487.5,"fixation_cross":true,"fixation_cross_width":15,"fixation_cross_height":15,"fixation_cross_color":"#111","fixation_cross_thickness":1,"border":true,"border_thickness":2,"border_color":"transparent","canvas_width":1554,"canvas_height":975,"trial_type":"rdk","trial_index":23,"plugin_version":"2.0.0","time_elapsed":94475,"phase":"practice","target_direction":347,"distractor_direction":195},{"rt":2769,"stimulus":"\n        <div class=\"response-container\">\n          <div class=\"response-instruction\">\n            <p>rotate the bar by using the left and right arrow keys.</p>\n            <p>when you are determined, press the Enter key.</p>\n          </div>\n          <div class=\"response-circle\">\n            <div class=\"response-fixation\"></div>\n            <div id=\"bar\" class=\"rotating-bar\"></div>\n          </div>\n        </div>\n      ","response":"Enter","trial_type":"html-keyboard-response","trial_index":24,"plugin_version":"2.1.0","time_elapsed":97245,"random_initial_angle":231,"response_angle_css":254,"response_angle_rdk":196,"angular_error_target":-151,"angular_error_distractor":1,"target_direction":347,"target_group":"white","reward_points":0},{"rt":null,"stimulus":"\n          <p style=\"color: #FF3333;\">Your reward: 0 points</p>\n        ","response":null,"trial_type":"html-keyboard-response","trial_index":25,"plugin_version":"2.1.0","time_elapsed":99248},{"rt":null,"stimulus":"<div class=\"fixation\" style=\"font-size: 60px;\">+</div>","response":null,"trial_type":"html-keyboard-response","trial_index":26,"plugin_version":"2.1.0","time_elapsed":100251},{"target_group":"white","target_index":0,"condition_label":"practice","rt":-1,"response":"","correct":false,"choices":"ALL_KEYS","correct_choice":["a"],"trial_duration":2000,"flip_timestamps":[],"response_ends_trial":false,"number_of_apertures":2,"number_of_dots":[100,85],"number_of_sets":1,"coherent_direction":[328,225],"coherence":1,"opposite_coherence":0,"dot_radius":2,"dot_side_length":1,"dot_life":-1,"move_distance":1,"aperture_width":300,"aperture_height":300,"dot_color":["white","black"],"dot_shape":"circle","background_color":"#AAA","RDK_type":3,"aperture_type":2,"reinsert_type":2,"frame_rate":16.866666666666667,"frame_rate_array":[9,17,17,17,16,17,17,17,18,15,17,17,17,17,17,17,17,17,17,17,17,17,17,17,17,17,17,17,17,17,17,17,17,16,16,17,17,17,17,17,17,17,17,17,17,17,17,17,17,17,17,17,17,17,17,17,17,17,17,17,17,17,17,17,17,17,17,17,17,17,16,16,17,17,17,17,17,17,17,17,17,17,17,17,17,17,17,17,17,17,17,17,17,17,17,17,17,17,17,17,17,17,17,17,17,17,17,17,17,17,17,17,17,16,17,17,17,17,17,16],"number_of_frames":120,"aperture_center_x":777,"aperture_center_y":487.5,"fixation_cross":true,"fixation_cross_width":15,"fixation_cross_height":15,"fixation_cross_color":"#111","fixation_cross_thickness":1,"border":true,"border_thickness":2,"border_color":"transparent","canvas_width":1554,"canvas_height":975,"trial_type":"rdk","trial_index":27,"plugin_version":"2.0.0","time_elapsed":102256,"phase":"practice","target_direction":328,"distractor_direction":225},{"rt":1021,"stimulus":"\n        <div class=\"response-container\">\n          <div class=\"response-instruction\">\n            <p>rotate the bar by using the left and right arrow keys.</p>\n            <p>when you are determined, press the Enter key.</p>\n          </div>\n          <div class=\"response-circle\">\n            <div class=\"response-fixation\"></div>\n            <div id=\"bar\" class=\"rotating-bar\"></div>\n          </div>\n        </div>\n      ","response":"Enter","trial_type":"html-keyboard-response","trial_index":28,"plugin_version":"2.1.0","time_elapsed":103279,"random_initial_angle":229,"response_angle_css":229,"response_angle_rdk":221,"angular_error_target":-107,"angular_error_distractor":-4,"target_direction":328,"target_group":"white","reward_points":0},{"rt":null,"stimulus":"\n          <p style=\"color: #FF3333;\">Your reward: 0 points</p>\n        ","response":null,"trial_type":"html-keyboard-response","trial_index":29,"plugin_version":"2.1.0","time_elapsed":105282},{"rt":null,"stimulus":"<div class=\"fixation\" style=\"font-size: 60px;\">+</div>","response":null,"trial_type":"html-keyboard-response","trial_index":30,"plugin_version":"2.1.0","time_elapsed":106285},{"target_group":"black","target_index":1,"condition_label":"practice","rt":-1,"response":"","correct":false,"choices":"ALL_KEYS","correct_choice":["a"],"trial_duration":2000,"flip_timestamps":[],"response_ends_trial":false,"number_of_apertures":2,"number_of_dots":[75,100],"number_of_sets":1,"coherent_direction":[252,101],"coherence":1,"opposite_coherence":0,"dot_radius":2,"dot_side_length":1,"dot_life":-1,"move_distance":1,"aperture_width":300,"aperture_height":300,"dot_color":["white","black"],"dot_shape":"circle","background_color":"#AAA","RDK_type":3,"aperture_type":2,"reinsert_type":2,"frame_rate":16.875,"frame_rate_array":[8,17,17,17,17,17,16,17,17,17,17,17,17,17,17,17,17,17,17,17,17,16,17,17,17,17,17,17,17,17,16,17,17,17,16,18,17,17,17,17,17,17,17,17,17,17,17,17,17,17,17,17,17,17,17,17,17,17,17,17,17,17,17,17,17,17,17,17,17,17,17,17,17,17,17,17,17,17,17,17,17,17,17,17,17,17,17,17,17,17,17,17,17,17,17,17,17,17,16,17,16,17,17,17,17,17,17,17,17,17,17,17,17,16,17,17,17,17,17,17],"number_of_frames":120,"aperture_center_x":777,"aperture_center_y":487.5,"fixation_cross":true,"fixation_cross_width":15,"fixation_cross_height":15,"fixation_cross_color":"#111","fixation_cross_thickness":1,"border":true,"border_thickness":2,"border_color":"transparent","canvas_width":1554,"canvas_height":975,"trial_type":"rdk","trial_index":31,"plugin_version":"2.0.0","time_elapsed":108290,"phase":"practice","target_direction":101,"distractor_direction":252},{"rt":5098,"stimulus":"\n        <div class=\"response-container\">\n          <div class=\"response-instruction\">\n            <p>rotate the bar by using the left and right arrow keys.</p>\n            <p>when you are determined, press the Enter key.</p>\n          </div>\n          <div class=\"response-circle\">\n            <div class=\"response-fixation\"></div>\n            <div id=\"bar\" class=\"rotating-bar\"></div>\n          </div>\n        </div>\n      ","response":"Enter","trial_type":"html-keyboard-response","trial_index":32,"plugin_version":"2.1.0","time_elapsed":113390,"random_initial_angle":135,"response_angle_css":0,"response_angle_rdk":90,"angular_error_target":-11,"angular_error_distractor":-162,"target_direction":101,"target_group":"black","reward_points":7},{"rt":null,"stimulus":"\n          <p style=\"color: #00FF00;\">Your reward: 7 points</p>\n        ","response":null,"trial_type":"html-keyboard-response","trial_index":33,"plugin_version":"2.1.0","time_elapsed":115393},{"rt":null,"stimulus":"<div class=\"fixation\" style=\"font-size: 60px;\">+</div>","response":null,"trial_type":"html-keyboard-response","trial_index":34,"plugin_version":"2.1.0","time_elapsed":116397},{"target_group":"white","target_index":0,"condition_label":"practice","rt":-1,"response":"","correct":false,"choices":"ALL_KEYS","correct_choice":["a"],"trial_duration":2000,"flip_timestamps":[],"response_ends_trial":false,"number_of_apertures":2,"number_of_dots":[100,59],"number_of_sets":1,"coherent_direction":[120,227],"coherence":1,"opposite_coherence":0,"dot_radius":2,"dot_side_length":1,"dot_life":-1,"move_distance":1,"aperture_width":300,"aperture_height":300,"dot_color":["white","black"],"dot_shape":"circle","background_color":"#AAA","RDK_type":3,"aperture_type":2,"reinsert_type":2,"frame_rate":16.95,"frame_rate_array":[16,17,16,17,17,17,17,17,17,17,17,17,17,16,17,16,17,17,17,17,17,17,17,17,17,17,17,17,17,17,17,17,17,17,17,17,17,17,17,17,17,17,17,16,18,17,17,17,17,16,17,17,17,17,17,17,17,17,17,17,17,17,16,17,17,17,17,17,17,17,17,17,17,17,17,17,17,17,17,17,17,17,17,17,17,17,17,17,17,17,17,17,17,17,17,17,17,17,17,17,17,17,17,17,17,17,17,17,17,17,17,17,17,17,17,17,17,17,17,17],"number_of_frames":120,"aperture_center_x":777,"aperture_center_y":487.5,"fixation_cross":true,"fixation_cross_width":15,"fixation_cross_height":15,"fixation_cross_color":"#111","fixation_cross_thickness":1,"border":true,"border_thickness":2,"border_color":"transparent","canvas_width":1554,"canvas_height":975,"trial_type":"rdk","trial_index":35,"plugin_version":"2.0.0","time_elapsed":118416,"phase":"practice","target_direction":120,"distractor_direction":227},{"rt":2842,"stimulus":"\n        <div class=\"response-container\">\n          <div class=\"response-instruction\">\n            <p>rotate the bar by using the left and right arrow keys.</p>\n            <p>when you are determined, press the Enter key.</p>\n          </div>\n          <div class=\"response-circle\">\n            <div class=\"response-fixation\"></div>\n            <div id=\"bar\" class=\"rotating-bar\"></div>\n          </div>\n        </div>\n      ","response":"Enter","trial_type":"html-keyboard-response","trial_index":36,"plugin_version":"2.1.0","time_elapsed":121260,"random_initial_angle":226,"response_angle_css":176,"response_angle_rdk":274,"angular_error_target":154,"angular_error_distractor":47,"target_direction":120,"target_group":"white","reward_points":0},{"rt":null,"stimulus":"\n          <p style=\"color: #FF3333;\">Your reward: 0 points</p>\n        ","response":null,"trial_type":"html-keyboard-response","trial_index":37,"plugin_version":"2.1.0","time_elapsed":123263},{"rt":null,"stimulus":"<div class=\"fixation\" style=\"font-size: 60px;\">+</div>","response":null,"trial_type":"html-keyboard-response","trial_index":38,"plugin_version":"2.1.0","time_elapsed":124267},{"target_group":"white","target_index":0,"condition_label":"practice","rt":-1,"response":"","correct":false,"choices":"ALL_KEYS","correct_choice":["a"],"trial_duration":2000,"flip_timestamps":[],"response_ends_trial":false,"number_of_apertures":2,"number_of_dots":[100,66],"number_of_sets":1,"coherent_direction":[99,262],"coherence":1,"opposite_coherence":0,"dot_radius":2,"dot_side_length":1,"dot_life":-1,"move_distance":1,"aperture_width":300,"aperture_height":300,"dot_color":["white","black"],"dot_shape":"circle","background_color":"#AAA","RDK_type":3,"aperture_type":2,"reinsert_type":2,"frame_rate":16.891666666666666,"frame_rate_array":[10,17,17,17,17,17,17,17,17,17,17,17,16,17,17,17,17,17,17,17,17,17,17,16,17,17,17,16,17,17,17,17,17,17,17,17,17,17,17,17,17,17,17,17,17,17,17,17,17,17,17,17,17,17,17,17,17,17,17,17,17,17,17,17,17,17,17,17,17,17,17,17,17,16,17,17,17,17,17,17,17,17,17,16,18,17,17,17,17,17,17,17,17,17,17,17,17,17,17,17,17,17,17,17,17,17,16,17,17,17,17,17,17,16,17,17,17,17,17,17],"number_of_frames":120,"aperture_center_x":777,"aperture_center_y":487.5,"fixation_cross":true,"fixation_cross_width":15,"fixation_cross_height":15,"fixation_cross_color":"#111","fixation_cross_thickness":1,"border":true,"border_thickness":2,"border_color":"transparent","canvas_width":1554,"canvas_height":975,"trial_type":"rdk","trial_index":39,"plugin_version":"2.0.0","time_elapsed":126272,"phase":"practice","target_direction":99,"distractor_direction":262},{"rt":2852,"stimulus":"\n        <div class=\"response-container\">\n          <div class=\"response-instruction\">\n            <p>rotate the bar by using the left and right arrow keys.</p>\n            <p>when you are determined, press the Enter key.</p>\n          </div>\n          <div class=\"response-circle\">\n            <div class=\"response-fixation\"></div>\n            <div id=\"bar\" class=\"rotating-bar\"></div>\n          </div>\n        </div>\n      ","response":"Enter","trial_type":"html-keyboard-response","trial_index":40,"plugin_version":"2.1.0","time_elapsed":129126,"random_initial_angle":102,"response_angle_css":-3,"response_angle_rdk":93,"angular_error_target":-6,"angular_error_distractor":-169,"target_direction":99,"target_group":"white","reward_points":8},{"rt":null,"stimulus":"\n          <p style=\"color: #00FF00;\">Your reward: 8 points</p>\n        ","response":null,"trial_type":"html-keyboard-response","trial_index":41,"plugin_version":"2.1.0","time_elapsed":131129},{"rt":null,"stimulus":"<div class=\"fixation\" style=\"font-size: 60px;\">+</div>","response":null,"trial_type":"html-keyboard-response","trial_index":42,"plugin_version":"2.1.0","time_elapsed":132133},{"target_group":"white","target_index":0,"condition_label":"practice","rt":-1,"response":"","correct":false,"choices":"ALL_KEYS","correct_choice":["a"],"trial_duration":2000,"flip_timestamps":[],"response_ends_trial":false,"number_of_apertures":2,"number_of_dots":[100,52],"number_of_sets":1,"coherent_direction":[193,302],"coherence":1,"opposite_coherence":0,"dot_radius":2,"dot_side_length":1,"dot_life":-1,"move_distance":1,"aperture_width":300,"aperture_height":300,"dot_color":["white","black"],"dot_shape":"circle","background_color":"#AAA","RDK_type":3,"aperture_type":2,"reinsert_type":2,"frame_rate":16.908333333333335,"frame_rate_array":[10,17,17,17,17,17,16,17,17,17,17,17,17,17,17,17,17,17,17,17,17,17,17,19,14,17,17,16,18,17,17,17,17,17,17,17,17,17,16,18,17,17,17,17,17,17,17,17,17,17,17,17,17,17,17,17,17,17,17,17,17,17,17,17,17,17,17,17,17,17,17,17,17,17,16,17,17,17,17,17,17,17,17,17,16,17,17,17,17,17,17,17,17,17,17,17,17,17,17,17,17,17,17,17,17,17,17,17,17,17,17,17,17,17,17,17,17,17,17,17],"number_of_frames":120,"aperture_center_x":777,"aperture_center_y":487.5,"fixation_cross":true,"fixation_cross_width":15,"fixation_cross_height":15,"fixation_cross_color":"#111","fixation_cross_thickness":1,"border":true,"border_thickness":2,"border_color":"transparent","canvas_width":1554,"canvas_height":975,"trial_type":"rdk","trial_index":43,"plugin_version":"2.0.0","time_elapsed":134139,"phase":"practice","target_direction":193,"distractor_direction":302},{"rt":1381,"stimulus":"\n        <div class=\"response-container\">\n          <div class=\"response-instruction\">\n            <p>rotate the bar by using the left and right arrow keys.</p>\n            <p>when you are determined, press the Enter key.</p>\n          </div>\n          <div class=\"response-circle\">\n            <div class=\"response-fixation\"></div>\n            <div id=\"bar\" class=\"rotating-bar\"></div>\n          </div>\n        </div>\n      ","response":"Enter","trial_type":"html-keyboard-response","trial_index":44,"plugin_version":"2.1.0","time_elapsed":135521,"random_initial_angle":315,"response_angle_css":309,"response_angle_rdk":141,"angular_error_target":-52,"angular_error_distractor":-161,"target_direction":193,"target_group":"white","reward_points":0},{"rt":null,"stimulus":"\n          <p style=\"color: #FF3333;\">Your reward: 0 points</p>\n        ","response":null,"trial_type":"html-keyboard-response","trial_index":45,"plugin_version":"2.1.0","time_elapsed":137525},{"rt":null,"stimulus":"<div class=\"fixation\" style=\"font-size: 60px;\">+</div>","response":null,"trial_type":"html-keyboard-response","trial_index":46,"plugin_version":"2.1.0","time_elapsed":138529},{"target_group":"black","target_index":1,"condition_label":"practice","rt":-1,"response":"","correct":false,"choices":"ALL_KEYS","correct_choice":["a"],"trial_duration":2000,"flip_timestamps":[],"response_ends_trial":false,"number_of_apertures":2,"number_of_dots":[64,100],"number_of_sets":1,"coherent_direction":[273,43],"coherence":1,"opposite_coherence":0,"dot_radius":2,"dot_side_length":1,"dot_life":-1,"move_distance":1,"aperture_width":300,"aperture_height":300,"dot_color":["white","black"],"dot_shape":"circle","background_color":"#AAA","RDK_type":3,"aperture_type":2,"reinsert_type":2,"frame_rate":16.966666666666665,"frame_rate_array":[15,17,17,17,17,17,17,17,17,17,17,17,17,17,17,17,17,17,17,16,17,17,17,17,17,17,17,17,17,17,17,17,17,17,17,17,17,17,17,17,17,17,17,16,17,17,17,17,17,17,17,17,17,17,17,17,17,17,17,17,17,17,17,17,17,17,17,17,17,17,17,17,17,17,17,17,17,17,17,17,17,17,17,17,17,17,17,17,17,17,17,17,17,17,17,17,17,17,17,17,17,17,17,17,17,17,17,17,17,17,17,17,17,16,18,17,17,17,17,17],"number_of_frames":120,"aperture_center_x":777,"aperture_center_y":487.5,"fixation_cross":true,"fixation_cross_width":15,"fixation_cross_height":15,"fixation_cross_color":"#111","fixation_cross_thickness":1,"border":true,"border_thickness":2,"border_color":"transparent","canvas_width":1554,"canvas_height":975,"trial_type":"rdk","trial_index":47,"plugin_version":"2.0.0","time_elapsed":140533,"phase":"practice","target_direction":43,"distractor_direction":273},{"rt":3291,"stimulus":"\n        <div class=\"response-container\">\n          <div class=\"response-instruction\">\n            <p>rotate the bar by using the left and right arrow keys.</p>\n            <p>when you are determined, press the Enter key.</p>\n          </div>\n          <div class=\"response-circle\">\n            <div class=\"response-fixation\"></div>\n            <div id=\"bar\" class=\"rotating-bar\"></div>\n          </div>\n        </div>\n      ","response":"Enter","trial_type":"html-keyboard-response","trial_index":48,"plugin_version":"2.1.0","time_elapsed":143826,"random_initial_angle":87,"response_angle_css":47,"response_angle_rdk":43,"angular_error_target":0,"angular_error_distractor":130,"target_direction":43,"target_group":"black","reward_points":10},{"rt":null,"stimulus":"\n          <p style=\"color: #00FF00;\">Your reward: 10 points</p>\n        ","response":null,"trial_type":"html-keyboard-response","trial_index":49,"plugin_version":"2.1.0","time_elapsed":145829},{"rt":null,"stimulus":"<div class=\"fixation\" style=\"font-size: 60px;\">+</div>","response":null,"trial_type":"html-keyboard-response","trial_index":50,"plugin_version":"2.1.0","time_elapsed":146832},{"target_group":"black","target_index":1,"condition_label":"practice","rt":1312,"response":"ArrowLeft","correct":false,"choices":"ALL_KEYS","correct_choice":["a"],"trial_duration":2000,"flip_timestamps":[],"response_ends_trial":false,"number_of_apertures":2,"number_of_dots":[55,100],"number_of_sets":1,"coherent_direction":[233,86],"coherence":1,"opposite_coherence":0,"dot_radius":2,"dot_side_length":1,"dot_life":-1,"move_distance":1,"aperture_width":300,"aperture_height":300,"dot_color":["white","black"],"dot_shape":"circle","background_color":"#AAA","RDK_type":3,"aperture_type":2,"reinsert_type":2,"frame_rate":16.925,"frame_rate_array":[12,17,16,18,17,17,17,16,17,17,17,17,17,17,17,17,17,17,17,17,17,17,17,17,17,17,17,17,17,17,17,17,17,16,17,17,17,17,17,17,17,17,17,17,17,17,17,17,17,17,17,17,17,17,17,17,17,17,17,17,17,17,17,17,17,17,17,17,17,17,17,17,16,16,17,17,17,17,17,17,17,17,17,17,17,17,17,17,17,17,17,17,17,17,17,17,17,17,17,17,17,17,17,17,17,17,17,17,17,17,17,17,17,17,17,17,17,17,17,17],"number_of_frames":120,"aperture_center_x":777,"aperture_center_y":487.5,"fixation_cross":true,"fixation_cross_width":15,"fixation_cross_height":15,"fixation_cross_color":"#111","fixation_cross_thickness":1,"border":true,"border_thickness":2,"border_color":"transparent","canvas_width":1554,"canvas_height":975,"trial_type":"rdk","trial_index":51,"plugin_version":"2.0.0","time_elapsed":148837,"phase":"practice","target_direction":86,"distractor_direction":233},{"rt":3454,"stimulus":"\n        <div class=\"response-container\">\n          <div class=\"response-instruction\">\n            <p>rotate the bar by using the left and right arrow keys.</p>\n            <p>when you are determined, press the Enter key.</p>\n          </div>\n          <div class=\"response-circle\">\n            <div class=\"response-fixation\"></div>\n            <div id=\"bar\" class=\"rotating-bar\"></div>\n          </div>\n        </div>\n      ","response":"Enter","trial_type":"html-keyboard-response","trial_index":52,"plugin_version":"2.1.0","time_elapsed":152294,"random_initial_angle":107,"response_angle_css":2,"response_angle_rdk":88,"angular_error_target":2,"angular_error_distractor":-145,"target_direction":86,"target_group":"black","reward_points":9},{"rt":null,"stimulus":"\n          <p style=\"color: #00FF00;\">Your reward: 9 points</p>\n        ","response":null,"trial_type":"html-keyboard-response","trial_index":53,"plugin_version":"2.1.0","time_elapsed":154297},{"rt":null,"stimulus":"<div class=\"fixation\" style=\"font-size: 60px;\">+</div>","response":null,"trial_type":"html-keyboard-response","trial_index":54,"plugin_version":"2.1.0","time_elapsed":155300},{"target_group":"white","target_index":0,"condition_label":"practice","rt":-1,"response":"","correct":false,"choices":"ALL_KEYS","correct_choice":["a"],"trial_duration":2000,"flip_timestamps":[],"response_ends_trial":false,"number_of_apertures":2,"number_of_dots":[100,74],"number_of_sets":1,"coherent_direction":[241,340],"coherence":1,"opposite_coherence":0,"dot_radius":2,"dot_side_length":1,"dot_life":-1,"move_distance":1,"aperture_width":300,"aperture_height":300,"dot_color":["white","black"],"dot_shape":"circle","background_color":"#AAA","RDK_type":3,"aperture_type":2,"reinsert_type":2,"frame_rate":16.908333333333335,"frame_rate_array":[11,17,17,17,17,17,17,17,17,17,17,17,17,17,17,16,17,17,17,17,17,17,17,17,16,17,17,17,17,17,17,17,17,17,17,17,17,17,17,17,17,17,17,17,17,17,17,17,17,17,17,17,17,17,17,17,17,17,18,15,17,17,17,17,17,17,17,16,18,17,17,17,17,17,17,17,17,17,17,17,17,17,17,17,17,17,17,17,17,17,17,17,17,17,17,16,17,17,17,17,17,17,17,17,17,16,16,18,17,17,17,17,17,17,17,17,17,17,17,17],"number_of_frames":120,"aperture_center_x":777,"aperture_center_y":487.5,"fixation_cross":true,"fixation_cross_width":15,"fixation_cross_height":15,"fixation_cross_color":"#111","fixation_cross_thickness":1,"border":true,"border_thickness":2,"border_color":"transparent","canvas_width":1554,"canvas_height":975,"trial_type":"rdk","trial_index":55,"plugin_version":"2.0.0","time_elapsed":157305,"phase":"practice","target_direction":241,"distractor_direction":340},{"rt":4156,"stimulus":"\n        <div class=\"response-container\">\n          <div class=\"response-instruction\">\n            <p>rotate the bar by using the left and right arrow keys.</p>\n            <p>when you are determined, press the Enter key.</p>\n          </div>\n          <div class=\"response-circle\">\n            <div class=\"response-fixation\"></div>\n            <div id=\"bar\" class=\"rotating-bar\"></div>\n          </div>\n        </div>\n      ","response":"Enter","trial_type":"html-keyboard-response","trial_index":56,"plugin_version":"2.1.0","time_elapsed":161464,"random_initial_angle":98,"response_angle_css":-138,"response_angle_rdk":228,"angular_error_target":-13,"angular_error_distractor":-112,"target_direction":241,"target_group":"white","reward_points":7},{"rt":null,"stimulus":"\n          <p style=\"color: #00FF00;\">Your reward: 7 points</p>\n        ","response":null,"trial_type":"html-keyboard-response","trial_index":57,"plugin_version":"2.1.0","time_elapsed":163467},{"rt":null,"stimulus":"<div class=\"fixation\" style=\"font-size: 60px;\">+</div>","response":null,"trial_type":"html-keyboard-response","trial_index":58,"plugin_version":"2.1.0","time_elapsed":164471},{"target_group":"black","target_index":1,"condition_label":"practice","rt":-1,"response":"","correct":false,"choices":"ALL_KEYS","correct_choice":["a"],"trial_duration":2000,"flip_timestamps":[],"response_ends_trial":false,"number_of_apertures":2,"number_of_dots":[95,100],"number_of_sets":1,"coherent_direction":[273,58],"coherence":1,"opposite_coherence":0,"dot_radius":2,"dot_side_length":1,"dot_life":-1,"move_distance":1,"aperture_width":300,"aperture_height":300,"dot_color":["white","black"],"dot_shape":"circle","background_color":"#AAA","RDK_type":3,"aperture_type":2,"reinsert_type":2,"frame_rate":17,"frame_rate_array":[23,17,17,17,17,17,17,16,17,17,17,17,17,17,17,17,17,17,17,17,17,17,17,17,17,17,17,17,17,17,17,17,17,16,18,17,17,17,17,17,17,17,17,17,17,17,17,17,17,17,17,17,17,17,17,17,17,17,17,17,17,17,16,17,17,17,17,16,17,17,15,17,17,17,17,17,17,17,17,17,17,17,17,17,17,17,17,17,17,16,17,17,17,17,17,17,17,17,17,17,17,17,17,17,17,17,17,17,17,17,17,17,17,17,17,17,17,17,17],"number_of_frames":119,"aperture_center_x":777,"aperture_center_y":487.5,"fixation_cross":true,"fixation_cross_width":15,"fixation_cross_height":15,"fixation_cross_color":"#111","fixation_cross_thickness":1,"border":true,"border_thickness":2,"border_color":"transparent","canvas_width":1554,"canvas_height":975,"trial_type":"rdk","trial_index":59,"plugin_version":"2.0.0","time_elapsed":166476,"phase":"practice","target_direction":58,"distractor_direction":273},{"rt":2880,"stimulus":"\n        <div class=\"response-container\">\n          <div class=\"response-instruction\">\n            <p>rotate the bar by using the left and right arrow keys.</p>\n            <p>when you are determined, press the Enter key.</p>\n          </div>\n          <div class=\"response-circle\">\n            <div class=\"response-fixation\"></div>\n            <div id=\"bar\" class=\"rotating-bar\"></div>\n          </div>\n        </div>\n      ","response":"Enter","trial_type":"html-keyboard-response","trial_index":60,"plugin_version":"2.1.0","time_elapsed":169358,"random_initial_angle":161,"response_angle_css":43,"response_angle_rdk":47,"angular_error_target":-11,"angular_error_distractor":134,"target_direction":58,"target_group":"black","reward_points":7},{"rt":null,"stimulus":"\n          <p style=\"color: #00FF00;\">Your reward: 7 points</p>\n        ","response":null,"trial_type":"html-keyboard-response","trial_index":61,"plugin_version":"2.1.0","time_elapsed":171362},{"rt":null,"stimulus":"<div class=\"fixation\" style=\"font-size: 60px;\">+</div>","response":null,"trial_type":"html-keyboard-response","trial_index":62,"plugin_version":"2.1.0","time_elapsed":172365},{"target_group":"black","target_index":1,"condition_label":"practice","rt":-1,"response":"","correct":false,"choices":"ALL_KEYS","correct_choice":["a"],"trial_duration":2000,"flip_timestamps":[],"response_ends_trial":false,"number_of_apertures":2,"number_of_dots":[80,100],"number_of_sets":1,"coherent_direction":[266,142],"coherence":1,"opposite_coherence":0,"dot_radius":2,"dot_side_length":1,"dot_life":-1,"move_distance":1,"aperture_width":300,"aperture_height":300,"dot_color":["white","black"],"dot_shape":"circle","background_color":"#AAA","RDK_type":3,"aperture_type":2,"reinsert_type":2,"frame_rate":16.9,"frame_rate_array":[13,17,17,17,17,17,17,17,17,17,17,17,17,17,17,17,16,17,18,18,14,17,17,17,17,17,17,17,17,17,17,17,17,17,17,17,17,17,16,17,17,17,17,17,17,17,17,17,17,17,17,17,17,17,17,17,17,17,16,18,17,17,17,17,17,17,17,17,17,17,17,17,17,17,17,17,17,17,18,15,17,17,17,17,17,17,17,17,17,17,17,17,17,17,16,17,17,17,17,16,17,16,17,17,16,17,17,17,17,17,17,17,17,17,17,17,17,17,17,17],"number_of_frames":120,"aperture_center_x":777,"aperture_center_y":487.5,"fixation_cross":true,"fixation_cross_width":15,"fixation_cross_height":15,"fixation_cross_color":"#111","fixation_cross_thickness":1,"border":true,"border_thickness":2,"border_color":"transparent","canvas_width":1554,"canvas_height":975,"trial_type":"rdk","trial_index":63,"plugin_version":"2.0.0","time_elapsed":174369,"phase":"practice","target_direction":142,"distractor_direction":266},{"rt":1557,"stimulus":"\n        <div class=\"response-container\">\n          <div class=\"response-instruction\">\n            <p>rotate the bar by using the left and right arrow keys.</p>\n            <p>when you are determined, press the Enter key.</p>\n          </div>\n          <div class=\"response-circle\">\n            <div class=\"response-fixation\"></div>\n            <div id=\"bar\" class=\"rotating-bar\"></div>\n          </div>\n        </div>\n      ","response":"Enter","trial_type":"html-keyboard-response","trial_index":64,"plugin_version":"2.1.0","time_elapsed":175928,"random_initial_angle":300,"response_angle_css":313,"response_angle_rdk":137,"angular_error_target":-5,"angular_error_distractor":-129,"target_direction":142,"target_group":"black","reward_points":9},{"rt":null,"stimulus":"\n          <p style=\"color: #00FF00;\">Your reward: 9 points</p>\n        ","response":null,"trial_type":"html-keyboard-response","trial_index":65,"plugin_version":"2.1.0","time_elapsed":177932},{"rt":1424,"stimulus":"\n        <div class=\"instructions-container\">\n          <h2>End of Practice</h2>\n          <p>You have completed the practice trials.</p>\n          <p>Press <strong>Enter</strong> key to begin the main experiment.</p>\n        </div>\n      ","response":"Enter","trial_type":"html-keyboard-response","trial_index":66,"plugin_version":"2.1.0","time_elapsed":179358},{"rt":null,"stimulus":"<div class=\"fixation\" style=\"font-size: 60px;\">+</div>","response":null,"trial_type":"html-keyboard-response","trial_index":67,"plugin_version":"2.1.0","time_elapsed":180363},{"phase":"learning-awareness","target_group":"black","condition_label":"B_H_vs_W_L_rep23","target_direction":41,"distractor_direction":133,"session_rotation":284,"rt":-1,"response":"","correct":false,"choices":"ALL_KEYS","correct_choice":["a"],"trial_duration":2000,"flip_timestamps":[],"response_ends_trial":false,"number_of_apertures":200,"number_of_dots":[1,1,1,1,1,1,1,1,1,1,1,1,1,1,1,1,1,1,1,1,1,1,1,1,1,1,1,1,1,1,1,1,1,1,1,1,1,1,1,1,1,1,1,1,1,1,1,1,1,1,1,1,1,1,1,1,1,1,1,1,1,1,1,1,1,1,1,1,1,1,1,1,1,1,1,1,1,1,1,1,1,1,1,1,1,1,1,1,1,1,1,1,1,1,1,1,1,1,1,1,1,1,1,1,1,1,1,1,1,1,1,1,1,1,1,1,1,1,1,1,1,1,1,1,1,1,1,1,1,1,1,1,1,1,1,1,1,1,1,1,1,1,1,1,1,1,1,1,1,1,1,1,1,1,1,1,1,1,1,1,1,1,1,1,1,1,1,1,1,1,1,1,1,1,1,1,1,1,1,1,1,1,1,1,1,1,1,1,1,1,1,1,1,1,1,1,1,1,1,1],"number_of_sets":1,"coherent_direction":[133,133,41,41,41,133,41,133,133,41,41,41,41,133,133,133,41,41,133,41,133,41,41,133,133,133,41,41,133,41,41,41,41,41,41,41,133,41,41,133,41,41,133,41,41,41,133,41,133,133,41,41,41,133,133,133,133,41,133,133,41,133,133,41,133,41,133,41,133,41,41,133,41,133,133,133,41,41,41,133,133,41,41,133,41,133,133,133,133,41,133,41,133,41,133,133,41,133,41,41,133,41,41,41,41,41,41,41,41,133,133,41,133,41,133,133,133,133,133,133,41,133,41,41,41,133,133,133,133,133,41,133,41,133,41,133,133,41,41,133,41,41,41,133,41,133,41,133,133,133,41,41,133,133,41,41,41,133,133,133,133,133,133,133,133,133,133,41,41,133,133,133,133,133,133,41,41,41,133,41,133,41,41,41,41,41,41,41,133,41,133,133,41,133,41,133,133,133,41,41],"coherence":1,"opposite_coherence":0,"dot_radius":2,"dot_side_length":1,"dot_life":-1,"move_distance":1,"aperture_width":300,"aperture_height":300,"dot_color":["white","white","black","black","black","white","black","white","white","black","black","black","black","white","white","white","black","black","white","black","white","black","black","white","white","white","black","black","white","black","black","black","black","black","black","black","white","black","black","white","black","black","white","black","black","black","white","black","white","white","black","black","black","white","white","white","white","black","white","white","black","white","white","black","white","black","white","black","white","black","black","white","black","white","white","white","black","black","black","white","white","black","black","white","black","white","white","white","white","black","white","black","white","black","white","white","black","white","black","black","white","black","black","black","black","black","black","black","black","white","white","black","white","black","white","white","white","white","white","white","black","white","black","black","black","white","white","white","white","white","black","white","black","white","black","white","white","black","black","white","black","black","black","white","black","white","black","white","white","white","black","black","white","white","black","black","black","white","white","white","white","white","white","white","white","white","white","black","black","white","white","white","white","white","white","black","black","black","white","black","white","black","black","black","black","black","black","black","white","black","white","white","black","white","black","white","white","white","black","black"],"dot_shape":"circle","background_color":"#AAA","RDK_type":3,"aperture_type":2,"reinsert_type":2,"frame_rate":16.866666666666667,"frame_rate_array":[15,17,17,17,16,17,17,15,17,17,17,17,17,17,17,17,17,17,17,17,16,17,17,17,17,17,16,17,17,17,17,17,17,17,17,16,17,17,17,17,17,17,17,17,17,17,17,17,17,17,17,17,16,17,17,17,17,17,17,17,17,17,17,17,16,17,17,17,17,17,17,17,17,16,16,18,17,16,17,17,16,17,17,17,17,17,17,17,17,17,17,17,17,17,16,17,17,17,17,16,17,17,17,17,17,17,17,17,17,17,17,17,16,17,17,17,17,17,17,17],"number_of_frames":120,"aperture_center_x":777,"aperture_center_y":487.5,"fixation_cross":true,"fixation_cross_width":15,"fixation_cross_height":15,"fixation_cross_color":"#111","fixation_cross_thickness":1,"border":true,"border_thickness":2,"border_color":"transparent","canvas_width":1554,"canvas_height":975,"trial_type":"rdk","trial_index":68,"plugin_version":"2.0.0","time_elapsed":182367},{"rt":2134,"stimulus":"\n        <div class=\"response-container\">\n          <div class=\"response-instruction\">\n            <p>rotate the bar by using the left and right arrow keys.</p>\n            <p>when you are determined, press the Enter key.</p>\n          </div>\n          <div class=\"response-circle\">\n            <div class=\"response-fixation\"></div>\n            <div id=\"bar\" class=\"rotating-bar\"></div>\n          </div>\n        </div>\n      ","response":"Enter","trial_type":"html-keyboard-response","trial_index":69,"plugin_version":"2.1.0","time_elapsed":184503,"random_initial_angle":280,"response_angle_css":306,"response_angle_rdk":144,"angular_error_target":103,"angular_error_distractor":11,"target_direction":41,"target_group":"black","reward_points":0},{"rt":null,"stimulus":"\n          <p style=\"color: #FF3333;\">Your reward: 0 points</p>\n        ","response":null,"trial_type":"html-keyboard-response","trial_index":70,"plugin_version":"2.1.0","time_elapsed":186507},{"rt":null,"stimulus":"<div class=\"fixation\" style=\"font-size: 60px;\">+</div>","response":null,"trial_type":"html-keyboard-response","trial_index":71,"plugin_version":"2.1.0","time_elapsed":187510},{"phase":"learning-awareness","target_group":"black","condition_label":"B_H_vs_W_L_rep16","target_direction":57,"distractor_direction":148,"session_rotation":284,"rt":-1,"response":"","correct":false,"choices":"ALL_KEYS","correct_choice":["a"],"trial_duration":2000,"flip_timestamps":[],"response_ends_trial":false,"number_of_apertures":200,"number_of_dots":[1,1,1,1,1,1,1,1,1,1,1,1,1,1,1,1,1,1,1,1,1,1,1,1,1,1,1,1,1,1,1,1,1,1,1,1,1,1,1,1,1,1,1,1,1,1,1,1,1,1,1,1,1,1,1,1,1,1,1,1,1,1,1,1,1,1,1,1,1,1,1,1,1,1,1,1,1,1,1,1,1,1,1,1,1,1,1,1,1,1,1,1,1,1,1,1,1,1,1,1,1,1,1,1,1,1,1,1,1,1,1,1,1,1,1,1,1,1,1,1,1,1,1,1,1,1,1,1,1,1,1,1,1,1,1,1,1,1,1,1,1,1,1,1,1,1,1,1,1,1,1,1,1,1,1,1,1,1,1,1,1,1,1,1,1,1,1,1,1,1,1,1,1,1,1,1,1,1,1,1,1,1,1,1,1,1,1,1,1,1,1,1,1,1,1,1,1,1,1,1],"number_of_sets":1,"coherent_direction":[148,57,148,57,148,148,148,148,57,57,148,148,57,148,57,148,57,57,148,148,57,57,148,148,148,57,57,57,148,148,148,148,57,148,148,57,148,57,57,148,148,148,57,57,148,57,148,148,148,57,57,148,57,57,148,57,57,148,148,148,148,57,57,148,57,57,57,148,57,148,148,57,148,148,57,57,148,57,148,57,148,57,57,148,148,148,57,148,57,148,148,148,148,148,148,57,148,57,148,148,148,148,57,57,148,57,57,57,148,57,57,57,57,57,57,57,148,57,57,57,57,57,57,148,57,148,57,57,57,148,148,148,57,57,148,57,148,57,57,57,148,148,148,57,148,148,148,148,148,148,148,148,148,148,57,57,57,148,148,57,57,57,148,148,57,148,57,57,57,148,148,148,148,57,148,148,57,148,57,57,57,57,57,148,57,148,148,57,57,57,57,57,57,148,57,57,57,57,148,148],"coherence":1,"opposite_coherence":0,"dot_radius":2,"dot_side_length":1,"dot_life":-1,"move_distance":1,"aperture_width":300,"aperture_height":300,"dot_color":["white","black","white","black","white","white","white","white","black","black","white","white","black","white","black","white","black","black","white","white","black","black","white","white","white","black","black","black","white","white","white","white","black","white","white","black","white","black","black","white","white","white","black","black","white","black","white","white","white","black","black","white","black","black","white","black","black","white","white","white","white","black","black","white","black","black","black","white","black","white","white","black","white","white","black","black","white","black","white","black","white","black","black","white","white","white","black","white","black","white","white","white","white","white","white","black","white","black","white","white","white","white","black","black","white","black","black","black","white","black","black","black","black","black","black","black","white","black","black","black","black","black","black","white","black","white","black","black","black","white","white","white","black","black","white","black","white","black","black","black","white","white","white","black","white","white","white","white","white","white","white","white","white","white","black","black","black","white","white","black","black","black","white","white","black","white","black","black","black","white","white","white","white","black","white","white","black","white","black","black","black","black","black","white","black","white","white","black","black","black","black","black","black","white","black","black","black","black","white","white"],"dot_shape":"circle","background_color":"#AAA","RDK_type":3,"aperture_type":2,"reinsert_type":2,"frame_rate":16.891666666666666,"frame_rate_array":[16,17,17,17,17,17,17,17,17,17,17,17,17,17,17,17,17,17,17,17,17,17,17,17,17,17,17,17,17,17,17,17,17,17,16,17,17,17,17,17,16,17,17,16,17,17,17,17,17,17,17,17,17,17,17,16,17,17,16,17,17,17,16,16,16,18,17,16,17,17,17,17,17,16,17,17,17,17,17,17,17,17,17,17,17,17,17,17,17,17,17,16,17,17,17,16,17,17,17,17,17,17,17,17,17,17,17,17,17,17,17,17,17,17,16,17,17,17,17,17],"number_of_frames":120,"aperture_center_x":777,"aperture_center_y":487.5,"fixation_cross":true,"fixation_cross_width":15,"fixation_cross_height":15,"fixation_cross_color":"#111","fixation_cross_thickness":1,"border":true,"border_thickness":2,"border_color":"transparent","canvas_width":1554,"canvas_height":975,"trial_type":"rdk","trial_index":72,"plugin_version":"2.0.0","time_elapsed":189517},{"rt":1355,"stimulus":"\n        <div class=\"response-container\">\n          <div class=\"response-instruction\">\n            <p>rotate the bar by using the left and right arrow keys.</p>\n            <p>when you are determined, press the Enter key.</p>\n          </div>\n          <div class=\"response-circle\">\n            <div class=\"response-fixation\"></div>\n            <div id=\"bar\" class=\"rotating-bar\"></div>\n          </div>\n        </div>\n      ","response":"Enter","trial_type":"html-keyboard-response","trial_index":73,"plugin_version":"2.1.0","time_elapsed":190874,"random_initial_angle":48,"response_angle_css":56,"response_angle_rdk":34,"angular_error_target":-23,"angular_error_distractor":-114,"target_direction":57,"target_group":"black","reward_points":5},{"rt":null,"stimulus":"\n          <p style=\"color: #00FF00;\">Your reward: 5 points</p>\n        ","response":null,"trial_type":"html-keyboard-response","trial_index":74,"plugin_version":"2.1.0","time_elapsed":192878},{"rt":null,"stimulus":"<div class=\"fixation\" style=\"font-size: 60px;\">+</div>","response":null,"trial_type":"html-keyboard-response","trial_index":75,"plugin_version":"2.1.0","time_elapsed":193881},{"phase":"learning-awareness","target_group":"white","condition_label":"W_H_vs_B_L_rep6","target_direction":316,"distractor_direction":208,"session_rotation":284,"rt":-1,"response":"","correct":false,"choices":"ALL_KEYS","correct_choice":["a"],"trial_duration":2000,"flip_timestamps":[],"response_ends_trial":false,"number_of_apertures":200,"number_of_dots":[1,1,1,1,1,1,1,1,1,1,1,1,1,1,1,1,1,1,1,1,1,1,1,1,1,1,1,1,1,1,1,1,1,1,1,1,1,1,1,1,1,1,1,1,1,1,1,1,1,1,1,1,1,1,1,1,1,1,1,1,1,1,1,1,1,1,1,1,1,1,1,1,1,1,1,1,1,1,1,1,1,1,1,1,1,1,1,1,1,1,1,1,1,1,1,1,1,1,1,1,1,1,1,1,1,1,1,1,1,1,1,1,1,1,1,1,1,1,1,1,1,1,1,1,1,1,1,1,1,1,1,1,1,1,1,1,1,1,1,1,1,1,1,1,1,1,1,1,1,1,1,1,1,1,1,1,1,1,1,1,1,1,1,1,1,1,1,1,1,1,1,1,1,1,1,1,1,1,1,1,1,1,1,1,1,1,1,1,1,1,1,1,1,1,1,1,1,1,1,1],"number_of_sets":1,"coherent_direction":[316,316,208,208,208,208,208,316,208,316,208,208,316,208,316,316,316,208,208,208,208,316,208,316,316,316,316,208,316,316,208,208,316,316,316,208,208,208,208,208,316,208,208,316,316,208,208,316,316,316,208,316,208,208,208,208,316,316,208,208,316,208,316,316,208,208,316,316,208,316,208,208,316,208,316,208,208,316,316,316,316,208,316,208,316,316,208,316,208,208,208,208,208,208,316,208,316,208,316,316,316,208,316,208,316,316,208,208,208,208,316,316,208,316,208,208,316,208,208,316,316,316,316,208,316,208,316,316,208,208,316,316,316,208,316,208,208,316,316,316,208,316,316,208,208,208,316,208,208,316,208,316,208,208,208,316,316,316,316,316,316,316,316,208,316,316,316,316,316,316,316,208,208,208,316,316,208,208,208,316,208,208,316,208,316,208,316,316,208,208,316,208,208,208,316,208,316,208,316,208],"coherence":1,"opposite_coherence":0,"dot_radius":2,"dot_side_length":1,"dot_life":-1,"move_distance":1,"aperture_width":300,"aperture_height":300,"dot_color":["white","white","black","black","black","black","black","white","black","white","black","black","white","black","white","white","white","black","black","black","black","white","black","white","white","white","white","black","white","white","black","black","white","white","white","black","black","black","black","black","white","black","black","white","white","black","black","white","white","white","black","white","black","black","black","black","white","white","black","black","white","black","white","white","black","black","white","white","black","white","black","black","white","black","white","black","black","white","white","white","white","black","white","black","white","white","black","white","black","black","black","black","black","black","white","black","white","black","white","white","white","black","white","black","white","white","black","black","black","black","white","white","black","white","black","black","white","black","black","white","white","white","white","black","white","black","white","white","black","black","white","white","white","black","white","black","black","white","white","white","black","white","white","black","black","black","white","black","black","white","black","white","black","black","black","white","white","white","white","white","white","white","white","black","white","white","white","white","white","white","white","black","black","black","white","white","black","black","black","white","black","black","white","black","white","black","white","white","black","black","white","black","black","black","white","black","white","black","white","black"],"dot_shape":"circle","background_color":"#AAA","RDK_type":3,"aperture_type":2,"reinsert_type":2,"frame_rate":16.633333333333333,"frame_rate_array":[13,17,17,17,17,17,15,17,18,17,16,17,16,17,16,18,17,16,17,17,15,17,17,16,17,17,16,16,18,15,18,17,16,17,15,18,17,17,16,17,17,17,16,18,17,16,16,17,17,17,17,17,17,15,17,17,16,17,17,16,18,16,17,16,17,17,17,17,16,17,17,16,16,17,17,15,18,16,17,17,17,17,16,17,17,16,17,15,17,17,16,17,16,17,16,17,16,17,16,17,17,16,17,16,17,17,15,18,16,17,17,15,18,17,16,17,16,17,17,17],"number_of_frames":120,"aperture_center_x":777,"aperture_center_y":487.5,"fixation_cross":true,"fixation_cross_width":15,"fixation_cross_height":15,"fixation_cross_color":"#111","fixation_cross_thickness":1,"border":true,"border_thickness":2,"border_color":"transparent","canvas_width":1554,"canvas_height":975,"trial_type":"rdk","trial_index":76,"plugin_version":"2.0.0","time_elapsed":195886},{"rt":2906,"stimulus":"\n        <div class=\"response-container\">\n          <div class=\"response-instruction\">\n            <p>rotate the bar by using the left and right arrow keys.</p>\n            <p>when you are determined, press the Enter key.</p>\n          </div>\n          <div class=\"response-circle\">\n            <div class=\"response-fixation\"></div>\n            <div id=\"bar\" class=\"rotating-bar\"></div>\n          </div>\n        </div>\n      ","response":"Enter","trial_type":"html-keyboard-response","trial_index":77,"plugin_version":"2.1.0","time_elapsed":198793,"random_initial_angle":136,"response_angle_css":226,"response_angle_rdk":224,"angular_error_target":-92,"angular_error_distractor":16,"target_direction":316,"target_group":"white","reward_points":0},{"rt":null,"stimulus":"\n          <p style=\"color: #FF3333;\">Your reward: 0 points</p>\n        ","response":null,"trial_type":"html-keyboard-response","trial_index":78,"plugin_version":"2.1.0","time_elapsed":200795},{"rt":null,"stimulus":"<div class=\"fixation\" style=\"font-size: 60px;\">+</div>","response":null,"trial_type":"html-keyboard-response","trial_index":79,"plugin_version":"2.1.0","time_elapsed":201798},{"phase":"learning-awareness","target_group":"black","condition_label":"B_H_vs_W_L_rep5","target_direction":31,"distractor_direction":137,"session_rotation":284,"rt":-1,"response":"","correct":false,"choices":"ALL_KEYS","correct_choice":["a"],"trial_duration":2000,"flip_timestamps":[],"response_ends_trial":false,"number_of_apertures":200,"number_of_dots":[1,1,1,1,1,1,1,1,1,1,1,1,1,1,1,1,1,1,1,1,1,1,1,1,1,1,1,1,1,1,1,1,1,1,1,1,1,1,1,1,1,1,1,1,1,1,1,1,1,1,1,1,1,1,1,1,1,1,1,1,1,1,1,1,1,1,1,1,1,1,1,1,1,1,1,1,1,1,1,1,1,1,1,1,1,1,1,1,1,1,1,1,1,1,1,1,1,1,1,1,1,1,1,1,1,1,1,1,1,1,1,1,1,1,1,1,1,1,1,1,1,1,1,1,1,1,1,1,1,1,1,1,1,1,1,1,1,1,1,1,1,1,1,1,1,1,1,1,1,1,1,1,1,1,1,1,1,1,1,1,1,1,1,1,1,1,1,1,1,1,1,1,1,1,1,1,1,1,1,1,1,1,1,1,1,1,1,1,1,1,1,1,1,1,1,1,1,1,1,1],"number_of_sets":1,"coherent_direction":[137,137,31,31,31,31,31,137,137,137,31,137,31,137,31,31,31,31,137,137,137,137,31,31,31,137,31,31,137,31,137,31,31,31,137,31,137,31,31,137,137,137,137,31,137,137,137,137,31,137,137,137,31,137,137,31,137,137,31,137,31,137,31,31,137,31,137,31,31,137,137,31,31,31,137,31,137,137,31,31,137,31,137,31,31,31,31,31,137,31,31,31,31,137,137,137,31,137,137,31,31,137,31,31,31,137,31,137,31,137,31,137,137,137,137,137,137,31,137,137,137,31,31,31,137,31,137,31,31,137,31,137,31,137,137,31,31,31,137,31,137,137,137,137,31,31,137,31,31,137,137,31,31,137,31,31,31,31,31,137,31,137,137,31,137,137,137,31,31,31,137,137,137,31,137,137,137,31,137,31,31,137,137,137,137,31,31,31,31,31,137,137,137,31,137,31,137,137,31,137],"coherence":1,"opposite_coherence":0,"dot_radius":2,"dot_side_length":1,"dot_life":-1,"move_distance":1,"aperture_width":300,"aperture_height":300,"dot_color":["white","white","black","black","black","black","black","white","white","white","black","white","black","white","black","black","black","black","white","white","white","white","black","black","black","white","black","black","white","black","white","black","black","black","white","black","white","black","black","white","white","white","white","black","white","white","white","white","black","white","white","white","black","white","white","black","white","white","black","white","black","white","black","black","white","black","white","black","black","white","white","black","black","black","white","black","white","white","black","black","white","black","white","black","black","black","black","black","white","black","black","black","black","white","white","white","black","white","white","black","black","white","black","black","black","white","black","white","black","white","black","white","white","white","white","white","white","black","white","white","white","black","black","black","white","black","white","black","black","white","black","white","black","white","white","black","black","black","white","black","white","white","white","white","black","black","white","black","black","white","white","black","black","white","black","black","black","black","black","white","black","white","white","black","white","white","white","black","black","black","white","white","white","black","white","white","white","black","white","black","black","white","white","white","white","black","black","black","black","black","white","white","white","black","white","black","white","white","black","white"],"dot_shape":"circle","background_color":"#AAA","RDK_type":3,"aperture_type":2,"reinsert_type":2,"frame_rate":16.666666666666668,"frame_rate_array":[12,17,17,17,17,17,15,18,17,16,16,18,17,16,17,16,17,17,17,16,17,16,16,17,17,17,17,16,18,17,17,17,17,16,17,16,17,17,16,17,17,16,17,16,17,16,17,17,16,18,17,17,16,16,18,17,17,17,16,17,17,17,17,17,16,17,15,17,18,17,16,17,17,17,16,17,16,17,17,16,17,16,17,17,17,16,17,17,17,16,17,16,17,16,17,16,17,17,17,17,16,17,17,16,16,17,17,17,16,17,16,17,16,17,16,17,16,18,17,16],"number_of_frames":120,"aperture_center_x":777,"aperture_center_y":487.5,"fixation_cross":true,"fixation_cross_width":15,"fixation_cross_height":15,"fixation_cross_color":"#111","fixation_cross_thickness":1,"border":true,"border_thickness":2,"border_color":"transparent","canvas_width":1554,"canvas_height":975,"trial_type":"rdk","trial_index":80,"plugin_version":"2.0.0","time_elapsed":203802},{"rt":4067,"stimulus":"\n        <div class=\"response-container\">\n          <div class=\"response-instruction\">\n            <p>rotate the bar by using the left and right arrow keys.</p>\n            <p>when you are determined, press the Enter key.</p>\n          </div>\n          <div class=\"response-circle\">\n            <div class=\"response-fixation\"></div>\n            <div id=\"bar\" class=\"rotating-bar\"></div>\n          </div>\n        </div>\n      ","response":"Enter","trial_type":"html-keyboard-response","trial_index":81,"plugin_version":"2.1.0","time_elapsed":207871,"random_initial_angle":258,"response_angle_css":85,"response_angle_rdk":5,"angular_error_target":-26,"angular_error_distractor":-132,"target_direction":31,"target_group":"black","reward_points":4},{"rt":null,"stimulus":"\n          <p style=\"color: #00FF00;\">Your reward: 4 points</p>\n        ","response":null,"trial_type":"html-keyboard-response","trial_index":82,"plugin_version":"2.1.0","time_elapsed":209873},{"rt":null,"stimulus":"<div class=\"fixation\" style=\"font-size: 60px;\">+</div>","response":null,"trial_type":"html-keyboard-response","trial_index":83,"plugin_version":"2.1.0","time_elapsed":210876},{"phase":"learning-awareness","target_group":"white","condition_label":"W_H_vs_B_L_rep15","target_direction":307,"distractor_direction":210,"session_rotation":284,"rt":-1,"response":"","correct":false,"choices":"ALL_KEYS","correct_choice":["a"],"trial_duration":2000,"flip_timestamps":[],"response_ends_trial":false,"number_of_apertures":200,"number_of_dots":[1,1,1,1,1,1,1,1,1,1,1,1,1,1,1,1,1,1,1,1,1,1,1,1,1,1,1,1,1,1,1,1,1,1,1,1,1,1,1,1,1,1,1,1,1,1,1,1,1,1,1,1,1,1,1,1,1,1,1,1,1,1,1,1,1,1,1,1,1,1,1,1,1,1,1,1,1,1,1,1,1,1,1,1,1,1,1,1,1,1,1,1,1,1,1,1,1,1,1,1,1,1,1,1,1,1,1,1,1,1,1,1,1,1,1,1,1,1,1,1,1,1,1,1,1,1,1,1,1,1,1,1,1,1,1,1,1,1,1,1,1,1,1,1,1,1,1,1,1,1,1,1,1,1,1,1,1,1,1,1,1,1,1,1,1,1,1,1,1,1,1,1,1,1,1,1,1,1,1,1,1,1,1,1,1,1,1,1,1,1,1,1,1,1,1,1,1,1,1,1],"number_of_sets":1,"coherent_direction":[307,210,307,307,307,307,307,210,210,307,307,210,307,307,210,307,307,307,210,210,307,210,307,307,210,307,307,307,210,307,307,307,210,210,210,307,307,210,210,210,210,210,210,210,210,210,210,210,210,210,210,210,307,307,307,307,210,210,210,307,307,210,307,307,307,210,307,210,210,210,210,210,307,307,307,307,307,307,210,307,210,307,307,307,307,210,307,307,210,307,307,210,307,210,210,307,307,210,210,210,307,307,307,210,307,307,307,210,307,307,210,307,307,210,210,210,210,210,210,307,307,307,307,307,210,307,210,307,210,210,210,210,307,307,210,307,307,307,210,307,307,210,210,210,210,307,307,210,210,210,307,307,307,307,210,210,307,307,210,307,210,210,210,210,307,307,307,210,210,307,210,210,210,307,210,307,210,210,307,307,210,307,210,307,210,210,210,210,210,307,307,210,307,210,210,307,210,307,210,210],"coherence":1,"opposite_coherence":0,"dot_radius":2,"dot_side_length":1,"dot_life":-1,"move_distance":1,"aperture_width":300,"aperture_height":300,"dot_color":["white","black","white","white","white","white","white","black","black","white","white","black","white","white","black","white","white","white","black","black","white","black","white","white","black","white","white","white","black","white","white","white","black","black","black","white","white","black","black","black","black","black","black","black","black","black","black","black","black","black","black","black","white","white","white","white","black","black","black","white","white","black","white","white","white","black","white","black","black","black","black","black","white","white","white","white","white","white","black","white","black","white","white","white","white","black","white","white","black","white","white","black","white","black","black","white","white","black","black","black","white","white","white","black","white","white","white","black","white","white","black","white","white","black","black","black","black","black","black","white","white","white","white","white","black","white","black","white","black","black","black","black","white","white","black","white","white","white","black","white","white","black","black","black","black","white","white","black","black","black","white","white","white","white","black","black","white","white","black","white","black","black","black","black","white","white","white","black","black","white","black","black","black","white","black","white","black","black","white","white","black","white","black","white","black","black","black","black","black","white","white","black","white","black","black","white","black","white","black","black"],"dot_shape":"circle","background_color":"#AAA","RDK_type":3,"aperture_type":2,"reinsert_type":2,"frame_rate":16.907563025210084,"frame_rate_array":[18,17,17,17,17,16,17,18,17,17,17,16,17,16,17,17,17,16,17,17,17,16,17,17,17,17,17,17,17,17,17,17,17,17,17,17,17,17,17,17,17,17,17,17,17,17,16,17,17,17,17,16,16,18,17,17,16,17,17,16,17,16,17,17,17,17,17,16,17,17,17,17,17,17,17,17,17,17,17,17,17,17,17,17,17,17,17,17,17,17,17,17,17,17,17,17,17,17,17,17,17,17,17,17,16,18,16,17,17,17,17,16,17,17,17,17,16,18,17],"number_of_frames":119,"aperture_center_x":777,"aperture_center_y":487.5,"fixation_cross":true,"fixation_cross_width":15,"fixation_cross_height":15,"fixation_cross_color":"#111","fixation_cross_thickness":1,"border":true,"border_thickness":2,"border_color":"transparent","canvas_width":1554,"canvas_height":975,"trial_type":"rdk","trial_index":84,"plugin_version":"2.0.0","time_elapsed":212882},{"rt":3376,"stimulus":"\n        <div class=\"response-container\">\n          <div class=\"response-instruction\">\n            <p>rotate the bar by using the left and right arrow keys.</p>\n            <p>when you are determined, press the Enter key.</p>\n          </div>\n          <div class=\"response-circle\">\n            <div class=\"response-fixation\"></div>\n            <div id=\"bar\" class=\"rotating-bar\"></div>\n          </div>\n        </div>\n      ","response":"Enter","trial_type":"html-keyboard-response","trial_index":85,"plugin_version":"2.1.0","time_elapsed":216260,"random_initial_angle":87,"response_angle_css":236,"response_angle_rdk":214,"angular_error_target":-93,"angular_error_distractor":4,"target_direction":307,"target_group":"white","reward_points":0},{"rt":null,"stimulus":"\n          <p style=\"color: #FF3333;\">Your reward: 0 points</p>\n        ","response":null,"trial_type":"html-keyboard-response","trial_index":86,"plugin_version":"2.1.0","time_elapsed":218263},{"rt":null,"stimulus":"<div class=\"fixation\" style=\"font-size: 60px;\">+</div>","response":null,"trial_type":"html-keyboard-response","trial_index":87,"plugin_version":"2.1.0","time_elapsed":219266},{"phase":"learning-awareness","target_group":"white","condition_label":"W_H_vs_B_L_rep12","target_direction":317,"distractor_direction":211,"session_rotation":284,"rt":-1,"response":"","correct":false,"choices":"ALL_KEYS","correct_choice":["a"],"trial_duration":2000,"flip_timestamps":[],"response_ends_trial":false,"number_of_apertures":200,"number_of_dots":[1,1,1,1,1,1,1,1,1,1,1,1,1,1,1,1,1,1,1,1,1,1,1,1,1,1,1,1,1,1,1,1,1,1,1,1,1,1,1,1,1,1,1,1,1,1,1,1,1,1,1,1,1,1,1,1,1,1,1,1,1,1,1,1,1,1,1,1,1,1,1,1,1,1,1,1,1,1,1,1,1,1,1,1,1,1,1,1,1,1,1,1,1,1,1,1,1,1,1,1,1,1,1,1,1,1,1,1,1,1,1,1,1,1,1,1,1,1,1,1,1,1,1,1,1,1,1,1,1,1,1,1,1,1,1,1,1,1,1,1,1,1,1,1,1,1,1,1,1,1,1,1,1,1,1,1,1,1,1,1,1,1,1,1,1,1,1,1,1,1,1,1,1,1,1,1,1,1,1,1,1,1,1,1,1,1,1,1,1,1,1,1,1,1,1,1,1,1,1,1],"number_of_sets":1,"coherent_direction":[317,211,317,317,211,317,317,211,317,211,317,317,211,317,317,317,317,211,317,317,211,211,211,211,211,317,317,317,211,211,211,317,317,211,211,317,317,317,317,211,317,211,317,317,211,317,211,211,317,317,211,211,317,211,211,211,317,317,211,211,317,317,211,211,211,211,211,211,211,211,317,211,211,317,317,317,211,317,317,211,211,317,211,211,317,317,211,317,211,317,211,211,317,317,317,317,211,317,317,211,317,317,211,317,211,317,211,211,317,211,317,317,211,211,211,211,211,317,211,317,211,211,317,211,211,211,317,211,317,317,211,211,317,211,317,317,211,317,317,317,211,317,211,317,317,211,317,211,211,211,211,211,317,211,317,317,317,211,317,317,211,211,317,317,317,317,317,317,317,317,317,211,211,317,211,317,211,317,211,317,317,211,317,211,317,211,211,211,317,211,211,317,211,211,211,317,211,211,317,211],"coherence":1,"opposite_coherence":0,"dot_radius":2,"dot_side_length":1,"dot_life":-1,"move_distance":1,"aperture_width":300,"aperture_height":300,"dot_color":["white","black","white","white","black","white","white","black","white","black","white","white","black","white","white","white","white","black","white","white","black","black","black","black","black","white","white","white","black","black","black","white","white","black","black","white","white","white","white","black","white","black","white","white","black","white","black","black","white","white","black","black","white","black","black","black","white","white","black","black","white","white","black","black","black","black","black","black","black","black","white","black","black","white","white","white","black","white","white","black","black","white","black","black","white","white","black","white","black","white","black","black","white","white","white","white","black","white","white","black","white","white","black","white","black","white","black","black","white","black","white","white","black","black","black","black","black","white","black","white","black","black","white","black","black","black","white","black","white","white","black","black","white","black","white","white","black","white","white","white","black","white","black","white","white","black","white","black","black","black","black","black","white","black","white","white","white","black","white","white","black","black","white","white","white","white","white","white","white","white","white","black","black","white","black","white","black","white","black","white","white","black","white","black","white","black","black","black","white","black","black","white","black","black","black","white","black","black","white","black"],"dot_shape":"circle","background_color":"#AAA","RDK_type":3,"aperture_type":2,"reinsert_type":2,"frame_rate":16.6,"frame_rate_array":[11,17,17,16,17,17,17,16,17,17,16,17,17,16,17,16,17,16,17,16,17,17,17,16,17,16,17,15,18,16,17,17,17,17,17,16,17,16,17,17,17,16,17,16,17,17,17,17,17,17,17,17,16,17,16,17,16,17,16,17,17,17,16,17,17,16,17,17,16,17,17,16,17,17,16,17,17,17,16,17,16,17,17,16,17,16,17,16,17,16,17,16,17,17,16,17,17,16,17,17,17,16,17,16,17,16,17,17,17,16,17,16,17,16,17,16,17,16,16,17],"number_of_frames":120,"aperture_center_x":777,"aperture_center_y":487.5,"fixation_cross":true,"fixation_cross_width":15,"fixation_cross_height":15,"fixation_cross_color":"#111","fixation_cross_thickness":1,"border":true,"border_thickness":2,"border_color":"transparent","canvas_width":1554,"canvas_height":975,"trial_type":"rdk","trial_index":88,"plugin_version":"2.0.0","time_elapsed":221270},{"rt":1286,"stimulus":"\n        <div class=\"response-container\">\n          <div class=\"response-instruction\">\n            <p>rotate the bar by using the left and right arrow keys.</p>\n            <p>when you are determined, press the Enter key.</p>\n          </div>\n          <div class=\"response-circle\">\n            <div class=\"response-fixation\"></div>\n            <div id=\"bar\" class=\"rotating-bar\"></div>\n          </div>\n        </div>\n      ","response":"Enter","trial_type":"html-keyboard-response","trial_index":89,"plugin_version":"2.1.0","time_elapsed":222558,"random_initial_angle":292,"response_angle_css":270,"response_angle_rdk":180,"angular_error_target":-137,"angular_error_distractor":-31,"target_direction":317,"target_group":"white","reward_points":0},{"rt":null,"stimulus":"\n          <p style=\"color: #FF3333;\">Your reward: 0 points</p>\n        ","response":null,"trial_type":"html-keyboard-response","trial_index":90,"plugin_version":"2.1.0","time_elapsed":224561},{"rt":null,"stimulus":"<div class=\"fixation\" style=\"font-size: 60px;\">+</div>","response":null,"trial_type":"html-keyboard-response","trial_index":91,"plugin_version":"2.1.0","time_elapsed":225564},{"phase":"learning-awareness","target_group":"black","condition_label":"B_H_vs_W_L_rep6","target_direction":15,"distractor_direction":121,"session_rotation":284,"rt":-1,"response":"","correct":false,"choices":"ALL_KEYS","correct_choice":["a"],"trial_duration":2000,"flip_timestamps":[],"response_ends_trial":false,"number_of_apertures":200,"number_of_dots":[1,1,1,1,1,1,1,1,1,1,1,1,1,1,1,1,1,1,1,1,1,1,1,1,1,1,1,1,1,1,1,1,1,1,1,1,1,1,1,1,1,1,1,1,1,1,1,1,1,1,1,1,1,1,1,1,1,1,1,1,1,1,1,1,1,1,1,1,1,1,1,1,1,1,1,1,1,1,1,1,1,1,1,1,1,1,1,1,1,1,1,1,1,1,1,1,1,1,1,1,1,1,1,1,1,1,1,1,1,1,1,1,1,1,1,1,1,1,1,1,1,1,1,1,1,1,1,1,1,1,1,1,1,1,1,1,1,1,1,1,1,1,1,1,1,1,1,1,1,1,1,1,1,1,1,1,1,1,1,1,1,1,1,1,1,1,1,1,1,1,1,1,1,1,1,1,1,1,1,1,1,1,1,1,1,1,1,1,1,1,1,1,1,1,1,1,1,1,1,1],"number_of_sets":1,"coherent_direction":[15,121,121,121,121,15,121,15,15,15,121,121,121,15,15,121,15,121,15,121,121,15,121,15,121,121,15,15,121,15,121,121,121,15,15,121,15,121,121,15,15,121,121,121,121,121,121,15,121,121,15,15,121,15,15,15,121,121,15,121,15,15,15,15,15,121,121,121,15,121,121,121,121,15,121,15,121,15,121,15,121,15,15,121,121,121,121,121,15,121,121,121,15,15,15,121,15,15,121,15,15,121,15,15,121,121,15,121,15,15,121,121,15,121,121,15,121,15,15,15,15,121,121,15,15,15,15,15,15,121,121,121,15,121,15,15,15,15,121,15,15,121,121,121,121,15,15,121,15,15,121,121,121,121,121,121,15,15,121,15,121,15,15,121,15,15,121,121,15,15,121,121,15,15,121,121,15,121,121,15,121,15,15,15,15,121,121,121,15,15,121,15,121,15,15,15,15,15,15,121],"coherence":1,"opposite_coherence":0,"dot_radius":2,"dot_side_length":1,"dot_life":-1,"move_distance":1,"aperture_width":300,"aperture_height":300,"dot_color":["black","white","white","white","white","black","white","black","black","black","white","white","white","black","black","white","black","white","black","white","white","black","white","black","white","white","black","black","white","black","white","white","white","black","black","white","black","white","white","black","black","white","white","white","white","white","white","black","white","white","black","black","white","black","black","black","white","white","black","white","black","black","black","black","black","white","white","white","black","white","white","white","white","black","white","black","white","black","white","black","white","black","black","white","white","white","white","white","black","white","white","white","black","black","black","white","black","black","white","black","black","white","black","black","white","white","black","white","black","black","white","white","black","white","white","black","white","black","black","black","black","white","white","black","black","black","black","black","black","white","white","white","black","white","black","black","black","black","white","black","black","white","white","white","white","black","black","white","black","black","white","white","white","white","white","white","black","black","white","black","white","black","black","white","black","black","white","white","black","black","white","white","black","black","white","white","black","white","white","black","white","black","black","black","black","white","white","white","black","black","white","black","white","black","black","black","black","black","black","white"],"dot_shape":"circle","background_color":"#AAA","RDK_type":3,"aperture_type":2,"reinsert_type":2,"frame_rate":16.708333333333332,"frame_rate_array":[14,17,17,17,17,17,17,17,17,17,17,16,17,17,17,16,17,17,16,18,14,17,17,17,17,17,18,17,16,17,16,17,17,16,17,17,16,18,16,17,16,17,16,17,17,16,17,17,17,16,17,17,15,18,17,16,17,17,17,16,17,15,18,17,17,16,18,16,17,17,16,17,16,17,16,17,16,17,17,17,17,17,16,17,17,17,17,16,17,17,17,17,17,17,16,17,17,16,17,17,17,16,17,16,17,17,17,16,17,16,17,17,16,17,16,17,15,18,17,17],"number_of_frames":120,"aperture_center_x":777,"aperture_center_y":487.5,"fixation_cross":true,"fixation_cross_width":15,"fixation_cross_height":15,"fixation_cross_color":"#111","fixation_cross_thickness":1,"border":true,"border_thickness":2,"border_color":"transparent","canvas_width":1554,"canvas_height":975,"trial_type":"rdk","trial_index":92,"plugin_version":"2.0.0","time_elapsed":227568},{"rt":1889,"stimulus":"\n        <div class=\"response-container\">\n          <div class=\"response-instruction\">\n            <p>rotate the bar by using the left and right arrow keys.</p>\n            <p>when you are determined, press the Enter key.</p>\n          </div>\n          <div class=\"response-circle\">\n            <div class=\"response-fixation\"></div>\n            <div id=\"bar\" class=\"rotating-bar\"></div>\n          </div>\n        </div>\n      ","response":"Enter","trial_type":"html-keyboard-response","trial_index":93,"plugin_version":"2.1.0","time_elapsed":229459,"random_initial_angle":46,"response_angle_css":90,"response_angle_rdk":0,"angular_error_target":-15,"angular_error_distractor":-121,"target_direction":15,"target_group":"black","reward_points":7},{"rt":null,"stimulus":"\n          <p style=\"color: #00FF00;\">Your reward: 7 points</p>\n        ","response":null,"trial_type":"html-keyboard-response","trial_index":94,"plugin_version":"2.1.0","time_elapsed":231462},{"rt":null,"stimulus":"<div class=\"fixation\" style=\"font-size: 60px;\">+</div>","response":null,"trial_type":"html-keyboard-response","trial_index":95,"plugin_version":"2.1.0","time_elapsed":232466},{"phase":"learning-awareness","target_group":"black","condition_label":"B_H_vs_W_L_rep8","target_direction":21,"distractor_direction":126,"session_rotation":284,"rt":-1,"response":"","correct":false,"choices":"ALL_KEYS","correct_choice":["a"],"trial_duration":2000,"flip_timestamps":[],"response_ends_trial":false,"number_of_apertures":200,"number_of_dots":[1,1,1,1,1,1,1,1,1,1,1,1,1,1,1,1,1,1,1,1,1,1,1,1,1,1,1,1,1,1,1,1,1,1,1,1,1,1,1,1,1,1,1,1,1,1,1,1,1,1,1,1,1,1,1,1,1,1,1,1,1,1,1,1,1,1,1,1,1,1,1,1,1,1,1,1,1,1,1,1,1,1,1,1,1,1,1,1,1,1,1,1,1,1,1,1,1,1,1,1,1,1,1,1,1,1,1,1,1,1,1,1,1,1,1,1,1,1,1,1,1,1,1,1,1,1,1,1,1,1,1,1,1,1,1,1,1,1,1,1,1,1,1,1,1,1,1,1,1,1,1,1,1,1,1,1,1,1,1,1,1,1,1,1,1,1,1,1,1,1,1,1,1,1,1,1,1,1,1,1,1,1,1,1,1,1,1,1,1,1,1,1,1,1,1,1,1,1,1,1],"number_of_sets":1,"coherent_direction":[21,21,126,21,126,21,126,126,21,126,21,21,126,126,21,21,126,21,126,126,126,126,21,126,126,21,21,21,126,21,21,21,21,21,126,126,126,21,21,126,126,126,21,21,21,21,21,126,126,21,126,21,21,21,126,126,126,21,126,126,21,126,126,126,21,126,126,21,126,126,21,126,21,126,126,21,21,21,21,21,21,21,21,126,126,21,21,126,21,126,126,21,21,21,21,126,21,126,126,21,21,126,21,126,21,126,126,21,21,21,126,21,126,126,126,21,126,21,21,126,21,126,21,126,21,126,126,21,21,21,126,126,21,21,21,21,126,126,126,126,21,21,21,21,21,126,126,21,126,21,21,126,126,126,126,21,21,126,126,21,21,126,126,21,126,126,126,21,126,126,126,21,126,126,126,126,126,21,126,21,21,21,126,126,21,126,21,21,21,21,126,126,126,126,126,126,21,21,126,21],"coherence":1,"opposite_coherence":0,"dot_radius":2,"dot_side_length":1,"dot_life":-1,"move_distance":1,"aperture_width":300,"aperture_height":300,"dot_color":["black","black","white","black","white","black","white","white","black","white","black","black","white","white","black","black","white","black","white","white","white","white","black","white","white","black","black","black","white","black","black","black","black","black","white","white","white","black","black","white","white","white","black","black","black","black","black","white","white","black","white","black","black","black","white","white","white","black","white","white","black","white","white","white","black","white","white","black","white","white","black","white","black","white","white","black","black","black","black","black","black","black","black","white","white","black","black","white","black","white","white","black","black","black","black","white","black","white","white","black","black","white","black","white","black","white","white","black","black","black","white","black","white","white","white","black","white","black","black","white","black","white","black","white","black","white","white","black","black","black","white","white","black","black","black","black","white","white","white","white","black","black","black","black","black","white","white","black","white","black","black","white","white","white","white","black","black","white","white","black","black","white","white","black","white","white","white","black","white","white","white","black","white","white","white","white","white","black","white","black","black","black","white","white","black","white","black","black","black","black","white","white","white","white","white","white","black","black","white","black"],"dot_shape":"circle","background_color":"#AAA","RDK_type":3,"aperture_type":2,"reinsert_type":2,"frame_rate":16.675,"frame_rate_array":[12,16,17,17,17,17,17,18,17,16,17,16,17,16,17,17,17,16,17,17,17,16,17,16,17,16,17,17,17,17,16,17,17,16,16,17,17,17,17,16,17,17,17,17,16,17,17,17,17,16,17,16,17,16,17,17,17,16,17,17,17,16,17,17,17,16,17,16,17,16,17,16,17,17,16,17,16,17,16,17,17,17,17,16,17,17,16,17,16,16,18,17,17,17,17,16,17,16,17,17,16,17,17,17,17,17,16,17,17,17,17,17,16,17,17,17,16,17,17,16],"number_of_frames":120,"aperture_center_x":777,"aperture_center_y":487.5,"fixation_cross":true,"fixation_cross_width":15,"fixation_cross_height":15,"fixation_cross_color":"#111","fixation_cross_thickness":1,"border":true,"border_thickness":2,"border_color":"transparent","canvas_width":1554,"canvas_height":975,"trial_type":"rdk","trial_index":96,"plugin_version":"2.0.0","time_elapsed":234470},{"rt":4374,"stimulus":"\n        <div class=\"response-container\">\n          <div class=\"response-instruction\">\n            <p>rotate the bar by using the left and right arrow keys.</p>\n            <p>when you are determined, press the Enter key.</p>\n          </div>\n          <div class=\"response-circle\">\n            <div class=\"response-fixation\"></div>\n            <div id=\"bar\" class=\"rotating-bar\"></div>\n          </div>\n        </div>\n      ","response":"Enter","trial_type":"html-keyboard-response","trial_index":97,"plugin_version":"2.1.0","time_elapsed":238846,"random_initial_angle":261,"response_angle_css":418,"response_angle_rdk":32,"angular_error_target":11,"angular_error_distractor":-94,"target_direction":21,"target_group":"black","reward_points":7},{"rt":null,"stimulus":"\n          <p style=\"color: #00FF00;\">Your reward: 7 points</p>\n        ","response":null,"trial_type":"html-keyboard-response","trial_index":98,"plugin_version":"2.1.0","time_elapsed":240849},{"rt":null,"stimulus":"<div class=\"fixation\" style=\"font-size: 60px;\">+</div>","response":null,"trial_type":"html-keyboard-response","trial_index":99,"plugin_version":"2.1.0","time_elapsed":241852},{"phase":"learning-awareness","target_group":"black","condition_label":"B_H_vs_W_L_rep17","target_direction":21,"distractor_direction":129,"session_rotation":284,"rt":-1,"response":"","correct":false,"choices":"ALL_KEYS","correct_choice":["a"],"trial_duration":2000,"flip_timestamps":[],"response_ends_trial":false,"number_of_apertures":200,"number_of_dots":[1,1,1,1,1,1,1,1,1,1,1,1,1,1,1,1,1,1,1,1,1,1,1,1,1,1,1,1,1,1,1,1,1,1,1,1,1,1,1,1,1,1,1,1,1,1,1,1,1,1,1,1,1,1,1,1,1,1,1,1,1,1,1,1,1,1,1,1,1,1,1,1,1,1,1,1,1,1,1,1,1,1,1,1,1,1,1,1,1,1,1,1,1,1,1,1,1,1,1,1,1,1,1,1,1,1,1,1,1,1,1,1,1,1,1,1,1,1,1,1,1,1,1,1,1,1,1,1,1,1,1,1,1,1,1,1,1,1,1,1,1,1,1,1,1,1,1,1,1,1,1,1,1,1,1,1,1,1,1,1,1,1,1,1,1,1,1,1,1,1,1,1,1,1,1,1,1,1,1,1,1,1,1,1,1,1,1,1,1,1,1,1,1,1,1,1,1,1,1,1],"number_of_sets":1,"coherent_direction":[129,129,21,21,21,129,21,129,129,21,129,129,129,21,21,21,129,21,21,129,129,129,21,21,129,21,21,21,129,129,129,21,129,21,129,21,129,21,21,129,129,21,21,21,129,129,21,129,21,21,21,21,21,21,129,129,129,21,21,129,129,129,129,21,129,21,21,129,129,21,21,129,129,21,21,129,21,21,129,21,129,21,21,129,129,21,21,129,21,129,129,129,129,129,21,129,21,129,129,129,21,21,129,129,21,21,129,21,129,129,21,21,21,129,129,21,21,129,129,21,129,21,129,21,21,129,129,129,129,129,129,129,21,129,21,21,21,129,129,129,21,21,129,129,129,129,21,21,21,129,21,129,21,21,129,21,21,129,129,21,129,21,129,21,21,21,129,129,129,21,21,129,129,21,21,129,129,21,129,129,129,21,21,129,21,129,21,21,21,21,129,21,21,21,129,129,129,21,21,21],"coherence":1,"opposite_coherence":0,"dot_radius":2,"dot_side_length":1,"dot_life":-1,"move_distance":1,"aperture_width":300,"aperture_height":300,"dot_color":["white","white","black","black","black","white","black","white","white","black","white","white","white","black","black","black","white","black","black","white","white","white","black","black","white","black","black","black","white","white","white","black","white","black","white","black","white","black","black","white","white","black","black","black","white","white","black","white","black","black","black","black","black","black","white","white","white","black","black","white","white","white","white","black","white","black","black","white","white","black","black","white","white","black","black","white","black","black","white","black","white","black","black","white","white","black","black","white","black","white","white","white","white","white","black","white","black","white","white","white","black","black","white","white","black","black","white","black","white","white","black","black","black","white","white","black","black","white","white","black","white","black","white","black","black","white","white","white","white","white","white","white","black","white","black","black","black","white","white","white","black","black","white","white","white","white","black","black","black","white","black","white","black","black","white","black","black","white","white","black","white","black","white","black","black","black","white","white","white","black","black","white","white","black","black","white","white","black","white","white","white","black","black","white","black","white","black","black","black","black","white","black","black","black","white","white","white","black","black","black"],"dot_shape":"circle","background_color":"#AAA","RDK_type":3,"aperture_type":2,"reinsert_type":2,"frame_rate":16.658333333333335,"frame_rate_array":[9,18,16,19,16,16,17,17,17,17,16,18,17,17,17,17,17,17,15,18,17,16,17,17,16,17,16,17,16,17,17,16,17,17,16,17,16,17,16,17,17,17,17,17,16,17,17,16,17,17,16,17,17,16,17,17,16,17,16,17,17,16,17,17,16,17,17,16,17,16,17,17,17,17,17,17,17,17,16,17,16,17,16,17,17,17,17,16,17,17,17,17,16,17,17,16,17,17,16,17,16,17,16,17,16,18,17,16,17,17,17,17,16,17,16,17,16,17,16,17],"number_of_frames":120,"aperture_center_x":777,"aperture_center_y":487.5,"fixation_cross":true,"fixation_cross_width":15,"fixation_cross_height":15,"fixation_cross_color":"#111","fixation_cross_thickness":1,"border":true,"border_thickness":2,"border_color":"transparent","canvas_width":1554,"canvas_height":975,"trial_type":"rdk","trial_index":100,"plugin_version":"2.0.0","time_elapsed":243856},{"rt":1252,"stimulus":"\n        <div class=\"response-container\">\n          <div class=\"response-instruction\">\n            <p>rotate the bar by using the left and right arrow keys.</p>\n            <p>when you are determined, press the Enter key.</p>\n          </div>\n          <div class=\"response-circle\">\n            <div class=\"response-fixation\"></div>\n            <div id=\"bar\" class=\"rotating-bar\"></div>\n          </div>\n        </div>\n      ","response":"Enter","trial_type":"html-keyboard-response","trial_index":101,"plugin_version":"2.1.0","time_elapsed":245110,"random_initial_angle":90,"response_angle_css":84,"response_angle_rdk":6,"angular_error_target":-15,"angular_error_distractor":-123,"target_direction":21,"target_group":"black","reward_points":7},{"rt":null,"stimulus":"\n          <p style=\"color: #00FF00;\">Your reward: 7 points</p>\n        ","response":null,"trial_type":"html-keyboard-response","trial_index":102,"plugin_version":"2.1.0","time_elapsed":247113},{"rt":null,"stimulus":"<div class=\"fixation\" style=\"font-size: 60px;\">+</div>","response":null,"trial_type":"html-keyboard-response","trial_index":103,"plugin_version":"2.1.0","time_elapsed":248117},{"phase":"learning-awareness","target_group":"white","condition_label":"W_H_vs_B_L_rep18","target_direction":319,"distractor_direction":201,"session_rotation":284,"rt":-1,"response":"","correct":false,"choices":"ALL_KEYS","correct_choice":["a"],"trial_duration":2000,"flip_timestamps":[],"response_ends_trial":false,"number_of_apertures":200,"number_of_dots":[1,1,1,1,1,1,1,1,1,1,1,1,1,1,1,1,1,1,1,1,1,1,1,1,1,1,1,1,1,1,1,1,1,1,1,1,1,1,1,1,1,1,1,1,1,1,1,1,1,1,1,1,1,1,1,1,1,1,1,1,1,1,1,1,1,1,1,1,1,1,1,1,1,1,1,1,1,1,1,1,1,1,1,1,1,1,1,1,1,1,1,1,1,1,1,1,1,1,1,1,1,1,1,1,1,1,1,1,1,1,1,1,1,1,1,1,1,1,1,1,1,1,1,1,1,1,1,1,1,1,1,1,1,1,1,1,1,1,1,1,1,1,1,1,1,1,1,1,1,1,1,1,1,1,1,1,1,1,1,1,1,1,1,1,1,1,1,1,1,1,1,1,1,1,1,1,1,1,1,1,1,1,1,1,1,1,1,1,1,1,1,1,1,1,1,1,1,1,1,1],"number_of_sets":1,"coherent_direction":[201,201,319,319,201,319,201,201,319,319,201,201,201,201,201,201,319,319,201,319,201,319,319,319,201,319,201,319,319,201,201,201,319,319,319,201,319,319,201,319,319,319,201,201,319,201,201,319,319,319,201,201,319,319,319,319,319,201,201,201,201,319,201,319,201,319,201,201,201,319,201,319,319,319,319,201,201,201,319,201,319,319,201,201,201,319,319,319,319,201,201,319,201,319,201,201,319,319,319,319,319,201,319,201,201,319,319,319,201,319,201,201,319,201,319,319,319,201,319,201,319,319,319,319,201,319,201,201,319,201,319,201,201,201,201,319,201,201,319,201,319,319,319,319,201,201,319,201,201,319,319,319,201,319,201,319,201,319,319,201,201,319,201,201,319,201,201,201,201,319,201,201,319,319,201,201,201,319,319,201,201,319,201,319,201,319,319,319,319,319,201,201,201,201,201,201,319,201,201,319],"coherence":1,"opposite_coherence":0,"dot_radius":2,"dot_side_length":1,"dot_life":-1,"move_distance":1,"aperture_width":300,"aperture_height":300,"dot_color":["black","black","white","white","black","white","black","black","white","white","black","black","black","black","black","black","white","white","black","white","black","white","white","white","black","white","black","white","white","black","black","black","white","white","white","black","white","white","black","white","white","white","black","black","white","black","black","white","white","white","black","black","white","white","white","white","white","black","black","black","black","white","black","white","black","white","black","black","black","white","black","white","white","white","white","black","black","black","white","black","white","white","black","black","black","white","white","white","white","black","black","white","black","white","black","black","white","white","white","white","white","black","white","black","black","white","white","white","black","white","black","black","white","black","white","white","white","black","white","black","white","white","white","white","black","white","black","black","white","black","white","black","black","black","black","white","black","black","white","black","white","white","white","white","black","black","white","black","black","white","white","white","black","white","black","white","black","white","white","black","black","white","black","black","white","black","black","black","black","white","black","black","white","white","black","black","black","white","white","black","black","white","black","white","black","white","white","white","white","white","black","black","black","black","black","black","white","black","black","white"],"dot_shape":"circle","background_color":"#AAA","RDK_type":3,"aperture_type":2,"reinsert_type":2,"frame_rate":16.591666666666665,"frame_rate_array":[10,17,17,17,17,17,16,18,17,17,17,17,16,17,16,17,16,17,16,17,16,17,17,16,17,17,16,17,16,17,17,17,17,17,17,17,16,17,16,17,16,17,16,17,17,16,16,17,17,17,17,17,16,17,16,17,16,17,16,17,16,17,16,17,16,17,16,17,17,16,17,16,17,16,17,16,17,16,17,17,17,16,17,16,17,16,17,16,17,16,17,17,17,17,16,17,17,17,16,17,16,17,17,16,17,16,16,17,17,16,17,16,17,17,17,16,17,17,17,16],"number_of_frames":120,"aperture_center_x":777,"aperture_center_y":487.5,"fixation_cross":true,"fixation_cross_width":15,"fixation_cross_height":15,"fixation_cross_color":"#111","fixation_cross_thickness":1,"border":true,"border_thickness":2,"border_color":"transparent","canvas_width":1554,"canvas_height":975,"trial_type":"rdk","trial_index":104,"plugin_version":"2.0.0","time_elapsed":250122},{"rt":3168,"stimulus":"\n        <div class=\"response-container\">\n          <div class=\"response-instruction\">\n            <p>rotate the bar by using the left and right arrow keys.</p>\n            <p>when you are determined, press the Enter key.</p>\n          </div>\n          <div class=\"response-circle\">\n            <div class=\"response-fixation\"></div>\n            <div id=\"bar\" class=\"rotating-bar\"></div>\n          </div>\n        </div>\n      ","response":"Enter","trial_type":"html-keyboard-response","trial_index":105,"plugin_version":"2.1.0","time_elapsed":253292,"random_initial_angle":171,"response_angle_css":231,"response_angle_rdk":219,"angular_error_target":-100,"angular_error_distractor":18,"target_direction":319,"target_group":"white","reward_points":0},{"rt":null,"stimulus":"\n          <p style=\"color: #FF3333;\">Your reward: 0 points</p>\n        ","response":null,"trial_type":"html-keyboard-response","trial_index":106,"plugin_version":"2.1.0","time_elapsed":255295},{"rt":null,"stimulus":"<div class=\"fixation\" style=\"font-size: 60px;\">+</div>","response":null,"trial_type":"html-keyboard-response","trial_index":107,"plugin_