[{"rt":3799,"stimulus":"Welcome to the experiment. Press any key to begin.","response":" ","trial_type":"html-keyboard-response","trial_index":0,"plugin_version":"2.1.0","time_elapsed":3802},{"rt":76380,"stimulus":"\n        <div class=\"instructions-container\">\n          <h2>Instructions</h2>\n\n          <p>\n          In this experiment, you will see <strong>two Random Dot Kinematograms (RDKs)</strong> displayed simultaneously.\n          </p>\n\n          <p>\n          An RDK is a visual stimulus consisting of many small dots that move coherently in a single direction. \n          In this experiment, the dots will be either <strong>white</strong> or <strong>black</strong> \n          (see the short demo below for an example of an RDK stimulus).\n          </p>\n\n          <p>\n          On each trial, the two RDKs will move in different directions. \n          Your task is to decide <strong>which RDK appears to contain more dots</strong>.\n          </p>\n\n          <p>\n          The RDK that you judge to have more dots is called the <strong>target RDK</strong>. \n          For example, if the white RDK appears to have more dots than the black RDK, \n          you should report the motion direction of the white RDK.\n          </p>\n\n          <p>\n          After viewing the RDKs, you will rotate a bar to indicate the perceived direction of the target RDK \n          using the <strong>left</strong> and <strong>right arrow keys</strong>. \n          Press <strong>Enter</strong> when you are satisfied with your response.\n          When the bar is held down, the rotation speed increases.\n          </p>\n\n          <p>\n          You will receive points based on the <strong>accuracy of your response</strong>, \n          and your final <strong>bonus reward</strong> may depend on your overall performance. \n          Please try to respond as accurately as possible.\n          </p>\n\n          <p>\n          You will first complete <strong>16 practice trials</strong>. \n          Press the <strong>Enter</strong> key to start the practice phase.\n          </p>\n\n          <canvas id=\"instruction-demo-rdk\" width=\"200\" height=\"200\"style=\"display:block;margin:12px auto; border-radius: 50%;\"></canvas>\n        </div>\n      ","response":"Enter","trial_type":"html-keyboard-response","trial_index":1,"plugin_version":"2.1.0","time_elapsed":80185},{"rt":null,"stimulus":"<div class=\"fixation\" style=\"font-size: 60px;\">+</div>","response":null,"trial_type":"html-keyboard-response","trial_index":2,"plugin_version":"2.1.0","time_elapsed":81192},{"target_group":"black","target_index":1,"condition_label":"practice","rt":-1,"response":"","correct":false,"choices":"ALL_KEYS","correct_choice":["a"],"trial_duration":2000,"flip_timestamps":[],"response_ends_trial":false,"number_of_apertures":2,"number_of_dots":[71,100],"number_of_sets":1,"coherent_direction":[29,171],"coherence":1,"opposite_coherence":0,"dot_radius":2,"dot_side_length":1,"dot_life":-1,"move_distance":1,"aperture_width":300,"aperture_height":300,"dot_color":["white","black"],"dot_shape":"circle","background_color":"#AAA","RDK_type":3,"aperture_type":2,"reinsert_type":2,"frame_rate":17.504347826086956,"frame_rate_array":[10,68,65,17,17,16,17,17,16,17,16,17,17,17,17,17,17,16,17,17,16,17,16,17,17,17,17,16,17,17,17,17,17,16,17,16,17,16,17,16,17,16,17,17,16,17,16,17,16,17,16,17,17,16,17,17,16,17,17,16,17,16,17,17,17,17,17,17,16,17,17,17,17,17,17,17,17,17,16,17,16,17,16,17,17,16,17,17,17,17,16,17,16,17,16,17,16,17,17,17,17,17,17,16,17,16,17,16,17,16,17,17,17,16,17],"number_of_frames":115,"aperture_center_x":746,"aperture_center_y":420,"fixation_cross":true,"fixation_cross_width":15,"fixation_cross_height":15,"fixation_cross_color":"#111","fixation_cross_thickness":1,"border":true,"border_thickness":2,"border_color":"transparent","canvas_width":1492,"canvas_height":840,"trial_type":"rdk","trial_index":3,"plugin_version":"2.0.0","time_elapsed":83210,"phase":"practice","target_direction":171,"distractor_direction":29},{"rt":14752,"stimulus":"\n        <div class=\"response-container\">\n          <div class=\"response-instruction\">\n            <p>rotate the bar by using the left and right arrow keys.</p>\n            <p>when you are determined, press the Enter key.</p>\n          </div>\n          <div class=\"response-circle\">\n            <div class=\"response-fixation\"></div>\n            <div id=\"bar\" class=\"rotating-bar\"></div>\n          </div>\n        </div>\n      ","response":"Enter","trial_type":"html-keyboard-response","trial_index":4,"plugin_version":"2.1.0","time_elapsed":97962,"random_initial_angle":287,"response_angle_css":293,"response_angle_rdk":157,"angular_error_target":-14,"angular_error_distractor":128,"target_direction":171,"target_group":"black","reward_points":7},{"rt":null,"stimulus":"\n          <p style=\"color: #00FF00;\">Your reward: 7 points</p>\n        ","response":null,"trial_type":"html-keyboard-response","trial_index":5,"plugin_version":"2.1.0","time_elapsed":99972},{"rt":null,"stimulus":"<div class=\"fixation\" style=\"font-size: 60px;\">+</div>","response":null,"trial_type":"html-keyboard-response","trial_index":6,"plugin_version":"2.1.0","time_elapsed":100983},{"target_group":"black","target_index":1,"condition_label":"practice","rt":-1,"response":"","correct":false,"choices":"ALL_KEYS","correct_choice":["a"],"trial_duration":2000,"flip_timestamps":[],"response_ends_trial":false,"number_of_apertures":2,"number_of_dots":[80,100],"number_of_sets":1,"coherent_direction":[130,290],"coherence":1,"opposite_coherence":0,"dot_radius":2,"dot_side_length":1,"dot_life":-1,"move_distance":1,"aperture_width":300,"aperture_height":300,"dot_color":["white","black"],"dot_shape":"circle","background_color":"#AAA","RDK_type":3,"aperture_type":2,"reinsert_type":2,"frame_rate":16.73949579831933,"frame_rate_array":[8,16,34,17,17,17,17,17,17,17,17,16,17,17,16,17,16,17,17,17,17,16,17,17,16,17,17,17,16,17,16,18,16,17,17,16,17,16,16,17,17,17,16,17,17,17,16,17,16,16,17,16,17,16,17,17,16,17,17,17,16,17,17,17,17,16,17,16,17,17,16,17,16,17,17,17,17,17,16,16,17,17,17,16,17,16,20,18,14,19,13,16,18,18,16,15,17,17,17,15,17,16,16,17,16,17,17,16,17,17,17,17,16,17,16,17,16,17,17],"number_of_frames":119,"aperture_center_x":746,"aperture_center_y":420,"fixation_cross":true,"fixation_cross_width":15,"fixation_cross_height":15,"fixation_cross_color":"#111","fixation_cross_thickness":1,"border":true,"border_thickness":2,"border_color":"transparent","canvas_width":1492,"canvas_height":840,"trial_type":"rdk","trial_index":7,"plugin_version":"2.0.0","time_elapsed":102994,"phase":"practice","target_direction":290,"distractor_direction":130},{"rt":3655,"stimulus":"\n        <div class=\"response-container\">\n          <div class=\"response-instruction\">\n            <p>rotate the bar by using the left and right arrow keys.</p>\n            <p>when you are determined, press the Enter key.</p>\n          </div>\n          <div class=\"response-circle\">\n            <div class=\"response-fixation\"></div>\n            <div id=\"bar\" class=\"rotating-bar\"></div>\n          </div>\n        </div>\n      ","response":"Enter","trial_type":"html-keyboard-response","trial_index":8,"plugin_version":"2.1.0","time_elapsed":106650,"random_initial_angle":153,"response_angle_css":153,"response_angle_rdk":297,"angular_error_target":7,"angular_error_distractor":167,"target_direction":290,"target_group":"black","reward_points":8},{"rt":null,"stimulus":"\n          <p style=\"color: #00FF00;\">Your reward: 8 points</p>\n        ","response":null,"trial_type":"html-keyboard-response","trial_index":9,"plugin_version":"2.1.0","time_elapsed":108659},{"rt":null,"stimulus":"<div class=\"fixation\" style=\"font-size: 60px;\">+</div>","response":null,"trial_type":"html-keyboard-response","trial_index":10,"plugin_version":"2.1.0","time_elapsed":109661},{"target_group":"white","target_index":0,"condition_label":"practice","rt":-1,"response":"","correct":false,"choices":"ALL_KEYS","correct_choice":["a"],"trial_duration":2000,"flip_timestamps":[],"response_ends_trial":false,"number_of_apertures":2,"number_of_dots":[100,83],"number_of_sets":1,"coherent_direction":[309,218],"coherence":1,"opposite_coherence":0,"dot_radius":2,"dot_side_length":1,"dot_life":-1,"move_distance":1,"aperture_width":300,"aperture_height":300,"dot_color":["white","black"],"dot_shape":"circle","background_color":"#AAA","RDK_type":3,"aperture_type":2,"reinsert_type":2,"frame_rate":16.614754098360656,"frame_rate_array":[1,15,16,17,17,16,17,17,16,17,16,17,16,17,17,17,17,16,17,17,16,17,17,17,17,17,17,17,17,17,16,17,16,17,17,17,17,17,17,17,16,17,17,17,17,17,18,15,17,16,17,17,17,16,17,16,17,17,17,16,17,17,17,17,17,16,17,16,17,17,17,17,17,18,16,17,16,17,17,17,16,16,17,17,17,16,17,16,17,17,16,17,17,16,17,17,17,17,16,17,17,17,17,17,17,17,17,17,16,17,17,17,17,16,17,17,16,17,17,17,16,17],"number_of_frames":122,"aperture_center_x":746,"aperture_center_y":420,"fixation_cross":true,"fixation_cross_width":15,"fixation_cross_height":15,"fixation_cross_color":"#111","fixation_cross_thickness":1,"border":true,"border_thickness":2,"border_color":"transparent","canvas_width":1492,"canvas_height":840,"trial_type":"rdk","trial_index":11,"plugin_version":"2.0.0","time_elapsed":111681,"phase":"practice","target_direction":309,"distractor_direction":218},{"rt":6128,"stimulus":"\n        <div class=\"response-container\">\n          <div class=\"response-instruction\">\n            <p>rotate the bar by using the left and right arrow keys.</p>\n            <p>when you are determined, press the Enter key.</p>\n          </div>\n          <div class=\"response-circle\">\n            <div class=\"response-fixation\"></div>\n            <div id=\"bar\" class=\"rotating-bar\"></div>\n          </div>\n        </div>\n      ","response":"Enter","trial_type":"html-keyboard-response","trial_index":12,"plugin_version":"2.1.0","time_elapsed":117811,"random_initial_angle":315,"response_angle_css":253,"response_angle_rdk":197,"angular_error_target":-112,"angular_error_distractor":-21,"target_direction":309,"target_group":"white","reward_points":0},{"rt":null,"stimulus":"\n          <p style=\"color: #FF3333;\">Your reward: 0 points</p>\n        ","response":null,"trial_type":"html-keyboard-response","trial_index":13,"plugin_version":"2.1.0","time_elapsed":119815},{"rt":null,"stimulus":"<div class=\"fixation\" style=\"font-size: 60px;\">+</div>","response":null,"trial_type":"html-keyboard-response","trial_index":14,"plugin_version":"2.1.0","time_elapsed":120819},{"target_group":"white","target_index":0,"condition_label":"practice","rt":-1,"response":"","correct":false,"choices":"ALL_KEYS","correct_choice":["a"],"trial_duration":2000,"flip_timestamps":[],"response_ends_trial":false,"number_of_apertures":2,"number_of_dots":[100,69],"number_of_sets":1,"coherent_direction":[51,296],"coherence":1,"opposite_coherence":0,"dot_radius":2,"dot_side_length":1,"dot_life":-1,"move_distance":1,"aperture_width":300,"aperture_height":300,"dot_color":["white","black"],"dot_shape":"circle","background_color":"#AAA","RDK_type":3,"aperture_type":2,"reinsert_type":2,"frame_rate":16.791666666666668,"frame_rate_array":[3,18,33,17,16,17,17,17,17,17,17,17,16,17,16,17,16,17,17,16,17,17,16,17,16,17,16,17,17,17,16,17,17,17,18,16,17,17,16,16,17,17,17,17,17,17,16,17,17,17,17,16,17,17,17,17,17,17,17,17,16,17,17,16,17,16,17,17,17,17,17,17,17,16,17,17,17,17,17,17,17,17,17,17,15,17,17,17,16,17,16,17,16,17,17,16,17,16,17,17,16,17,17,16,18,16,17,17,16,17,17,17,17,17,16,17,17,17,17,17],"number_of_frames":120,"aperture_center_x":746,"aperture_center_y":420,"fixation_cross":true,"fixation_cross_width":15,"fixation_cross_height":15,"fixation_cross_color":"#111","fixation_cross_thickness":1,"border":true,"border_thickness":2,"border_color":"transparent","canvas_width":1492,"canvas_height":840,"trial_type":"rdk","trial_index":15,"plugin_version":"2.0.0","time_elapsed":122827,"phase":"practice","target_direction":51,"distractor_direction":296},{"rt":2889,"stimulus":"\n        <div class=\"response-container\">\n          <div class=\"response-instruction\">\n            <p>rotate the bar by using the left and right arrow keys.</p>\n            <p>when you are determined, press the Enter key.</p>\n          </div>\n          <div class=\"response-circle\">\n            <div class=\"response-fixation\"></div>\n            <div id=\"bar\" class=\"rotating-bar\"></div>\n          </div>\n        </div>\n      ","response":"Enter","trial_type":"html-keyboard-response","trial_index":16,"plugin_version":"2.1.0","time_elapsed":125717,"random_initial_angle":35,"response_angle_css":35,"response_angle_rdk":55,"angular_error_target":4,"angular_error_distractor":119,"target_direction":51,"target_group":"white","reward_points":9},{"rt":null,"stimulus":"\n          <p style=\"color: #00FF00;\">Your reward: 9 points</p>\n        ","response":null,"trial_type":"html-keyboard-response","trial_index":17,"plugin_version":"2.1.0","time_elapsed":127722},{"rt":null,"stimulus":"<div class=\"fixation\" style=\"font-size: 60px;\">+</div>","response":null,"trial_type":"html-keyboard-response","trial_index":18,"plugin_version":"2.1.0","time_elapsed":128729},{"target_group":"black","target_index":1,"condition_label":"practice","rt":-1,"response":"","correct":false,"choices":"ALL_KEYS","correct_choice":["a"],"trial_duration":2000,"flip_timestamps":[],"response_ends_trial":false,"number_of_apertures":2,"number_of_dots":[60,100],"number_of_sets":1,"coherent_direction":[238,110],"coherence":1,"opposite_coherence":0,"dot_radius":2,"dot_side_length":1,"dot_life":-1,"move_distance":1,"aperture_width":300,"aperture_height":300,"dot_color":["white","black"],"dot_shape":"circle","background_color":"#AAA","RDK_type":3,"aperture_type":2,"reinsert_type":2,"frame_rate":16.756302521008404,"frame_rate_array":[8,17,34,16,17,16,17,16,17,17,17,16,17,16,17,16,17,16,17,16,17,16,17,17,17,17,17,17,16,17,17,16,17,16,17,17,17,17,17,17,17,16,17,16,17,16,17,17,16,16,18,16,17,17,17,16,17,17,16,17,17,16,17,17,16,17,16,17,17,17,17,17,17,17,17,16,17,16,17,17,16,18,16,17,17,17,17,16,16,17,16,17,17,17,16,17,17,16,17,16,17,17,17,16,17,17,17,16,17,16,17,17,16,17,16,17,17,16,17],"number_of_frames":119,"aperture_center_x":746,"aperture_center_y":420,"fixation_cross":true,"fixation_cross_width":15,"fixation_cross_height":15,"fixation_cross_color":"#111","fixation_cross_thickness":1,"border":true,"border_thickness":2,"border_color":"transparent","canvas_width":1492,"canvas_height":840,"trial_type":"rdk","trial_index":19,"plugin_version":"2.0.0","time_elapsed":130732,"phase":"practice","target_direction":110,"distractor_direction":238},{"rt":6446,"stimulus":"\n        <div class=\"response-container\">\n          <div class=\"response-instruction\">\n            <p>rotate the bar by using the left and right arrow keys.</p>\n            <p>when you are determined, press the Enter key.</p>\n          </div>\n          <div class=\"response-circle\">\n            <div class=\"response-fixation\"></div>\n            <div id=\"bar\" class=\"rotating-bar\"></div>\n          </div>\n        </div>\n      ","response":"Enter","trial_type":"html-keyboard-response","trial_index":20,"plugin_version":"2.1.0","time_elapsed":137179,"random_initial_angle":106,"response_angle_css":-19,"response_angle_rdk":109,"angular_error_target":-1,"angular_error_distractor":-129,"target_direction":110,"target_group":"black","reward_points":9},{"rt":null,"stimulus":"\n          <p style=\"color: #00FF00;\">Your reward: 9 points</p>\n        ","response":null,"trial_type":"html-keyboard-response","trial_index":21,"plugin_version":"2.1.0","time_elapsed":139185},{"rt":null,"stimulus":"<div class=\"fixation\" style=\"font-size: 60px;\">+</div>","response":null,"trial_type":"html-keyboard-response","trial_index":22,"plugin_version":"2.1.0","time_elapsed":140193},{"target_group":"black","target_index":1,"condition_label":"practice","rt":-1,"response":"","correct":false,"choices":"ALL_KEYS","correct_choice":["a"],"trial_duration":2000,"flip_timestamps":[],"response_ends_trial":false,"number_of_apertures":2,"number_of_dots":[87,100],"number_of_sets":1,"coherent_direction":[227,94],"coherence":1,"opposite_coherence":0,"dot_radius":2,"dot_side_length":1,"dot_life":-1,"move_distance":1,"aperture_width":300,"aperture_height":300,"dot_color":["white","black"],"dot_shape":"circle","background_color":"#AAA","RDK_type":3,"aperture_type":2,"reinsert_type":2,"frame_rate":16.73109243697479,"frame_rate_array":[6,17,34,17,17,17,16,17,17,16,17,16,17,17,16,17,17,16,17,16,17,16,17,16,17,17,16,17,17,16,17,17,16,16,17,16,17,17,17,16,17,17,16,17,16,17,16,17,17,16,17,17,17,17,16,17,16,17,17,17,17,17,17,16,17,16,17,17,17,17,16,17,17,16,17,17,17,17,16,17,16,17,17,17,17,17,17,17,16,17,17,17,16,16,17,16,17,17,17,17,17,17,16,17,16,17,16,16,17,16,17,16,17,16,17,16,17,17,17],"number_of_frames":119,"aperture_center_x":746,"aperture_center_y":420,"fixation_cross":true,"fixation_cross_width":15,"fixation_cross_height":15,"fixation_cross_color":"#111","fixation_cross_thickness":1,"border":true,"border_thickness":2,"border_color":"transparent","canvas_width":1492,"canvas_height":840,"trial_type":"rdk","trial_index":23,"plugin_version":"2.0.0","time_elapsed":142195,"phase":"practice","target_direction":94,"distractor_direction":227},{"rt":6512,"stimulus":"\n        <div class=\"response-container\">\n          <div class=\"response-instruction\">\n            <p>rotate the bar by using the left and right arrow keys.</p>\n            <p>when you are determined, press the Enter key.</p>\n          </div>\n          <div class=\"response-circle\">\n            <div class=\"response-fixation\"></div>\n            <div id=\"bar\" class=\"rotating-bar\"></div>\n          </div>\n        </div>\n      ","response":"Enter","trial_type":"html-keyboard-response","trial_index":24,"plugin_version":"2.1.0","time_elapsed":148707,"random_initial_angle":237,"response_angle_css":373,"response_angle_rdk":77,"angular_error_target":-17,"angular_error_distractor":-150,"target_direction":94,"target_group":"black","reward_points":6},{"rt":null,"stimulus":"\n          <p style=\"color: #00FF00;\">Your reward: 6 points</p>\n        ","response":null,"trial_type":"html-keyboard-response","trial_index":25,"plugin_version":"2.1.0","time_elapsed":150719},{"rt":null,"stimulus":"<div class=\"fixation\" style=\"font-size: 60px;\">+</div>","response":null,"trial_type":"html-keyboard-response","trial_index":26,"plugin_version":"2.1.0","time_elapsed":151731},{"target_group":"black","target_index":1,"condition_label":"practice","rt":-1,"response":"","correct":false,"choices":"ALL_KEYS","correct_choice":["a"],"trial_duration":2000,"flip_timestamps":[],"response_ends_trial":false,"number_of_apertures":2,"number_of_dots":[98,100],"number_of_sets":1,"coherent_direction":[256,107],"coherence":1,"opposite_coherence":0,"dot_radius":2,"dot_side_length":1,"dot_life":-1,"move_distance":1,"aperture_width":300,"aperture_height":300,"dot_color":["white","black"],"dot_shape":"circle","background_color":"#AAA","RDK_type":3,"aperture_type":2,"reinsert_type":2,"frame_rate":16.866666666666667,"frame_rate_array":[13,17,32,16,17,17,16,17,17,17,17,17,17,17,16,18,16,16,17,17,17,17,16,17,16,17,17,17,17,17,17,16,17,17,16,17,17,17,17,17,17,17,17,16,17,17,16,17,17,17,17,16,17,17,17,16,17,17,17,17,16,17,17,16,17,17,17,17,16,17,17,17,17,17,17,17,16,17,17,17,17,17,17,17,17,17,16,17,17,16,17,17,17,17,16,17,17,17,16,17,17,17,17,17,16,17,16,16,17,16,17,17,16,17,16,17,17,16,17,17],"number_of_frames":120,"aperture_center_x":746,"aperture_center_y":420,"fixation_cross":true,"fixation_cross_width":15,"fixation_cross_height":15,"fixation_cross_color":"#111","fixation_cross_thickness":1,"border":true,"border_thickness":2,"border_color":"transparent","canvas_width":1492,"canvas_height":840,"trial_type":"rdk","trial_index":27,"plugin_version":"2.0.0","time_elapsed":153746,"phase":"practice","target_direction":107,"distractor_direction":256},{"rt":5705,"stimulus":"\n        <div class=\"response-container\">\n          <div class=\"response-instruction\">\n            <p>rotate the bar by using the left and right arrow keys.</p>\n            <p>when you are determined, press the Enter key.</p>\n          </div>\n          <div class=\"response-circle\">\n            <div class=\"response-fixation\"></div>\n            <div id=\"bar\" class=\"rotating-bar\"></div>\n          </div>\n        </div>\n      ","response":"Enter","trial_type":"html-keyboard-response","trial_index":28,"plugin_version":"2.1.0","time_elapsed":159452,"random_initial_angle":261,"response_angle_css":341,"response_angle_rdk":109,"angular_error_target":2,"angular_error_distractor":-147,"target_direction":107,"target_group":"black","reward_points":9},{"rt":null,"stimulus":"\n          <p style=\"color: #00FF00;\">Your reward: 9 points</p>\n        ","response":null,"trial_type":"html-keyboard-response","trial_index":29,"plugin_version":"2.1.0","time_elapsed":161461},{"rt":null,"stimulus":"<div class=\"fixation\" style=\"font-size: 60px;\">+</div>","response":null,"trial_type":"html-keyboard-response","trial_index":30,"plugin_version":"2.1.0","time_elapsed":162476},{"target_group":"white","target_index":0,"condition_label":"practice","rt":-1,"response":"","correct":false,"choices":"ALL_KEYS","correct_choice":["a"],"trial_duration":2000,"flip_timestamps":[],"response_ends_trial":false,"number_of_apertures":2,"number_of_dots":[100,60],"number_of_sets":1,"coherent_direction":[241,341],"coherence":1,"opposite_coherence":0,"dot_radius":2,"dot_side_length":1,"dot_life":-1,"move_distance":1,"aperture_width":300,"aperture_height":300,"dot_color":["white","black"],"dot_shape":"circle","background_color":"#AAA","RDK_type":3,"aperture_type":2,"reinsert_type":2,"frame_rate":16.899159663865547,"frame_rate_array":[14,17,33,17,16,17,16,17,17,17,17,17,17,16,17,17,17,17,16,17,17,17,16,17,17,17,17,17,17,16,17,17,17,16,17,17,17,17,17,17,17,16,17,17,17,17,17,17,17,17,16,17,17,16,17,17,17,17,16,17,17,17,17,16,17,17,17,17,16,17,17,17,17,17,16,17,17,17,17,16,17,17,17,17,16,17,17,16,17,17,17,17,16,17,17,17,17,17,16,17,16,17,17,16,17,17,16,17,17,16,17,16,17,16,17,17,17,17,17],"number_of_frames":119,"aperture_center_x":746,"aperture_center_y":420,"fixation_cross":true,"fixation_cross_width":15,"fixation_cross_height":15,"fixation_cross_color":"#111","fixation_cross_thickness":1,"border":true,"border_thickness":2,"border_color":"transparent","canvas_width":1492,"canvas_height":840,"trial_type":"rdk","trial_index":31,"plugin_version":"2.0.0","time_elapsed":164486,"phase":"practice","target_direction":241,"distractor_direction":341},{"rt":6063,"stimulus":"\n        <div class=\"response-container\">\n          <div class=\"response-instruction\">\n            <p>rotate the bar by using the left and right arrow keys.</p>\n            <p>when you are determined, press the Enter key.</p>\n          </div>\n          <div class=\"response-circle\">\n            <div class=\"response-fixation\"></div>\n            <div id=\"bar\" class=\"rotating-bar\"></div>\n          </div>\n        </div>\n      ","response":"Enter","trial_type":"html-keyboard-response","trial_index":32,"plugin_version":"2.1.0","time_elapsed":170550,"random_initial_angle":81,"response_angle_css":-139,"response_angle_rdk":229,"angular_error_target":-12,"angular_error_distractor":-112,"target_direction":241,"target_group":"white","reward_points":7},{"rt":null,"stimulus":"\n          <p style=\"color: #00FF00;\">Your reward: 7 points</p>\n        ","response":null,"trial_type":"html-keyboard-response","trial_index":33,"plugin_version":"2.1.0","time_elapsed":172555},{"rt":null,"stimulus":"<div class=\"fixation\" style=\"font-size: 60px;\">+</div>","response":null,"trial_type":"html-keyboard-response","trial_index":34,"plugin_version":"2.1.0","time_elapsed":173561},{"target_group":"black","target_index":1,"condition_label":"practice","rt":-1,"response":"","correct":false,"choices":"ALL_KEYS","correct_choice":["a"],"trial_duration":2000,"flip_timestamps":[],"response_ends_trial":false,"number_of_apertures":2,"number_of_dots":[76,100],"number_of_sets":1,"coherent_direction":[93,242],"coherence":1,"opposite_coherence":0,"dot_radius":2,"dot_side_length":1,"dot_life":-1,"move_distance":1,"aperture_width":300,"aperture_height":300,"dot_color":["white","black"],"dot_shape":"circle","background_color":"#AAA","RDK_type":3,"aperture_type":2,"reinsert_type":2,"frame_rate":16.775,"frame_rate_array":[8,15,33,17,17,16,17,16,17,17,17,17,17,17,17,17,17,17,17,16,17,16,17,17,16,17,16,17,17,17,17,16,17,17,17,16,17,17,16,17,16,17,17,16,17,16,17,16,17,16,17,16,17,17,16,17,16,17,17,17,17,17,17,17,17,16,16,17,16,17,17,17,17,17,17,17,17,17,17,17,16,17,16,17,16,17,17,17,17,16,17,17,17,17,16,17,17,17,17,16,17,16,17,17,17,16,17,17,17,17,16,17,16,17,16,17,16,17,17,17],"number_of_frames":120,"aperture_center_x":746,"aperture_center_y":420,"fixation_cross":true,"fixation_cross_width":15,"fixation_cross_height":15,"fixation_cross_color":"#111","fixation_cross_thickness":1,"border":true,"border_thickness":2,"border_color":"transparent","canvas_width":1492,"canvas_height":840,"trial_type":"rdk","trial_index":35,"plugin_version":"2.0.0","time_elapsed":175571,"phase":"practice","target_direction":242,"distractor_direction":93},{"rt":4993,"stimulus":"\n        <div class=\"response-container\">\n          <div class=\"response-instruction\">\n            <p>rotate the bar by using the left and right arrow keys.</p>\n            <p>when you are determined, press the Enter key.</p>\n          </div>\n          <div class=\"response-circle\">\n            <div class=\"response-fixation\"></div>\n            <div id=\"bar\" class=\"rotating-bar\"></div>\n          </div>\n        </div>\n      ","response":"Enter","trial_type":"html-keyboard-response","trial_index":36,"plugin_version":"2.1.0","time_elapsed":180565,"random_initial_angle":30,"response_angle_css":205,"response_angle_rdk":245,"angular_error_target":3,"angular_error_distractor":152,"target_direction":242,"target_group":"black","reward_points":9},{"rt":null,"stimulus":"\n          <p style=\"color: #00FF00;\">Your reward: 9 points</p>\n        ","response":null,"trial_type":"html-keyboard-response","trial_index":37,"plugin_version":"2.1.0","time_elapsed":182568},{"rt":null,"stimulus":"<div class=\"fixation\" style=\"font-size: 60px;\">+</div>","response":null,"trial_type":"html-keyboard-response","trial_index":38,"plugin_version":"2.1.0","time_elapsed":183575},{"target_group":"white","target_index":0,"condition_label":"practice","rt":-1,"response":"","correct":false,"choices":"ALL_KEYS","correct_choice":["a"],"trial_duration":2000,"flip_timestamps":[],"response_ends_trial":false,"number_of_apertures":2,"number_of_dots":[100,53],"number_of_sets":1,"coherent_direction":[51,305],"coherence":1,"opposite_coherence":0,"dot_radius":2,"dot_side_length":1,"dot_life":-1,"move_distance":1,"aperture_width":300,"aperture_height":300,"dot_color":["white","black"],"dot_shape":"circle","background_color":"#AAA","RDK_type":3,"aperture_type":2,"reinsert_type":2,"frame_rate":16.733333333333334,"frame_rate_array":[6,17,33,17,16,17,17,16,17,16,17,17,17,17,17,17,16,17,17,16,17,16,17,16,17,16,17,17,16,17,16,17,16,17,16,17,17,17,16,17,17,17,17,17,17,17,16,17,17,16,17,17,17,16,17,17,16,17,16,17,17,16,17,17,17,17,17,16,17,16,18,16,16,17,16,17,16,16,17,17,17,17,16,17,17,17,17,16,17,17,17,16,17,17,17,17,17,16,17,16,17,17,16,17,17,17,16,17,16,17,16,17,16,17,17,17,17,17,16,16],"number_of_frames":120,"aperture_center_x":746,"aperture_center_y":420,"fixation_cross":true,"fixation_cross_width":15,"fixation_cross_height":15,"fixation_cross_color":"#111","fixation_cross_thickness":1,"border":true,"border_thickness":2,"border_color":"transparent","canvas_width":1492,"canvas_height":840,"trial_type":"rdk","trial_index":39,"plugin_version":"2.0.0","time_elapsed":185583,"phase":"practice","target_direction":51,"distractor_direction":305},{"rt":6272,"stimulus":"\n        <div class=\"response-container\">\n          <div class=\"response-instruction\">\n            <p>rotate the bar by using the left and right arrow keys.</p>\n            <p>when you are determined, press the Enter key.</p>\n          </div>\n          <div class=\"response-circle\">\n            <div class=\"response-fixation\"></div>\n            <div id=\"bar\" class=\"rotating-bar\"></div>\n          </div>\n        </div>\n      ","response":"Enter","trial_type":"html-keyboard-response","trial_index":40,"plugin_version":"2.1.0","time_elapsed":191857,"random_initial_angle":169,"response_angle_css":393,"response_angle_rdk":57,"angular_error_target":6,"angular_error_distractor":112,"target_direction":51,"target_group":"white","reward_points":8},{"rt":null,"stimulus":"\n          <p style=\"color: #00FF00;\">Your reward: 8 points</p>\n        ","response":null,"trial_type":"html-keyboard-response","trial_index":41,"plugin_version":"2.1.0","time_elapsed":193870},{"rt":null,"stimulus":"<div class=\"fixation\" style=\"font-size: 60px;\">+</div>","response":null,"trial_type":"html-keyboard-response","trial_index":42,"plugin_version":"2.1.0","time_elapsed":194877},{"target_group":"black","target_index":1,"condition_label":"practice","rt":-1,"response":"","correct":false,"choices":"ALL_KEYS","correct_choice":["a"],"trial_duration":2000,"flip_timestamps":[],"response_ends_trial":false,"number_of_apertures":2,"number_of_dots":[51,100],"number_of_sets":1,"coherent_direction":[43,219],"coherence":1,"opposite_coherence":0,"dot_radius":2,"dot_side_length":1,"dot_life":-1,"move_distance":1,"aperture_width":300,"aperture_height":300,"dot_color":["white","black"],"dot_shape":"circle","background_color":"#AAA","RDK_type":3,"aperture_type":2,"reinsert_type":2,"frame_rate":16.658333333333335,"frame_rate_array":[15,16,17,16,17,17,17,16,17,17,17,17,17,17,16,17,17,16,17,16,17,17,17,16,17,16,17,17,17,17,17,17,16,17,17,16,17,16,17,16,17,16,17,17,17,16,17,16,17,17,16,17,16,16,17,16,17,16,17,17,17,16,17,16,17,16,17,16,17,16,17,17,17,16,17,17,17,17,16,17,16,17,17,17,16,17,16,17,17,17,17,17,16,17,17,16,17,16,17,17,16,17,16,17,17,17,16,17,17,16,17,17,16,17,16,17,17,17,17,17],"number_of_frames":120,"aperture_center_x":746,"aperture_center_y":420,"fixation_cross":true,"fixation_cross_width":15,"fixation_cross_height":15,"fixation_cross_color":"#111","fixation_cross_thickness":1,"border":true,"border_thickness":2,"border_color":"transparent","canvas_width":1492,"canvas_height":840,"trial_type":"rdk","trial_index":43,"plugin_version":"2.0.0","time_elapsed":196888,"phase":"practice","target_direction":219,"distractor_direction":43},{"rt":4744,"stimulus":"\n        <div class=\"response-container\">\n          <div class=\"response-instruction\">\n            <p>rotate the bar by using the left and right arrow keys.</p>\n            <p>when you are determined, press the Enter key.</p>\n          </div>\n          <div class=\"response-circle\">\n            <div class=\"response-fixation\"></div>\n            <div id=\"bar\" class=\"rotating-bar\"></div>\n          </div>\n        </div>\n      ","response":"Enter","trial_type":"html-keyboard-response","trial_index":44,"plugin_version":"2.1.0","time_elapsed":201633,"random_initial_angle":26,"response_angle_css":-142,"response_angle_rdk":232,"angular_error_target":13,"angular_error_distractor":-171,"target_direction":219,"target_group":"black","reward_points":7},{"rt":null,"stimulus":"\n          <p style=\"color: #00FF00;\">Your reward: 7 points</p>\n        ","response":null,"trial_type":"html-keyboard-response","trial_index":45,"plugin_version":"2.1.0","time_elapsed":203642},{"rt":null,"stimulus":"<div class=\"fixation\" style=\"font-size: 60px;\">+</div>","response":null,"trial_type":"html-keyboard-response","trial_index":46,"plugin_version":"2.1.0","time_elapsed":204656},{"target_group":"white","target_index":0,"condition_label":"practice","rt":-1,"response":"","correct":false,"choices":"ALL_KEYS","correct_choice":["a"],"trial_duration":2000,"flip_timestamps":[],"response_ends_trial":false,"number_of_apertures":2,"number_of_dots":[100,59],"number_of_sets":1,"coherent_direction":[328,196],"coherence":1,"opposite_coherence":0,"dot_radius":2,"dot_side_length":1,"dot_life":-1,"move_distance":1,"aperture_width":300,"aperture_height":300,"dot_color":["white","black"],"dot_shape":"circle","background_color":"#AAA","RDK_type":3,"aperture_type":2,"reinsert_type":2,"frame_rate":16.553719008264462,"frame_rate_array":[1,17,15,16,17,17,16,17,17,17,17,16,17,17,16,17,17,16,17,17,17,17,16,17,17,17,16,17,16,17,17,16,17,17,17,17,17,16,17,16,17,17,17,16,17,18,16,16,17,17,16,17,17,16,17,17,17,17,17,17,16,17,17,16,17,16,17,16,17,17,16,17,17,17,17,17,16,17,17,16,17,16,17,16,17,17,16,17,17,17,16,17,17,17,16,17,17,16,17,16,17,17,17,17,16,17,16,17,17,16,17,16,17,16,17,17,17,16,17,17,16],"number_of_frames":121,"aperture_center_x":746,"aperture_center_y":420,"fixation_cross":true,"fixation_cross_width":15,"fixation_cross_height":15,"fixation_cross_color":"#111","fixation_cross_thickness":1,"border":true,"border_thickness":2,"border_color":"transparent","canvas_width":1492,"canvas_height":840,"trial_type":"rdk","trial_index":47,"plugin_version":"2.0.0","time_elapsed":206659,"phase":"practice","target_direction":328,"distractor_direction":196},{"rt":3435,"stimulus":"\n        <div class=\"response-container\">\n          <div class=\"response-instruction\">\n            <p>rotate the bar by using the left and right arrow keys.</p>\n            <p>when you are determined, press the Enter key.</p>\n          </div>\n          <div class=\"response-circle\">\n            <div class=\"response-fixation\"></div>\n            <div id=\"bar\" class=\"rotating-bar\"></div>\n          </div>\n        </div>\n      ","response":"Enter","trial_type":"html-keyboard-response","trial_index":48,"plugin_version":"2.1.0","time_elapsed":210095,"random_initial_angle":69,"response_angle_css":114,"response_angle_rdk":336,"angular_error_target":8,"angular_error_distractor":140,"target_direction":328,"target_group":"white","reward_points":8},{"rt":null,"stimulus":"\n          <p style=\"color: #00FF00;\">Your reward: 8 points</p>\n        ","response":null,"trial_type":"html-keyboard-response","trial_index":49,"plugin_version":"2.1.0","time_elapsed":212105},{"rt":null,"stimulus":"<div class=\"fixation\" style=\"font-size: 60px;\">+</div>","response":null,"trial_type":"html-keyboard-response","trial_index":50,"plugin_version":"2.1.0","time_elapsed":213116},{"target_group":"black","target_index":1,"condition_label":"practice","rt":-1,"response":"","correct":false,"choices":"ALL_KEYS","correct_choice":["a"],"trial_duration":2000,"flip_timestamps":[],"response_ends_trial":false,"number_of_apertures":2,"number_of_dots":[70,100],"number_of_sets":1,"coherent_direction":[313,188],"coherence":1,"opposite_coherence":0,"dot_radius":2,"dot_side_length":1,"dot_life":-1,"move_distance":1,"aperture_width":300,"aperture_height":300,"dot_color":["white","black"],"dot_shape":"circle","background_color":"#AAA","RDK_type":3,"aperture_type":2,"reinsert_type":2,"frame_rate":16.766666666666666,"frame_rate_array":[3,17,33,17,16,17,16,17,16,17,16,17,17,17,17,17,17,17,16,17,17,16,17,17,17,17,17,17,16,17,16,17,17,17,17,16,17,16,17,17,17,17,16,17,17,17,16,17,16,17,17,17,17,17,17,17,16,17,16,17,17,16,17,16,17,17,16,19,15,17,17,16,17,17,17,17,16,17,16,17,17,17,17,16,17,17,17,17,17,16,16,17,17,17,17,16,16,17,17,17,16,17,17,16,17,17,17,16,17,17,17,16,17,17,17,17,17,17,17,17],"number_of_frames":120,"aperture_center_x":746,"aperture_center_y":420,"fixation_cross":true,"fixation_cross_width":15,"fixation_cross_height":15,"fixation_cross_color":"#111","fixation_cross_thickness":1,"border":true,"border_thickness":2,"border_color":"transparent","canvas_width":1492,"canvas_height":840,"trial_type":"rdk","trial_index":51,"plugin_version":"2.0.0","time_elapsed":215122,"phase":"practice","target_direction":188,"distractor_direction":313},{"rt":5802,"stimulus":"\n        <div class=\"response-container\">\n          <div class=\"response-instruction\">\n            <p>rotate the bar by using the left and right arrow keys.</p>\n            <p>when you are determined, press the Enter key.</p>\n          </div>\n          <div class=\"response-circle\">\n            <div class=\"response-fixation\"></div>\n            <div id=\"bar\" class=\"rotating-bar\"></div>\n          </div>\n        </div>\n      ","response":"Enter","trial_type":"html-keyboard-response","trial_index":52,"plugin_version":"2.1.0","time_elapsed":220924,"random_initial_angle":32,"response_angle_css":-92,"response_angle_rdk":182,"angular_error_target":-6,"angular_error_distractor":-131,"target_direction":188,"target_group":"black","reward_points":8},{"rt":null,"stimulus":"\n          <p style=\"color: #00FF00;\">Your reward: 8 points</p>\n        ","response":null,"trial_type":"html-keyboard-response","trial_index":53,"plugin_version":"2.1.0","time_elapsed":222933},{"rt":null,"stimulus":"<div class=\"fixation\" style=\"font-size: 60px;\">+</div>","response":null,"trial_type":"html-keyboard-response","trial_index":54,"plugin_version":"2.1.0","time_elapsed":223941},{"target_group":"white","target_index":0,"condition_label":"practice","rt":-1,"response":"","correct":false,"choices":"ALL_KEYS","correct_choice":["a"],"trial_duration":2000,"flip_timestamps":[],"response_ends_trial":false,"number_of_apertures":2,"number_of_dots":[100,88],"number_of_sets":1,"coherent_direction":[112,8],"coherence":1,"opposite_coherence":0,"dot_radius":2,"dot_side_length":1,"dot_life":-1,"move_distance":1,"aperture_width":300,"aperture_height":300,"dot_color":["white","black"],"dot_shape":"circle","background_color":"#AAA","RDK_type":3,"aperture_type":2,"reinsert_type":2,"frame_rate":16.75,"frame_rate_array":[6,17,34,16,17,17,17,16,16,17,16,17,17,17,16,17,17,16,17,17,18,16,16,17,17,16,17,16,17,17,16,17,17,17,17,16,17,17,17,16,16,17,17,17,16,17,16,17,17,17,17,16,17,17,17,16,17,16,17,16,17,16,17,17,16,17,17,16,17,17,17,16,16,17,17,17,17,17,17,17,17,17,17,16,17,17,17,16,17,17,16,17,16,17,17,16,17,17,16,17,17,17,17,17,17,17,17,16,17,17,16,17,16,17,16,17,16,17,16,17],"number_of_frames":120,"aperture_center_x":746,"aperture_center_y":420,"fixation_cross":true,"fixation_cross_width":15,"fixation_cross_height":15,"fixation_cross_color":"#111","fixation_cross_thickness":1,"border":true,"border_thickness":2,"border_color":"transparent","canvas_width":1492,"canvas_height":840,"trial_type":"rdk","trial_index":55,"plugin_version":"2.0.0","time_elapsed":225951,"phase":"practice","target_direction":112,"distractor_direction":8},{"rt":5998,"stimulus":"\n        <div class=\"response-container\">\n          <div class=\"response-instruction\">\n            <p>rotate the bar by using the left and right arrow keys.</p>\n            <p>when you are determined, press the Enter key.</p>\n          </div>\n          <div class=\"response-circle\">\n            <div class=\"response-fixation\"></div>\n            <div id=\"bar\" class=\"rotating-bar\"></div>\n          </div>\n        </div>\n      ","response":"Enter","trial_type":"html-keyboard-response","trial_index":56,"plugin_version":"2.1.0","time_elapsed":231950,"random_initial_angle":181,"response_angle_css":-37,"response_angle_rdk":127,"angular_error_target":15,"angular_error_distractor":119,"target_direction":112,"target_group":"white","reward_points":7},{"rt":null,"stimulus":"\n          <p style=\"color: #00FF00;\">Your reward: 7 points</p>\n        ","response":null,"trial_type":"html-keyboard-response","trial_index":57,"plugin_version":"2.1.0","time_elapsed":233964},{"rt":null,"stimulus":"<div class=\"fixation\" style=\"font-size: 60px;\">+</div>","response":null,"trial_type":"html-keyboard-response","trial_index":58,"plugin_version":"2.1.0","time_elapsed":234970},{"target_group":"white","target_index":0,"condition_label":"practice","rt":-1,"response":"","correct":false,"choices":"ALL_KEYS","correct_choice":["a"],"trial_duration":2000,"flip_timestamps":[],"response_ends_trial":false,"number_of_apertures":2,"number_of_dots":[100,98],"number_of_sets":1,"coherent_direction":[344,177],"coherence":1,"opposite_coherence":0,"dot_radius":2,"dot_side_length":1,"dot_life":-1,"move_distance":1,"aperture_width":300,"aperture_height":300,"dot_color":["white","black"],"dot_shape":"circle","background_color":"#AAA","RDK_type":3,"aperture_type":2,"reinsert_type":2,"frame_rate":16.75,"frame_rate_array":[7,16,33,17,17,17,16,17,16,17,17,17,17,16,17,16,17,16,17,17,16,17,16,16,17,17,17,16,17,16,17,17,16,17,16,17,16,17,16,17,17,17,16,17,16,17,16,17,17,17,17,17,17,16,17,16,17,17,17,17,17,17,17,16,17,17,16,17,16,17,17,17,17,17,16,17,16,17,17,17,17,16,17,17,17,17,17,16,17,17,17,16,17,17,17,17,16,17,17,17,17,17,16,17,17,17,16,17,16,18,16,16,17,17,17,16,16,17,17,16],"number_of_frames":120,"aperture_center_x":746,"aperture_center_y":420,"fixation_cross":true,"fixation_cross_width":15,"fixation_cross_height":15,"fixation_cross_color":"#111","fixation_cross_thickness":1,"border":true,"border_thickness":2,"border_color":"transparent","canvas_width":1492,"canvas_height":840,"trial_type":"rdk","trial_index":59,"plugin_version":"2.0.0","time_elapsed":236980,"phase":"practice","target_direction":344,"distractor_direction":177},{"rt":5568,"stimulus":"\n        <div class=\"response-container\">\n          <div class=\"response-instruction\">\n            <p>rotate the bar by using the left and right arrow keys.</p>\n            <p>when you are determined, press the Enter key.</p>\n          </div>\n          <div class=\"response-circle\">\n            <div class=\"response-fixation\"></div>\n            <div id=\"bar\" class=\"rotating-bar\"></div>\n          </div>\n        </div>\n      ","response":"Enter","trial_type":"html-keyboard-response","trial_index":60,"plugin_version":"2.1.0","time_elapsed":242549,"random_initial_angle":84,"response_angle_css":-96,"response_angle_rdk":186,"angular_error_target":-158,"angular_error_distractor":9,"target_direction":344,"target_group":"white","reward_points":0},{"rt":null,"stimulus":"\n          <p style=\"color: #FF3333;\">Your reward: 0 points</p>\n        ","response":null,"trial_type":"html-keyboard-response","trial_index":61,"plugin_version":"2.1.0","time_elapsed":244558},{"rt":null,"stimulus":"<div class=\"fixation\" style=\"font-size: 60px;\">+</div>","response":null,"trial_type":"html-keyboard-response","trial_index":62,"plugin_version":"2.1.0","time_elapsed":245565},{"target_group":"white","target_index":0,"condition_label":"practice","rt":-1,"response":"","correct":false,"choices":"ALL_KEYS","correct_choice":["a"],"trial_duration":2000,"flip_timestamps":[],"response_ends_trial":false,"number_of_apertures":2,"number_of_dots":[100,81],"number_of_sets":1,"coherent_direction":[321,98],"coherence":1,"opposite_coherence":0,"dot_radius":2,"dot_side_length":1,"dot_life":-1,"move_distance":1,"aperture_width":300,"aperture_height":300,"dot_color":["white","black"],"dot_shape":"circle","background_color":"#AAA","RDK_type":3,"aperture_type":2,"reinsert_type":2,"frame_rate":16.741666666666667,"frame_rate_array":[8,17,33,17,16,16,17,17,17,17,17,17,17,17,17,16,17,17,16,17,16,16,17,17,17,17,16,17,16,17,17,16,17,17,17,17,17,16,17,17,17,17,16,16,17,17,17,17,16,16,17,17,17,16,17,16,17,16,17,16,17,16,17,17,16,17,17,17,17,17,16,17,16,17,16,17,16,17,16,17,17,17,16,17,17,17,16,17,17,16,17,17,17,16,17,17,16,17,17,17,16,17,17,17,17,16,17,16,16,18,16,16,17,17,17,16,17,16,17,16],"number_of_frames":120,"aperture_center_x":746,"aperture_center_y":420,"fixation_cross":true,"fixation_cross_width":15,"fixation_cross_height":15,"fixation_cross_color":"#111","fixation_cross_thickness":1,"border":true,"border_thickness":2,"border_color":"transparent","canvas_width":1492,"canvas_height":840,"trial_type":"rdk","trial_index":63,"plugin_version":"2.0.0","time_elapsed":247574,"phase":"practice","target_direction":321,"distractor_direction":98},{"rt":4941,"stimulus":"\n        <div class=\"response-container\">\n          <div class=\"response-instruction\">\n            <p>rotate the bar by using the left and right arrow keys.</p>\n            <p>when you are determined, press the Enter key.</p>\n          </div>\n          <div class=\"response-circle\">\n            <div class=\"response-fixation\"></div>\n            <div id=\"bar\" class=\"rotating-bar\"></div>\n          </div>\n        </div>\n      ","response":"Enter","trial_type":"html-keyboard-response","trial_index":64,"plugin_version":"2.1.0","time_elapsed":252516,"random_initial_angle":227,"response_angle_css":126,"response_angle_rdk":324,"angular_error_target":3,"angular_error_distractor":-134,"target_direction":321,"target_group":"white","reward_points":9},{"rt":null,"stimulus":"\n          <p style=\"color: #00FF00;\">Your reward: 9 points</p>\n        ","response":null,"trial_type":"html-keyboard-response","trial_index":65,"plugin_version":"2.1.0","time_elapsed":254523},{"rt":2487,"stimulus":"\n        <div class=\"instructions-container\">\n          <h2>End of Practice</h2>\n          <p>You have completed the practice trials.</p>\n          <p>Press <strong>Enter</strong> key to begin the main experiment.</p>\n        </div>\n      ","response":"Enter","trial_type":"html-keyboard-response","trial_index":66,"plugin_version":"2.1.0","time_elapsed":257011},{"rt":null,"stimulus":"<div class=\"fixation\" style=\"font-size: 60px;\">+</div>","response":null,"trial_type":"html-keyboard-response","trial_index":67,"plugin_version":"2.1.0","time_elapsed":258026},{"phase":"learning-awareness","target_group":"black","condition_label":"B_H_vs_W_L_rep20","target_direction":42,"distractor_direction":158,"session_rotation":298,"rt":-1,"response":"","correct":false,"choices":"ALL_KEYS","correct_choice":["a"],"trial_duration":2000,"flip_timestamps":[],"response_ends_trial":false,"number_of_apertures":200,"number_of_dots":[1,1,1,1,1,1,1,1,1,1,1,1,1,1,1,1,1,1,1,1,1,1,1,1,1,1,1,1,1,1,1,1,1,1,1,1,1,1,1,1,1,1,1,1,1,1,1,1,1,1,1,1,1,1,1,1,1,1,1,1,1,1,1,1,1,1,1,1,1,1,1,1,1,1,1,1,1,1,1,1,1,1,1,1,1,1,1,1,1,1,1,1,1,1,1,1,1,1,1,1,1,1,1,1,1,1,1,1,1,1,1,1,1,1,1,1,1,1,1,1,1,1,1,1,1,1,1,1,1,1,1,1,1,1,1,1,1,1,1,1,1,1,1,1,1,1,1,1,1,1,1,1,1,1,1,1,1,1,1,1,1,1,1,1,1,1,1,1,1,1,1,1,1,1,1,1,1,1,1,1,1,1,1,1,1,1,1,1,1,1,1,1,1,1,1,1,1,1,1,1],"number_of_sets":1,"coherent_direction":[158,158,42,158,42,158,42,158,158,42,42,42,42,158,42,158,158,158,42,158,42,158,158,158,158,42,42,42,42,42,42,158,42,158,158,158,42,158,42,42,158,158,42,42,42,42,42,42,42,42,158,158,158,42,158,42,158,158,158,42,158,158,158,158,158,42,42,158,42,42,158,42,158,158,158,158,42,158,42,158,158,158,42,158,42,158,42,42,42,42,42,158,42,42,158,158,42,158,42,158,42,158,42,158,158,158,42,158,42,42,42,158,42,158,158,42,158,42,158,42,42,42,42,158,158,158,158,42,42,42,158,42,42,42,158,158,158,42,158,42,42,158,42,158,158,158,158,42,158,42,158,158,158,42,42,42,158,158,158,42,158,42,42,42,42,42,158,158,42,42,158,158,158,158,42,158,42,158,42,42,42,42,158,158,42,158,42,42,158,42,158,158,42,42,158,42,158,158,42,42],"coherence":1,"opposite_coherence":0,"dot_radius":2,"dot_side_length":1,"dot_life":-1,"move_distance":1,"aperture_width":300,"aperture_height":300,"dot_color":["white","white","black","white","black","white","black","white","white","black","black","black","black","white","black","white","white","white","black","white","black","white","white","white","white","black","black","black","black","black","black","white","black","white","white","white","black","white","black","black","white","white","black","black","black","black","black","black","black","black","white","white","white","black","white","black","white","white","white","black","white","white","white","white","white","black","black","white","black","black","white","black","white","white","white","white","black","white","black","white","white","white","black","white","black","white","black","black","black","black","black","white","black","black","white","white","black","white","black","white","black","white","black","white","white","white","black","white","black","black","black","white","black","white","white","black","white","black","white","black","black","black","black","white","white","white","white","black","black","black","white","black","black","black","white","white","white","black","white","black","black","white","black","white","white","white","white","black","white","black","white","white","white","black","black","black","white","white","white","black","white","black","black","black","black","black","white","white","black","black","white","white","white","white","black","white","black","white","black","black","black","black","white","white","black","white","black","black","white","black","white","white","black","black","white","black","white","white","black","black"],"dot_shape":"circle","background_color":"#AAA","RDK_type":3,"aperture_type":2,"reinsert_type":2,"frame_rate":16.658333333333335,"frame_rate_array":[9,16,17,16,17,17,17,16,16,17,18,17,17,16,18,16,17,16,17,18,16,17,17,16,18,16,17,16,18,16,17,17,17,17,18,15,17,17,18,16,17,16,17,16,17,17,17,16,17,17,17,17,16,18,15,17,17,16,17,16,17,16,18,16,17,17,16,17,17,16,17,16,17,16,17,17,17,16,17,16,18,15,18,16,17,17,16,18,16,18,16,16,17,17,17,16,18,15,17,16,17,16,18,16,18,15,17,17,17,17,17,17,16,17,17,17,16,17,16,17],"number_of_frames":120,"aperture_center_x":746,"aperture_center_y":420,"fixation_cross":true,"fixation_cross_width":15,"fixation_cross_height":15,"fixation_cross_color":"#111","fixation_cross_thickness":1,"border":true,"border_thickness":2,"border_color":"transparent","canvas_width":1492,"canvas_height":840,"trial_type":"rdk","trial_index":68,"plugin_version":"2.0.0","time_elapsed":260033},{"rt":4747,"stimulus":"\n        <div class=\"response-container\">\n          <div class=\"response-instruction\">\n            <p>rotate the bar by using the left and right arrow keys.</p>\n            <p>when you are determined, press the Enter key.</p>\n          </div>\n          <div class=\"response-circle\">\n            <div class=\"response-fixation\"></div>\n            <div id=\"bar\" class=\"rotating-bar\"></div>\n          </div>\n        </div>\n      ","response":"Enter","trial_type":"html-keyboard-response","trial_index":69,"plugin_version":"2.1.0","time_elapsed":264781,"random_initial_angle":114,"response_angle_css":48,"response_angle_rdk":42,"angular_error_target":0,"angular_error_distractor":-116,"target_direction":42,"target_group":"black","reward_points":10},{"rt":null,"stimulus":"\n          <p style=\"color: #00FF00;\">Your reward: 10 points</p>\n        ","response":null,"trial_type":"html-keyboard-response","trial_index":70,"plugin_version":"2.1.0","time_elapsed":266790},{"rt":null,"stimulus":"<div class=\"fixation\" style=\"font-size: 60px;\">+</div>","response":null,"trial_type":"html-keyboard-response","trial_index":71,"plugin_version":"2.1.0","time_elapsed":267792},{"phase":"learning-awareness","target_group":"white","condition_label":"W_H_vs_B_L_rep5","target_direction":338,"distractor_direction":220,"session_rotation":298,"rt":-1,"response":"","correct":false,"choices":"ALL_KEYS","correct_choice":["a"],"trial_duration":2000,"flip_timestamps":[],"response_ends_trial":false,"number_of_apertures":200,"number_of_dots":[1,1,1,1,1,1,1,1,1,1,1,1,1,1,1,1,1,1,1,1,1,1,1,1,1,1,1,1,1,1,1,1,1,1,1,1,1,1,1,1,1,1,1,1,1,1,1,1,1,1,1,1,1,1,1,1,1,1,1,1,1,1,1,1,1,1,1,1,1,1,1,1,1,1,1,1,1,1,1,1,1,1,1,1,1,1,1,1,1,1,1,1,1,1,1,1,1,1,1,1,1,1,1,1,1,1,1,1,1,1,1,1,1,1,1,1,1,1,1,1,1,1,1,1,1,1,1,1,1,1,1,1,1,1,1,1,1,1,1,1,1,1,1,1,1,1,1,1,1,1,1,1,1,1,1,1,1,1,1,1,1,1,1,1,1,1,1,1,1,1,1,1,1,1,1,1,1,1,1,1,1,1,1,1,1,1,1,1,1,1,1,1,1,1,1,1,1,1,1,1],"number_of_sets":1,"coherent_direction":[220,220,220,338,220,338,338,220,220,220,338,220,220,338,338,220,220,338,220,220,220,220,220,220,220,338,338,220,220,220,338,338,338,338,220,220,338,338,338,338,338,338,220,220,338,220,220,220,220,338,220,338,220,220,220,220,338,220,338,338,338,338,220,220,220,220,338,338,338,338,338,220,220,220,220,338,338,338,220,220,338,220,220,220,220,338,338,338,220,338,220,338,338,338,338,220,338,338,220,220,338,338,338,338,220,220,220,220,220,338,220,338,338,338,220,338,338,220,338,220,220,338,220,338,338,220,338,220,220,338,338,220,338,220,338,220,220,220,338,220,220,220,338,338,220,338,338,220,338,220,220,220,338,220,220,338,338,220,220,220,220,338,338,338,338,220,338,220,338,220,338,338,338,220,338,338,338,338,220,338,338,338,338,220,338,220,220,338,220,220,338,338,338,338,220,338,338,220,338,220],"coherence":1,"opposite_coherence":0,"dot_radius":2,"dot_side_length":1,"dot_life":-1,"move_distance":1,"aperture_width":300,"aperture_height":300,"dot_color":["black","black","black","white","black","white","white","black","black","black","white","black","black","white","white","black","black","white","black","black","black","black","black","black","black","white","white","black","black","black","white","white","white","white","black","black","white","white","white","white","white","white","black","black","white","black","black","black","black","white","black","white","black","black","black","black","white","black","white","white","white","white","black","black","black","black","white","white","white","white","white","black","black","black","black","white","white","white","black","black","white","black","black","black","black","white","white","white","black","white","black","white","white","white","white","black","white","white","black","black","white","white","white","white","black","black","black","black","black","white","black","white","white","white","black","white","white","black","white","black","black","white","black","white","white","black","white","black","black","white","white","black","white","black","white","black","black","black","white","black","black","black","white","white","black","white","white","black","white","black","black","black","white","black","black","white","white","black","black","black","black","white","white","white","white","black","white","black","white","black","white","white","white","black","white","white","white","white","black","white","white","white","white","black","white","black","black","white","black","black","white","white","white","white","black","white","white","black","white","black"],"dot_shape":"circle","background_color":"#AAA","RDK_type":3,"aperture_type":2,"reinsert_type":2,"frame_rate":16.636363636363637,"frame_rate_array":[6,16,18,16,17,17,16,17,16,16,17,17,17,17,17,16,17,17,16,17,16,17,17,18,15,17,16,17,16,17,17,16,17,17,17,16,17,16,20,14,16,17,17,17,17,16,17,16,17,17,16,17,16,18,16,17,17,17,17,17,16,17,17,17,16,17,17,17,16,17,17,17,16,17,17,17,16,17,17,17,16,17,17,17,17,17,17,17,17,16,17,17,17,16,18,16,17,16,17,17,17,16,17,17,17,17,17,16,18,16,16,17,17,17,16,17,18,15,17,16,17],"number_of_frames":121,"aperture_center_x":746,"aperture_center_y":420,"fixation_cross":true,"fixation_cross_width":15,"fixation_cross_height":15,"fixation_cross_color":"#111","fixation_cross_thickness":1,"border":true,"border_thickness":2,"border_color":"transparent","canvas_width":1492,"canvas_height":840,"trial_type":"rdk","trial_index":72,"plugin_version":"2.0.0","time_elapsed":269800},{"rt":3983,"stimulus":"\n        <div class=\"response-container\">\n          <div class=\"response-instruction\">\n            <p>rotate the bar by using the left and right arrow keys.</p>\n            <p>when you are determined, press the Enter key.</p>\n          </div>\n          <div class=\"response-circle\">\n            <div class=\"response-fixation\"></div>\n            <div id=\"bar\" class=\"rotating-bar\"></div>\n          </div>\n        </div>\n      ","response":"Enter","trial_type":"html-keyboard-response","trial_index":73,"plugin_version":"2.1.0","time_elapsed":273784,"random_initial_angle":334,"response_angle_css":216,"response_angle_rdk":234,"angular_error_target":-104,"angular_error_distractor":14,"target_direction":338,"target_group":"white","reward_points":0},{"rt":null,"stimulus":"\n          <p style=\"color: #FF3333;\">Your reward: 0 points</p>\n        ","response":null,"trial_type":"html-keyboard-response","trial_index":74,"plugin_version":"2.1.0","time_elapsed":275797},{"rt":null,"stimulus":"<div class=\"fixation\" style=\"font-size: 60px;\">+</div>","response":null,"trial_type":"html-keyboard-response","trial_index":75,"plugin_version":"2.1.0","time_elapsed":276805},{"phase":"learning-awareness","target_group":"black","condition_label":"B_H_vs_W_L_rep5","target_direction":70,"distractor_direction":162,"session_rotation":298,"rt":-1,"response":"","correct":false,"choices":"ALL_KEYS","correct_choice":["a"],"trial_duration":2000,"flip_timestamps":[],"response_ends_trial":false,"number_of_apertures":200,"number_of_dots":[1,1,1,1,1,1,1,1,1,1,1,1,1,1,1,1,1,1,1,1,1,1,1,1,1,1,1,1,1,1,1,1,1,1,1,1,1,1,1,1,1,1,1,1,1,1,1,1,1,1,1,1,1,1,1,1,1,1,1,1,1,1,1,1,1,1,1,1,1,1,1,1,1,1,1,1,1,1,1,1,1,1,1,1,1,1,1,1,1,1,1,1,1,1,1,1,1,1,1,1,1,1,1,1,1,1,1,1,1,1,1,1,1,1,1,1,1,1,1,1,1,1,1,1,1,1,1,1,1,1,1,1,1,1,1,1,1,1,1,1,1,1,1,1,1,1,1,1,1,1,1,1,1,1,1,1,1,1,1,1,1,1,1,1,1,1,1,1,1,1,1,1,1,1,1,1,1,1,1,1,1,1,1,1,1,1,1,1,1,1,1,1,1,1,1,1,1,1,1,1],"number_of_sets":1,"coherent_direction":[162,70,70,162,162,70,70,162,162,70,162,70,70,162,162,70,162,162,162,70,162,162,162,70,162,162,70,70,70,162,162,162,70,70,70,162,70,162,162,162,70,70,70,162,162,162,70,70,162,162,70,70,162,162,162,162,70,70,70,162,70,162,162,70,162,162,162,162,70,70,70,70,70,162,162,162,162,70,70,70,70,162,162,70,162,70,70,70,70,162,162,70,70,162,162,70,162,162,162,162,162,70,70,70,162,70,70,162,162,162,70,162,70,70,162,162,70,162,162,162,70,162,70,70,70,162,70,70,70,162,162,70,70,162,70,162,70,162,70,162,162,70,162,162,162,70,70,162,70,70,162,70,162,70,70,162,70,162,70,162,162,162,162,70,70,70,162,70,70,70,70,70,70,70,70,162,70,162,70,162,70,162,162,162,162,162,70,70,162,70,162,70,70,70,162,162,70,162,70,70],"coherence":1,"opposite_coherence":0,"dot_radius":2,"dot_side_length":1,"dot_life":-1,"move_distance":1,"aperture_width":300,"aperture_height":300,"dot_color":["white","black","black","white","white","black","black","white","white","black","white","black","black","white","white","black","white","white","white","black","white","white","white","black","white","white","black","black","black","white","white","white","black","black","black","white","black","white","white","white","black","black","black","white","white","white","black","black","white","white","black","black","white","white","white","white","black","black","black","white","black","white","white","black","white","white","white","white","black","black","black","black","black","white","white","white","white","black","black","black","black","white","white","black","white","black","black","black","black","white","white","black","black","white","white","black","white","white","white","white","white","black","black","black","white","black","black","white","white","white","black","white","black","black","white","white","black","white","white","white","black","white","black","black","black","white","black","black","black","white","white","black","black","white","black","white","black","white","black","white","white","black","white","white","white","black","black","white","black","black","white","black","white","black","black","white","black","white","black","white","white","white","white","black","black","black","white","black","black","black","black","black","black","black","black","white","black","white","black","white","black","white","white","white","white","white","black","black","white","black","white","black","black","black","white","white","black","white","black","black"],"dot_shape":"circle","background_color":"#AAA","RDK_type":3,"aperture_type":2,"reinsert_type":2,"frame_rate":16.65289256198347,"frame_rate_array":[8,13,17,17,16,17,17,17,17,16,17,16,17,17,17,17,17,18,16,16,17,17,16,17,17,16,16,17,16,17,17,16,17,17,17,17,16,17,17,17,17,17,17,17,16,17,17,17,16,18,16,16,17,17,17,16,17,17,17,17,17,17,17,17,17,16,17,16,17,16,17,17,16,18,16,17,17,16,17,16,18,17,16,18,17,16,17,16,17,17,17,16,17,17,17,16,17,17,16,17,17,16,16,17,17,17,17,17,17,17,16,17,16,17,18,16,17,17,17,16,17],"number_of_frames":121,"aperture_center_x":746,"aperture_center_y":420,"fixation_cross":true,"fixation_cross_width":15,"fixation_cross_height":15,"fixation_cross_color":"#111","fixation_cross_thickness":1,"border":true,"border_thickness":2,"border_color":"transparent","canvas_width":1492,"canvas_height":840,"trial_type":"rdk","trial_index":76,"plugin_version":"2.0.0","time_elapsed":278813},{"rt":4546,"stimulus":"\n        <div class=\"response-container\">\n          <div class=\"response-instruction\">\n            <p>rotate the bar by using the left and right arrow keys.</p>\n            <p>when you are determined, press the Enter key.</p>\n          </div>\n          <div class=\"response-circle\">\n            <div class=\"response-fixation\"></div>\n            <div id=\"bar\" class=\"rotating-bar\"></div>\n          </div>\n        </div>\n      ","response":"Enter","trial_type":"html-keyboard-response","trial_index":77,"plugin_version":"2.1.0","time_elapsed":283360,"random_initial_angle":71,"response_angle_css":28,"response_angle_rdk":62,"angular_error_target":-8,"angular_error_distractor":-100,"target_direction":70,"target_group":"black","reward_points":8},{"rt":null,"stimulus":"\n          <p style=\"color: #00FF00;\">Your reward: 8 points</p>\n        ","response":null,"trial_type":"html-keyboard-response","trial_index":78,"plugin_version":"2.1.0","time_elapsed":285366},{"rt":null,"stimulus":"<div class=\"fixation\" style=\"font-size: 60px;\">+</div>","response":null,"trial_type":"html-keyboard-response","trial_index":79,"plugin_version":"2.1.0","time_elapsed":286368},{"phase":"learning-awareness","target_group":"black","condition_label":"B_H_vs_W_L_rep12","target_direction":35,"distractor_direction":130,"session_rotation":298,"rt":-1,"response":"","correct":false,"choices":"ALL_KEYS","correct_choice":["a"],"trial_duration":2000,"flip_timestamps":[],"response_ends_trial":false,"number_of_apertures":200,"number_of_dots":[1,1,1,1,1,1,1,1,1,1,1,1,1,1,1,1,1,1,1,1,1,1,1,1,1,1,1,1,1,1,1,1,1,1,1,1,1,1,1,1,1,1,1,1,1,1,1,1,1,1,1,1,1,1,1,1,1,1,1,1,1,1,1,1,1,1,1,1,1,1,1,1,1,1,1,1,1,1,1,1,1,1,1,1,1,1,1,1,1,1,1,1,1,1,1,1,1,1,1,1,1,1,1,1,1,1,1,1,1,1,1,1,1,1,1,1,1,1,1,1,1,1,1,1,1,1,1,1,1,1,1,1,1,1,1,1,1,1,1,1,1,1,1,1,1,1,1,1,1,1,1,1,1,1,1,1,1,1,1,1,1,1,1,1,1,1,1,1,1,1,1,1,1,1,1,1,1,1,1,1,1,1,1,1,1,1,1,1,1,1,1,1,1,1,1,1,1,1,1,1],"number_of_sets":1,"coherent_direction":[35,130,130,130,130,35,35,35,130,130,35,130,35,130,35,35,35,35,130,35,35,35,130,130,130,130,35,130,35,35,35,130,130,35,130,35,35,35,35,130,35,35,35,35,35,130,35,130,130,130,35,35,35,130,35,35,35,35,130,130,35,130,130,35,130,130,35,130,130,130,35,130,130,130,35,35,130,130,35,35,130,130,130,35,35,130,35,35,130,35,35,130,130,130,35,35,35,130,35,35,35,35,130,130,35,130,130,130,35,130,130,35,35,130,130,35,35,35,130,35,35,130,130,35,130,35,130,35,130,130,35,35,35,130,35,130,35,130,130,35,35,130,35,130,130,35,35,130,130,35,130,130,35,130,130,130,35,35,130,130,35,130,130,130,35,35,35,35,130,130,130,130,130,35,35,130,35,35,130,35,130,35,130,130,130,35,35,130,35,130,35,35,130,35,130,35,130,130,130,130],"coherence":1,"opposite_coherence":0,"dot_radius":2,"dot_side_length":1,"dot_life":-1,"move_distance":1,"aperture_width":300,"aperture_height":300,"dot_color":["black","white","white","white","white","black","black","black","white","white","black","white","black","white","black","black","black","black","white","black","black","black","white","white","white","white","black","white","black","black","black","white","white","black","white","black","black","black","black","white","black","black","black","black","black","white","black","white","white","white","black","black","black","white","black","black","black","black","white","white","black","white","white","black","white","white","black","white","white","white","black","white","white","white","black","black","white","white","black","black","white","white","white","black","black","white","black","black","white","black","black","white","white","white","black","black","black","white","black","black","black","black","white","white","black","white","white","white","black","white","white","black","black","white","white","black","black","black","white","black","black","white","white","black","white","black","white","black","white","white","black","black","black","white","black","white","black","white","white","black","black","white","black","white","white","black","black","white","white","black","white","white","black","white","white","white","black","black","white","white","black","white","white","white","black","black","black","black","white","white","white","white","white","black","black","white","black","black","white","black","white","black","white","white","white","black","black","white","black","white","black","black","white","black","white","black","white","white","white","white"],"dot_shape":"circle","background_color":"#AAA","RDK_type":3,"aperture_type":2,"reinsert_type":2,"frame_rate":16.619834710743802,"frame_rate_array":[5,17,18,15,17,16,16,17,18,16,16,17,17,17,16,17,17,17,17,17,16,18,16,16,17,16,17,17,17,17,17,16,17,17,16,18,16,16,17,16,17,17,16,16,17,16,17,17,16,18,16,18,17,15,17,17,17,16,17,17,17,17,18,16,17,16,17,17,17,16,19,15,17,17,17,17,16,17,17,16,17,17,16,17,17,16,16,17,17,17,17,16,17,18,17,16,16,17,17,17,16,17,16,17,17,17,16,17,16,17,17,17,18,15,17,16,18,15,17,18,16],"number_of_frames":121,"aperture_center_x":746,"aperture_center_y":420,"fixation_cross":true,"fixation_cross_width":15,"fixation_cross_height":15,"fixation_cross_color":"#111","fixation_cross_thickness":1,"border":true,"border_thickness":2,"border_color":"transparent","canvas_width":1492,"canvas_height":840,"trial_type":"rdk","trial_index":80,"plugin_version":"2.0.0","time_elapsed":288376},{"rt":7644,"stimulus":"\n        <div class=\"response-container\">\n          <div class=\"response-instruction\">\n            <p>rotate the bar by using the left and right arrow keys.</p>\n            <p>when you are determined, press the Enter key.</p>\n          </div>\n          <div class=\"response-circle\">\n            <div class=\"response-fixation\"></div>\n            <div id=\"bar\" class=\"rotating-bar\"></div>\n          </div>\n        </div>\n      ","response":"Enter","trial_type":"html-keyboard-response","trial_index":81,"plugin_version":"2.1.0","time_elapsed":296021,"random_initial_angle":142,"response_angle_css":30,"response_angle_rdk":60,"angular_error_target":25,"angular_error_distractor":-70,"target_direction":35,"target_group":"black","reward_points":5},{"rt":null,"stimulus":"\n          <p style=\"color: #00FF00;\">Your reward: 5 points</p>\n        ","response":null,"trial_type":"html-keyboard-response","trial_index":82,"plugin_version":"2.1.0","time_elapsed":298024},{"rt":null,"stimulus":"<div class=\"fixation\" style=\"font-size: 60px;\">+</div>","response":null,"trial_type":"html-keyboard-response","trial_index":83,"plugin_version":"2.1.0","time_elapsed":299031},{"phase":"learning-awareness","target_group":"white","condition_label":"W_H_vs_B_L_rep17","target_direction":340,"distractor_direction":246,"session_rotation":298,"rt":-1,"response":"","correct":false,"choices":"ALL_KEYS","correct_choice":["a"],"trial_duration":2000,"flip_timestamps":[],"response_ends_trial":false,"number_of_apertures":200,"number_of_dots":[1,1,1,1,1,1,1,1,1,1,1,1,1,1,1,1,1,1,1,1,1,1,1,1,1,1,1,1,1,1,1,1,1,1,1,1,1,1,1,1,1,1,1,1,1,1,1,1,1,1,1,1,1,1,1,1,1,1,1,1,1,1,1,1,1,1,1,1,1,1,1,1,1,1,1,1,1,1,1,1,1,1,1,1,1,1,1,1,1,1,1,1,1,1,1,1,1,1,1,1,1,1,1,1,1,1,1,1,1,1,1,1,1,1,1,1,1,1,1,1,1,1,1,1,1,1,1,1,1,1,1,1,1,1,1,1,1,1,1,1,1,1,1,1,1,1,1,1,1,1,1,1,1,1,1,1,1,1,1,1,1,1,1,1,1,1,1,1,1,1,1,1,1,1,1,1,1,1,1,1,1,1,1,1,1,1,1,1,1,1,1,1,1,1,1,1,1,1,1,1],"number_of_sets":1,"coherent_direction":[246,340,246,340,246,340,340,246,246,246,246,340,340,246,340,340,246,246,340,340,246,246,246,246,340,246,340,246,246,246,340,246,340,340,340,340,246,246,340,340,340,246,340,246,246,340,246,246,340,246,340,246,340,246,246,246,246,340,246,246,340,246,246,340,246,246,246,340,340,246,246,340,340,340,246,340,340,246,340,340,246,340,340,340,340,246,246,340,340,340,246,246,340,246,340,246,246,340,340,246,340,340,246,340,340,246,246,246,340,340,246,340,246,246,340,340,340,246,340,246,340,340,246,340,340,246,340,340,246,246,340,340,246,246,246,246,246,340,340,340,340,246,246,246,340,340,246,246,340,340,340,340,246,246,246,246,246,246,246,340,246,246,246,340,340,340,246,246,246,246,340,340,246,340,340,340,340,340,246,246,340,340,246,340,340,340,340,246,340,246,246,340,340,246,340,246,246,340,246,340],"coherence":1,"opposite_coherence":0,"dot_radius":2,"dot_side_length":1,"dot_life":-1,"move_distance":1,"aperture_width":300,"aperture_height":300,"dot_color":["black","white","black","white","black","white","white","black","black","black","black","white","white","black","white","white","black","black","white","white","black","black","black","black","white","black","white","black","black","black","white","black","white","white","white","white","black","black","white","white","white","black","white","black","black","white","black","black","white","black","white","black","white","black","black","black","black","white","black","black","white","black","black","white","black","black","black","white","white","black","black","white","white","white","black","white","white","black","white","white","black","white","white","white","white","black","black","white","white","white","black","black","white","black","white","black","black","white","white","black","white","white","black","white","white","black","black","black","white","white","black","white","black","black","white","white","white","black","white","black","white","white","black","white","white","black","white","white","black","black","white","white","black","black","black","black","black","white","white","white","white","black","black","black","white","white","black","black","white","white","white","white","black","black","black","black","black","black","black","white","black","black","black","white","white","white","black","black","black","black","white","white","black","white","white","white","white","white","black","black","white","white","black","white","white","white","white","black","white","black","black","white","white","black","white","black","black","white","black","white"],"dot_shape":"circle","background_color":"#AAA","RDK_type":3,"aperture_type":2,"reinsert_type":2,"frame_rate":16.545454545454547,"frame_rate_array":[4,17,16,17,16,17,18,15,17,17,16,16,17,16,17,17,16,17,17,17,16,17,16,18,15,17,16,17,17,17,17,16,17,16,17,17,16,17,16,17,16,17,17,17,17,16,17,16,17,17,16,17,17,16,18,16,17,17,16,17,16,17,16,18,16,17,16,17,18,15,17,17,16,17,16,17,17,16,17,17,17,16,17,17,16,17,17,17,16,17,17,16,18,15,17,17,17,16,17,17,18,16,16,17,16,17,16,17,16,17,16,17,16,17,16,19,16,16,17,17,16],"number_of_frames":121,"aperture_center_x":746,"aperture_center_y":420,"fixation_cross":true,"fixation_cross_width":15,"fixation_cross_height":15,"fixation_cross_color":"#111","fixation_cross_thickness":1,"border":true,"border_thickness":2,"border_color":"transparent","canvas_width":1492,"canvas_height":840,"trial_type":"rdk","trial_index":84,"plugin_version":"2.0.0","time_elapsed":301036},{"rt":2893,"stimulus":"\n        <div class=\"response-container\">\n          <div class=\"response-instruction\">\n            <p>rotate the bar by using the left and right arrow keys.</p>\n            <p>when you are determined, press the Enter key.</p>\n          </div>\n          <div class=\"response-circle\">\n            <div class=\"response-fixation\"></div>\n            <div id=\"bar\" class=\"rotating-bar\"></div>\n          </div>\n        </div>\n      ","response":"Enter","trial_type":"html-keyboard-response","trial_index":85,"plugin_version":"2.1.0","time_elapsed":303930,"random_initial_angle":78,"response_angle_css":96,"response_angle_rdk":354,"angular_error_target":14,"angular_error_distractor":108,"target_direction":340,"target_group":"white","reward_points":7},{"rt":null,"stimulus":"\n          <p style=\"color: #00FF00;\">Your reward: 7 points</p>\n        ","response":null,"trial_type":"html-keyboard-response","trial_index":86,"plugin_version":"2.1.0","time_elapsed":305932},{"rt":null,"stimulus":"<div class=\"fixation\" style=\"font-size: 60px;\">+</div>","response":null,"trial_type":"html-keyboard-response","trial_index":87,"plugin_version":"2.1.0","time_elapsed":306941},{"phase":"learning-awareness","target_group":"white","condition_label":"W_H_vs_B_L_rep7","target_direction":312,"distractor_direction":216,"session_rotation":298,"rt":-1,"response":"","correct":false,"choices":"ALL_KEYS","correct_choice":["a"],"trial_duration":2000,"flip_timestamps":[],"response_ends_trial":false,"number_of_apertures":200,"number_of_dots":[1,1,1,1,1,1,1,1,1,1,1,1,1,1,1,1,1,1,1,1,1,1,1,1,1,1,1,1,1,1,1,1,1,1,1,1,1,1,1,1,1,1,1,1,1,1,1,1,1,1,1,1,1,1,1,1,1,1,1,1,1,1,1,1,1,1,1,1,1,1,1,1,1,1,1,1,1,1,1,1,1,1,1,1,1,1,1,1,1,1,1,1,1,1,1,1,1,1,1,1,1,1,1,1,1,1,1,1,1,1,1,1,1,1,1,1,1,1,1,1,1,1,1,1,1,1,1,1,1,1,1,1,1,1,1,1,1,1,1,1,1,1,1,1,1,1,1,1,1,1,1,1,1,1,1,1,1,1,1,1,1,1,1,1,1,1,1,1,1,1,1,1,1,1,1,1,1,1,1,1,1,1,1,1,1,1,1,1,1,1,1,1,1,1,1,1,1,1,1,1],"number_of_sets":1,"coherent_direction":[312,216,312,312,312,312,312,216,216,312,216,216,216,216,216,216,312,216,312,216,312,216,216,216,216,216,312,312,216,216,312,312,216,216,312,312,216,216,312,216,216,216,312,312,312,216,216,312,312,312,216,312,312,312,216,312,216,312,312,216,216,312,312,312,216,312,312,312,216,216,312,312,216,216,216,312,216,312,216,216,312,216,312,216,216,312,312,216,312,216,216,216,312,216,312,216,216,216,216,312,312,216,216,312,312,312,216,312,312,216,216,312,312,216,216,312,216,312,216,312,216,216,312,216,312,312,216,312,312,312,312,312,312,216,312,216,216,216,312,216,312,312,216,216,312,216,312,216,312,312,312,312,216,216,312,312,312,216,216,312,216,312,312,312,312,216,216,312,216,312,312,312,312,216,216,312,312,312,216,216,216,216,216,312,216,216,312,312,216,216,216,312,216,216,216,312,216,216,312,312],"coherence":1,"opposite_coherence":0,"dot_radius":2,"dot_side_length":1,"dot_life":-1,"move_distance":1,"aperture_width":300,"aperture_height":300,"dot_color":["white","black","white","white","white","white","white","black","black","white","black","black","black","black","black","black","white","black","white","black","white","black","black","black","black","black","white","white","black","black","white","white","black","black","white","white","black","black","white","black","black","black","white","white","white","black","black","white","white","white","black","white","white","white","black","white","black","white","white","black","black","white","white","white","black","white","white","white","black","black","white","white","black","black","black","white","black","white","black","black","white","black","white","black","black","white","white","black","white","black","black","black","white","black","white","black","black","black","black","white","white","black","black","white","white","white","black","white","white","black","black","white","white","black","black","white","black","white","black","white","black","black","white","black","white","white","black","white","white","white","white","white","white","black","white","black","black","black","white","black","white","white","black","black","white","black","white","black","white","white","white","white","black","black","white","white","white","black","black","white","black","white","white","white","white","black","black","white","black","white","white","white","white","black","black","white","white","white","black","black","black","black","black","white","black","black","white","white","black","black","black","white","black","black","black","white","black","black","white","white"],"dot_shape":"circle","background_color":"#AAA","RDK_type":3,"aperture_type":2,"reinsert_type":2,"frame_rate":16.633333333333333,"frame_rate_array":[8,17,17,16,17,17,17,16,16,17,17,16,17,17,17,17,17,17,16,18,16,17,17,17,17,17,16,17,17,17,16,17,16,17,16,17,17,16,17,16,17,16,18,16,17,17,17,17,17,16,17,16,17,16,17,16,17,17,17,17,17,17,16,17,17,17,16,17,16,17,17,17,18,15,17,16,17,17,17,16,17,16,17,16,17,17,17,17,16,17,17,17,16,17,17,17,16,17,16,17,16,18,16,16,17,16,17,17,17,16,17,16,18,16,17,16,17,17,17,16],"number_of_frames":120,"aperture_center_x":746,"aperture_center_y":420,"fixation_cross":true,"fixation_cross_width":15,"fixation_cross_height":15,"fixation_cross_color":"#111","fixation_cross_thickness":1,"border":true,"border_thickness":2,"border_color":"transparent","canvas_width":1492,"canvas_height":840,"trial_type":"rdk","trial_index":88,"plugin_version":"2.0.0","time_elapsed":308947},{"rt":3609,"stimulus":"\n        <div class=\"response-container\">\n          <div class=\"response-instruction\">\n            <p>rotate the bar by using the left and right arrow keys.</p>\n            <p>when you are determined, press the Enter key.</p>\n          </div>\n          <div class=\"response-circle\">\n            <div class=\"response-fixation\"></div>\n            <div id=\"bar\" class=\"rotating-bar\"></div>\n          </div>\n        </div>\n      ","response":"Enter","trial_type":"html-keyboard-response","trial_index":89,"plugin_version":"2.1.0","time_elapsed":312557,"random_initial_angle":26,"response_angle_css":127,"response_angle_rdk":323,"angular_error_target":11,"angular_error_distractor":107,"target_direction":312,"target_group":"white","reward_points":7},{"rt":null,"stimulus":"\n          <p style=\"color: #00FF00;\">Your reward: 7 points</p>\n        ","response":null,"trial_type":"html-keyboard-response","trial_index":90,"plugin_version":"2.1.0","time_elapsed":314563},{"rt":null,"stimulus":"<div class=\"fixation\" style=\"font-size: 60px;\">+</div>","response":null,"trial_type":"html-keyboard-response","trial_index":91,"plugin_version":"2.1.0","time_elapsed":315569},{"phase":"learning-awareness","target_group":"white","condition_label":"W_H_vs_B_L_rep15","target_direction":339,"distractor_direction":245,"session_rotation":298,"rt":-1,"response":"","correct":false,"choices":"ALL_KEYS","correct_choice":["a"],"trial_duration":2000,"flip_timestamps":[],"response_ends_trial":false,"number_of_apertures":200,"number_of_dots":[1,1,1,1,1,1,1,1,1,1,1,1,1,1,1,1,1,1,1,1,1,1,1,1,1,1,1,1,1,1,1,1,1,1,1,1,1,1,1,1,1,1,1,1,1,1,1,1,1,1,1,1,1,1,1,1,1,1,1,1,1,1,1,1,1,1,1,1,1,1,1,1,1,1,1,1,1,1,1,1,1,1,1,1,1,1,1,1,1,1,1,1,1,1,1,1,1,1,1,1,1,1,1,1,1,1,1,1,1,1,1,1,1,1,1,1,1,1,1,1,1,1,1,1,1,1,1,1,1,1,1,1,1,1,1,1,1,1,1,1,1,1,1,1,1,1,1,1,1,1,1,1,1,1,1,1,1,1,1,1,1,1,1,1,1,1,1,1,1,1,1,1,1,1,1,1,1,1,1,1,1,1,1,1,1,1,1,1,1,1,1,1,1,1,1,1,1,1,1,1],"number_of_sets":1,"coherent_direction":[339,339,245,339,339,245,339,245,245,245,339,339,245,339,339,339,339,339,339,245,339,339,339,339,339,339,339,339,245,245,245,339,339,339,245,245,245,339,245,339,245,245,339,339,339,245,339,339,245,339,245,245,245,245,339,339,339,339,339,339,245,245,339,245,339,339,245,245,339,339,339,245,245,339,339,245,245,339,245,339,245,245,339,245,245,245,245,245,245,245,245,245,245,245,245,245,339,245,339,339,339,339,245,245,339,245,245,245,339,245,245,245,245,245,339,245,245,245,245,245,339,339,245,339,339,339,245,339,339,245,339,339,245,339,245,339,339,339,245,339,339,245,245,245,339,245,339,245,245,339,339,245,245,339,339,245,245,339,339,245,339,339,245,245,339,339,245,245,339,339,245,245,339,339,245,245,245,339,245,245,339,339,245,245,245,245,339,339,339,339,339,339,339,245,245,245,339,339,245,245],"coherence":1,"opposite_coherence":0,"dot_radius":2,"dot_side_length":1,"dot_life":-1,"move_distance":1,"aperture_width":300,"aperture_height":300,"dot_color":["white","white","black","white","white","black","white","black","black","black","white","white","black","white","white","white","white","white","white","black","white","white","white","white","white","white","white","white","black","black","black","white","white","white","black","black","black","white","black","white","black","black","white","white","white","black","white","white","black","white","black","black","black","black","white","white","white","white","white","white","black","black","white","black","white","white","black","black","white","white","white","black","black","white","white","black","black","white","black","white","black","black","white","black","black","black","black","black","black","black","black","black","black","black","black","black","white","black","white","white","white","white","black","black","white","black","black","black","white","black","black","black","black","black","white","black","black","black","black","black","white","white","black","white","white","white","black","white","white","black","white","white","black","white","black","white","white","white","black","white","white","black","black","black","white","black","white","black","black","white","white","black","black","white","white","black","black","white","white","black","white","white","black","black","white","white","black","black","white","white","black","black","white","white","black","black","black","white","black","black","white","white","black","black","black","black","white","white","white","white","white","white","white","black","black","black","white","white","black","black"],"dot_shape":"circle","background_color":"#AAA","RDK_type":3,"aperture_type":2,"reinsert_type":2,"frame_rate":16.7,"frame_rate_array":[9,16,16,17,17,16,17,17,16,17,17,17,17,17,17,16,17,17,17,17,17,17,16,16,17,17,17,17,17,16,17,17,17,17,16,17,16,17,16,17,17,16,17,17,16,16,17,16,17,17,16,17,16,17,17,17,16,17,16,17,17,17,16,17,16,19,15,16,16,17,17,17,17,17,17,17,16,17,17,16,17,17,17,17,17,17,17,17,17,17,17,17,17,17,17,17,17,17,17,17,17,17,17,17,17,17,17,17,17,17,17,17,16,17,17,17,16,17,17,16],"number_of_frames":120,"aperture_center_x":746,"aperture_center_y":420,"fixation_cross":true,"fixation_cross_width":15,"fixation_cross_height":15,"fixation_cross_color":"#111","fixation_cross_thickness":1,"border":true,"border_thickness":2,"border_color":"transparent","canvas_width":1492,"canvas_height":840,"trial_type":"rdk","trial_index":92,"plugin_version":"2.0.0","time_elapsed":317573},{"rt":4338,"stimulus":"\n        <div class=\"response-container\">\n          <div class=\"response-instruction\">\n            <p>rotate the bar by using the left and right arrow keys.</p>\n            <p>when you are determined, press the Enter key.</p>\n          </div>\n          <div class=\"response-circle\">\n            <div class=\"response-fixation\"></div>\n            <div id=\"bar\" class=\"rotating-bar\"></div>\n          </div>\n        </div>\n      ","response":"Enter","trial_type":"html-keyboard-response","trial_index":93,"plugin_version":"2.1.0","time_elapsed":321912,"random_initial_angle":340,"response_angle_css":208,"response_angle_rdk":242,"angular_error_target":-97,"angular_error_distractor":-3,"target_direction":339,"target_group":"white","reward_points":0},{"rt":null,"stimulus":"\n          <p style=\"color: #FF3333;\">Your reward: 0 points</p>\n        ","response":null,"trial_type":"html-keyboard-response","trial_index":94,"plugin_version":"2.1.0","time_elapsed":323920},{"rt":null,"stimulus":"<div class=\"fixation\" style=\"font-size: 60px;\">+</div>","response":null,"trial_type":"html-keyboard-response","trial_index":95,"plugin_version":"2.1.0","time_elapsed":324929},{"phase":"learning-awareness","target_group":"black","condition_label":"B_H_vs_W_L_rep13","target_direction":32,"distractor_direction":149,"session_rotation":298,"rt":-1,"response":"","correct":false,"choices":"ALL_KEYS","correct_choice":["a"],"trial_duration":2000,"flip_timestamps":[],"response_ends_trial":false,"number_of_apertures":200,"number_of_dots":[1,1,1,1,1,1,1,1,1,1,1,1,1,1,1,1,1,1,1,1,1,1,1,1,1,1,1,1,1,1,1,1,1,1,1,1,1,1,1,1,1,1,1,1,1,1,1,1,1,1,1,1,1,1,1,1,1,1,1,1,1,1,1,1,1,1,1,1,1,1,1,1,1,1,1,1,1,1,1,1,1,1,1,1,1,1,1,1,1,1,1,1,1,1,1,1,1,1,1,1,1,1,1,1,1,1,1,1,1,1,1,1,1,1,1,1,1,1,1,1,1,1,1,1,1,1,1,1,1,1,1,1,1,1,1,1,1,1,1,1,1,1,1,1,1,1,1,1,1,1,1,1,1,1,1,1,1,1,1,1,1,1,1,1,1,1,1,1,1,1,1,1,1,1,1,1,1,1,1,1,1,1,1,1,1,1,1,1,1,1,1,1,1,1,1,1,1,1,1,1],"number_of_sets":1,"coherent_direction":[149,149,32,32,32,149,32,149,32,149,32,32,32,32,32,149,32,32,149,149,32,149,32,149,149,149,32,149,149,149,149,149,149,32,32,149,149,32,149,32,32,32,149,149,32,149,32,32,32,149,149,32,149,32,32,32,149,149,149,32,149,32,32,32,32,149,32,149,32,149,149,149,149,149,149,32,32,149,32,149,149,149,32,149,149,149,32,32,32,149,32,149,32,32,32,149,149,32,32,149,149,32,149,149,32,149,149,32,149,149,149,149,149,32,32,32,149,149,32,149,32,149,149,32,32,32,149,32,149,149,32,149,149,149,149,149,149,149,149,149,32,149,32,32,149,149,32,149,32,32,32,32,149,32,32,32,32,32,32,32,149,149,32,32,32,32,149,32,32,32,149,32,32,32,32,149,149,149,149,32,32,149,149,149,149,32,149,149,32,32,149,32,32,149,32,32,32,32,32,149],"coherence":1,"opposite_coherence":0,"dot_radius":2,"dot_side_length":1,"dot_life":-1,"move_distance":1,"aperture_width":300,"aperture_height":300,"dot_color":["white","white","black","black","black","white","black","white","black","white","black","black","black","black","black","white","black","black","white","white","black","white","black","white","white","white","black","white","white","white","white","white","white","black","black","white","white","black","white","black","black","black","white","white","black","white","black","black","black","white","white","black","white","black","black","black","white","white","white","black","white","black","black","black","black","white","black","white","black","white","white","white","white","white","white","black","black","white","black","white","white","white","black","white","white","white","black","black","black","white","black","white","black","black","black","white","white","black","black","white","white","black","white","white","black","white","white","black","white","white","white","white","white","black","black","black","white","white","black","white","black","white","white","black","black","black","white","black","white","white","black","white","white","white","white","white","white","white","white","white","black","white","black","black","white","white","black","white","black","black","black","black","white","black","black","black","black","black","black","black","white","white","black","black","black","black","white","black","black","black","white","black","black","black","black","white","white","white","white","black","black","white","white","white","white","black","white","white","black","black","white","black","black","white","black","black","black","black","black","white"],"dot_shape":"circle","background_color":"#AAA","RDK_type":3,"aperture_type":2,"reinsert_type":2,"frame_rate":16.636363636363637,"frame_rate_array":[11,17,17,17,15,17,17,17,17,17,16,17,17,17,16,17,16,17,16,17,17,17,17,16,17,16,17,17,16,17,17,17,16,17,17,16,17,16,17,17,16,17,17,17,16,17,17,16,17,17,16,17,16,17,17,17,16,17,16,17,16,17,17,17,17,17,17,16,16,18,16,17,16,17,16,17,16,17,17,17,16,17,17,16,17,17,17,16,17,16,17,17,16,16,17,16,17,16,17,17,16,17,17,17,17,17,17,17,17,19,15,17,16,17,16,17,16,17,17,16,17],"number_of_frames":121,"aperture_center_x":746,"aperture_center_y":420,"fixation_cross":true,"fixation_cross_width":15,"fixation_cross_height":15,"fixation_cross_color":"#111","fixation_cross_thickness":1,"border":true,"border_thickness":2,"border_color":"transparent","canvas_width":1492,"canvas_height":840,"trial_type":"rdk","trial_index":96,"plugin_version":"2.0.0","time_elapsed":326943},{"rt":6902,"stimulus":"\n        <div class=\"response-container\">\n          <div class=\"response-instruction\">\n            <p>rotate the bar by using the left and right arrow keys.</p>\n            <p>when you are determined, press the Enter key.</p>\n          </div>\n          <div class=\"response-circle\">\n            <div class=\"response-fixation\"></div>\n            <div id=\"bar\" class=\"rotating-bar\"></div>\n          </div>\n        </div>\n      ","response":"Enter","trial_type":"html-keyboard-response","trial_index":97,"plugin_version":"2.1.0","time_elapsed":333845,"random_initial_angle":179,"response_angle_css":-51,"response_angle_rdk":141,"angular_error_target":109,"angular_error_distractor":-8,"target_direction":32,"target_group":"black","reward_points":0},{"rt":null,"stimulus":"\n          <p style=\"color: #FF3333;\">Your reward: 0 points</p>\n        ","response":null,"trial_type":"html-keyboard-response","trial_index":98,"plugin_version":"2.1.0","time_elapsed":335858},{"rt":null,"stimulus":"<div class=\"fixation\" style=\"font-size: 60px;\">+</div>","response":null,"trial_type":"html-keyboard-response","trial_index":99,"plugin_version":"2.1.0","time_elapsed":336861},{"phase":"learning-awareness","target_group":"white","condition_label":"W_H_vs_B_L_rep6","target_direction":337,"distractor_direction":220,"session_rotation":298,"rt":-1,"response":"","correct":false,"choices":"ALL_KEYS","correct_choice":["a"],"trial_duration":2000,"flip_timestamps":[],"response_ends_trial":false,"number_of_apertures":200,"number_of_dots":[1,1,1,1,1,1,1,1,1,1,1,1,1,1,1,1,1,1,1,1,1,1,1,1,1,1,1,1,1,1,1,1,1,1,1,1,1,1,1,1,1,1,1,1,1,1,1,1,1,1,1,1,1,1,1,1,1,1,1,1,1,1,1,1,1,1,1,1,1,1,1,1,1,1,1,1,1,1,1,1,1,1,1,1,1,1,1,1,1,1,1,1,1,1,1,1,1,1,1,1,1,1,1,1,1,1,1,1,1,1,1,1,1,1,1,1,1,1,1,1,1,1,1,1,1,1,1,1,1,1,1,1,1,1,1,1,1,1,1,1,1,1,1,1,1,1,1,1,1,1,1,1,1,1,1,1,1,1,1,1,1,1,1,1,1,1,1,1,1,1,1,1,1,1,1,1,1,1,1,1,1,1,1,1,1,1,1,1,1,1,1,1,1,1,1,1,1,1,1,1],"number_of_sets":1,"coherent_direction":[337,337,220,337,220,220,220,220,337,220,337,337,220,220,220,220,220,337,220,220,220,337,337,220,220,337,220,337,220,337,337,337,337,220,220,337,337,220,337,220,220,337,220,220,220,337,337,337,220,220,220,337,337,337,337,337,337,337,337,220,337,337,337,337,220,220,220,220,220,220,220,337,337,220,220,220,337,337,220,220,337,337,220,337,220,337,337,337,220,220,337,220,337,337,337,337,337,220,337,220,220,220,337,220,220,220,337,337,337,337,220,337,220,220,220,220,220,337,337,337,337,337,220,337,220,337,337,337,220,220,220,220,220,220,337,337,337,220,220,337,337,220,337,220,337,337,337,337,220,220,337,220,337,220,220,337,337,220,220,337,337,337,220,220,220,337,337,220,337,337,220,220,337,220,220,337,220,337,337,220,337,337,337,220,220,337,220,337,220,337,337,220,337,337,220,220,220,220,220,220],"coherence":1,"opposite_coherence":0,"dot_radius":2,"dot_side_length":1,"dot_life":-1,"move_distance":1,"aperture_width":300,"aperture_height":300,"dot_color":["white","white","black","white","black","black","black","black","white","black","white","white","black","black","black","black","black","white","black","black","black","white","white","black","black","white","black","white","black","white","white","white","white","black","black","white","white","black","white","black","black","white","black","black","black","white","white","white","black","black","black","white","white","white","white","white","white","white","white","black","white","white","white","white","black","black","black","black","black","black","black","white","white","black","black","black","white","white","black","black","white","white","black","white","black","white","white","white","black","black","white","black","white","white","white","white","white","black","white","black","black","black","white","black","black","black","white","white","white","white","black","white","black","black","black","black","black","white","white","white","white","white","black","white","black","white","white","white","black","black","black","black","black","black","white","white","white","black","black","white","white","black","white","black","white","white","white","white","black","black","white","black","white","black","black","white","white","black","black","white","white","white","black","black","black","white","white","black","white","white","black","black","white","black","black","white","black","white","white","black","white","white","white","black","black","white","black","white","black","white","white","black","white","white","black","black","black","black","black","black"],"dot_shape":"circle","background_color":"#AAA","RDK_type":3,"aperture_type":2,"reinsert_type":2,"frame_rate":16.68595041322314,"frame_rate_array":[7,17,15,17,16,17,16,17,16,17,17,18,16,17,17,16,17,17,17,17,17,16,17,17,17,16,17,16,18,16,17,17,16,18,16,17,16,17,17,17,17,17,16,17,17,17,17,16,18,16,17,17,17,16,17,16,17,17,17,17,18,16,16,17,17,16,18,16,18,16,16,17,16,17,17,17,16,17,17,17,16,17,16,17,17,17,17,17,18,16,17,18,16,17,16,16,17,16,17,17,17,17,17,16,18,16,17,17,16,17,17,16,17,18,16,17,17,17,17,17,17],"number_of_frames":121,"aperture_center_x":746,"aperture_center_y":420,"fixation_cross":true,"fixation_cross_width":15,"fixation_cross_height":15,"fixation_cross_color":"#111","fixation_cross_thickness":1,"border":true,"border_thickness":2,"border_color":"transparent","canvas_width":1492,"canvas_height":840,"trial_type":"rdk","trial_index":100,"plugin_version":"2.0.0","time_elapsed":338871},{"rt":2844,"stimulus":"\n        <div class=\"response-container\">\n          <div class=\"response-instruction\">\n            <p>rotate the bar by using the left and right arrow keys.</p>\n            <p>when you are determined, press the Enter key.</p>\n          </div>\n          <div class=\"response-circle\">\n            <div class=\"response-fixation\"></div>\n            <div id=\"bar\" class=\"rotating-bar\"></div>\n          </div>\n        </div>\n      ","response":"Enter","trial_type":"html-keyboard-response","trial_index":101,"plugin_version":"2.1.0","time_elapsed":341716,"random_initial_angle":184,"response_angle_css":218,"response_angle_rdk":232,"angular_error_target":-105,"angular_error_distractor":12,"target_direction":337,"target_group":"white","reward_points":0},{"rt":null,"stimulus":"\n          <p style=\"color: #FF3333;\">Your reward: 0 points</p>\n        ","response":null,"trial_type":"html-keyboard-response","trial_index":102,"plugin_version":"2.1.0","time_elapsed":343717},{"rt":null,"stimulus":"<div class=\"fixation\" style=\"font-size: 60px;\">+</div>","response":null,"trial_type":"html-keyboard-response","trial_index":103,"plugin_version":"2.1.0","time_elapsed":344725},{"phase":"learning-awareness","target_group":"white","condition_label":"W_H_vs_B_L_rep14","target_direction":326,"distractor_direction":227,"session_rotation":298,"rt":-1,"response":"","correct":false,"choices":"ALL_KEYS","correct_choice":["a"],"trial_duration":2000,"flip_timestamps":[],"response_ends_trial":false,"number_of_apertures":200,"number_of_dots":[1,1,1,1,1,1,1,1,1,1,1,1,1,1,1,1,1,1,1,1,1,1,1,1,1,1,1,1,1,1,1,1,1,1,1,1,1,1,1,1,1,1,1,1,1,1,1,1,1,1,1,1,1,1,1,1,1,1,1,1,1,1,1,1,1,1,1,1,1,1,1,1,1,1,1,1,1,1,1,1,1,1,1,1,1,1,1,1,1,1,1,1,1,1,1,1,1,1,1,1,1,1,1,1,1,1,1,1,1,1,1,1,1,1,1,1,1,1,1,1,1,1,1,1,1,1,1,1,1,1,1,1,1,1,1,1,1,1,1,1,1,1,1,1,1,1,1,1,1,1,1,1,1,1,1,1,1,1,1,1,1,1,1,1,1,1,1,1,1,1,1,1,1,1,1,1,1,1,1,1,1,1,1,1,1,1,1,1,1,1,1,1,1,1,1,1,1,1,1,1],"number_of_sets":1,"coherent_direction":[227,326,227,326,326,326,326,227,227,326,326,227,326,326,227,326,326,227,326,227,326,227,326,227,326,227,326,227,227,326,326,227,326,227,227,227,326,227,227,227,326,326,326,326,326,227,227,326,326,326,326,227,326,227,326,227,326,326,227,227,326,227,227,227,227,227,227,326,326,227,227,227,227,326,227,227,227,227,326,227,227,326,326,326,227,227,227,326,326,326,227,227,326,227,227,227,227,326,227,227,227,227,326,227,326,227,326,326,326,227,227,326,326,227,326,326,227,227,227,326,227,326,227,227,326,326,326,326,227,227,326,227,227,326,227,227,326,326,227,326,227,326,227,227,326,326,326,326,326,326,326,326,326,326,326,227,326,227,326,227,227,326,227,326,227,227,227,227,227,326,227,326,326,326,227,227,326,326,326,326,326,326,227,326,326,326,326,227,326,227,326,326,326,227,227,227,227,227,227,227],"coherence":1,"opposite_coherence":0,"dot_radius":2,"dot_side_length":1,"dot_life":-1,"move_distance":1,"aperture_width":300,"aperture_height":300,"dot_color":["black","white","black","white","white","white","white","black","black","white","white","black","white","white","black","white","white","black","white","black","white","black","white","black","white","black","white","black","black","white","white","black","white","black","black","black","white","black","black","black","white","white","white","white","white","black","black","white","white","white","white","black","white","black","white","black","white","white","black","black","white","black","black","black","black","black","black","white","white","black","black","black","black","white","black","black","black","black","white","black","black","white","white","white","black","black","black","white","white","white","black","black","white","black","black","black","black","white","black","black","black","black","white","black","white","black","white","white","white","black","black","white","white","black","white","white","black","black","black","white","black","white","black","black","white","white","white","white","black","black","white","black","black","white","black","black","white","white","black","white","black","white","black","black","white","white","white","white","white","white","white","white","white","white","white","black","white","black","white","black","black","white","black","white","black","black","black","black","black","white","black","white","white","white","black","black","white","white","white","white","white","white","black","white","white","white","white","black","white","black","white","white","white","black","black","black","black","black","black","black"],"dot_shape":"circle","background_color":"#AAA","RDK_type":3,"aperture_type":2,"reinsert_type":2,"frame_rate":16.66115702479339,"frame_rate_array":[8,16,17,16,17,17,17,17,17,16,17,17,17,17,17,17,17,17,17,16,17,16,17,17,16,17,17,17,16,17,16,17,17,17,17,16,17,16,17,16,17,17,17,17,16,17,17,16,17,17,17,17,18,16,16,17,17,17,17,16,17,17,17,16,17,16,17,18,16,16,17,17,17,17,16,18,16,17,16,17,17,16,18,16,17,16,17,17,17,18,15,17,17,16,17,17,17,17,16,17,17,17,16,17,17,16,16,17,17,16,17,16,17,16,17,17,17,16,17,17,17],"number_of_frames":121,"aperture_center_x":746,"aperture_center_y":420,"fixation_cross":true,"fixation_cross_width":15,"fixation_cross_height":15,"fixation_cross_color":"#111","fixation_cross_thickness":1,"border":true,"border_thickness":2,"border_color":"transparent","canvas_width":1492,"canvas_height":840,"trial_type":"rdk","trial_index":104,"plugin_version":"2.0.0","time_elapsed":346735},{"rt":4668,"stimulus":"\n        <div class=\"response-container\">\n          <div class=\"response-instruction\">\n            <p>rotate the bar by using the left and right arrow keys.</p>\n            <p>when you are determined, press the Enter key.</p>\n          </div>\n          <div class=\"response-circle\">\n            <div class=\"response-fixation\"></div>\n            <div id=\"bar\" class=\"rotating-bar\"></div>\n          </div>\n        </div>\n      ","response":"Enter","trial_type":"html-keyboard-response","trial_index":105,"plugin_version":"2.1.0","time_elapsed":351404,"random_initial_angle":162,"response_angle_css":119,"response_angle_rdk":331,"angular_error_target":5,"angular_error_distractor":104,"target_direction":326,"target_group":"white","reward_points":9},{"rt":null,"stimulus":"\n          <p style=\"color: #00FF00;\">Your reward: 9 points</p>\n        ","response":null,"trial_type":"html-keyboard-response","trial_