[{"rt":17786,"stimulus":"Welcome to the experiment. Press any key to begin.","response":" ","trial_type":"html-keyboard-response","trial_index":0,"plugin_version":"2.1.0","time_elapsed":17791},{"rt":136128,"stimulus":"\n        <div class=\"instructions-container\">\n          <h2>Instructions</h2>\n\n          <p>\n          In this experiment, you will see <strong>two Random Dot Kinematograms (RDKs)</strong> displayed simultaneously.\n          </p>\n\n          <p>\n          An RDK is a visual stimulus consisting of many small dots that move coherently in a single direction. \n          In this experiment, the dots will be either <strong>white</strong> or <strong>black</strong> \n          (see the short demo below for an example of an RDK stimulus).\n          </p>\n\n          <p>\n          On each trial, the two RDKs will move in different directions. \n          Your task is to decide <strong>which RDK appears to contain more dots</strong>.\n          </p>\n\n          <p>\n          The RDK that you judge to have more dots is called the <strong>target RDK</strong>. \n          For example, if the white RDK appears to have more dots than the black RDK, \n          you should report the motion direction of the white RDK.\n          </p>\n\n          <p>\n          After viewing the RDKs, you will rotate a bar to indicate the perceived direction of the target RDK \n          using the <strong>left</strong> and <strong>right arrow keys</strong>. \n          Press <strong>Enter</strong> when you are satisfied with your response.\n          </p>\n\n          <p>\n          You will receive points based on the <strong>accuracy of your response</strong>, \n          and your final <strong>bonus reward</strong> may depend on your overall performance. \n          Please try to respond as accurately as possible.\n          </p>\n\n          <p>\n          You will first complete <strong>16 practice trials</strong>. \n          Press the <strong>Enter</strong> key to start the practice phase.\n          </p>\n\n          <canvas id=\"instruction-demo-rdk\" width=\"200\" height=\"200\"style=\"display:block;margin:12px auto; border-radius: 50%;\"></canvas>\n        </div>\n      ","response":"Enter","trial_type":"html-keyboard-response","trial_index":1,"plugin_version":"2.1.0","time_elapsed":153923},{"rt":null,"stimulus":"<div class=\"fixation\" style=\"font-size: 60px;\">+</div>","response":null,"trial_type":"html-keyboard-response","trial_index":2,"plugin_version":"2.1.0","time_elapsed":154938},{"target_group":"white","target_index":0,"condition_label":"practice","rt":-1,"response":"","correct":false,"choices":"ALL_KEYS","correct_choice":["a"],"trial_duration":2000,"flip_timestamps":[],"response_ends_trial":false,"number_of_apertures":2,"number_of_dots":[100,74],"number_of_sets":1,"coherent_direction":[286,112],"coherence":1,"opposite_coherence":0,"dot_radius":2,"dot_side_length":1,"dot_life":-1,"move_distance":1,"aperture_width":300,"aperture_height":300,"dot_color":["white","black"],"dot_shape":"circle","background_color":"#AAA","RDK_type":3,"aperture_type":2,"reinsert_type":2,"frame_rate":18.345454545454544,"frame_rate_array":[3,41,181,16,13,17,18,17,16,17,16,17,17,16,17,18,17,16,17,17,17,16,16,17,16,17,16,18,16,17,16,17,17,16,17,16,16,17,18,16,17,16,17,18,18,17,17,17,16,17,16,16,18,16,16,18,16,17,17,17,17,17,17,16,17,16,17,16,18,16,17,16,18,17,17,17,16,17,17,16,17,19,15,17,15,16,17,18,15,18,16,17,17,17,15,17,16,18,16,16,17,16,17,18,17,16,16,18,15,25],"number_of_frames":110,"aperture_center_x":768,"aperture_center_y":432,"fixation_cross":true,"fixation_cross_width":15,"fixation_cross_height":15,"fixation_cross_color":"#111","fixation_cross_thickness":1,"border":true,"border_thickness":2,"border_color":"transparent","canvas_width":1536,"canvas_height":864,"trial_type":"rdk","trial_index":3,"plugin_version":"2.0.0","time_elapsed":156957,"target_direction":286,"distractor_direction":112},{"rt":16549,"stimulus":"\n        <div class=\"response-container\">\n          <div class=\"response-instruction\">\n            <p>rotate the bar by using the left and right arrow keys.</p>\n            <p>when you are determined, press the Enter key.</p>\n          </div>\n          <div class=\"response-circle\">\n            <div class=\"response-fixation\"></div>\n            <div id=\"bar\" class=\"rotating-bar\"></div>\n          </div>\n        </div>\n      ","response":"Enter","trial_type":"html-keyboard-response","trial_index":4,"plugin_version":"2.1.0","time_elapsed":173507,"random_initial_angle":216,"response_angle_css":492,"response_angle_rdk":318,"angular_error_target":32,"angular_error_distractor":-154,"target_direction":286,"target_group":"white","reward_points":3},{"rt":null,"stimulus":"\n          <p style=\"color: #00FF00;\">Your reward: 3 points</p>\n        ","response":null,"trial_type":"html-keyboard-response","trial_index":5,"plugin_version":"2.1.0","time_elapsed":175524},{"rt":null,"stimulus":"<div class=\"fixation\" style=\"font-size: 60px;\">+</div>","response":null,"trial_type":"html-keyboard-response","trial_index":6,"plugin_version":"2.1.0","time_elapsed":176539},{"target_group":"black","target_index":1,"condition_label":"practice","rt":-1,"response":"","correct":false,"choices":"ALL_KEYS","correct_choice":["a"],"trial_duration":2000,"flip_timestamps":[],"response_ends_trial":false,"number_of_apertures":2,"number_of_dots":[79,100],"number_of_sets":1,"coherent_direction":[109,267],"coherence":1,"opposite_coherence":0,"dot_radius":2,"dot_side_length":1,"dot_life":-1,"move_distance":1,"aperture_width":300,"aperture_height":300,"dot_color":["white","black"],"dot_shape":"circle","background_color":"#AAA","RDK_type":3,"aperture_type":2,"reinsert_type":2,"frame_rate":17.059322033898304,"frame_rate_array":[3,21,9,69,28,3,19,17,16,17,17,16,16,18,16,18,17,15,18,17,15,18,16,16,18,16,17,17,16,16,18,15,17,18,16,17,17,15,17,18,16,17,16,18,17,16,17,17,17,16,17,17,16,17,16,17,17,16,17,16,17,17,17,17,17,16,16,18,17,16,17,17,16,16,17,17,16,17,18,17,16,18,17,15,18,17,16,16,17,17,17,15,17,17,16,17,17,16,18,16,16,17,18,15,18,17,15,18,17,15,17,16,17,18,16,16,17,25],"number_of_frames":118,"aperture_center_x":768,"aperture_center_y":432,"fixation_cross":true,"fixation_cross_width":15,"fixation_cross_height":15,"fixation_cross_color":"#111","fixation_cross_thickness":1,"border":true,"border_thickness":2,"border_color":"transparent","canvas_width":1536,"canvas_height":864,"trial_type":"rdk","trial_index":7,"plugin_version":"2.0.0","time_elapsed":178554,"target_direction":267,"distractor_direction":109},{"rt":6101,"stimulus":"\n        <div class=\"response-container\">\n          <div class=\"response-instruction\">\n            <p>rotate the bar by using the left and right arrow keys.</p>\n            <p>when you are determined, press the Enter key.</p>\n          </div>\n          <div class=\"response-circle\">\n            <div class=\"response-fixation\"></div>\n            <div id=\"bar\" class=\"rotating-bar\"></div>\n          </div>\n        </div>\n      ","response":"Enter","trial_type":"html-keyboard-response","trial_index":8,"plugin_version":"2.1.0","time_elapsed":184656,"random_initial_angle":238,"response_angle_css":172,"response_angle_rdk":278,"angular_error_target":11,"angular_error_distractor":169,"target_direction":267,"target_group":"black","reward_points":7},{"rt":null,"stimulus":"\n          <p style=\"color: #00FF00;\">Your reward: 7 points</p>\n        ","response":null,"trial_type":"html-keyboard-response","trial_index":9,"plugin_version":"2.1.0","time_elapsed":186664},{"rt":null,"stimulus":"<div class=\"fixation\" style=\"font-size: 60px;\">+</div>","response":null,"trial_type":"html-keyboard-response","trial_index":10,"plugin_version":"2.1.0","time_elapsed":187680},{"target_group":"black","target_index":1,"condition_label":"practice","rt":-1,"response":"","correct":false,"choices":"ALL_KEYS","correct_choice":["a"],"trial_duration":2000,"flip_timestamps":[],"response_ends_trial":false,"number_of_apertures":2,"number_of_dots":[56,100],"number_of_sets":1,"coherent_direction":[200,40],"coherence":1,"opposite_coherence":0,"dot_radius":2,"dot_side_length":1,"dot_life":-1,"move_distance":1,"aperture_width":300,"aperture_height":300,"dot_color":["white","black"],"dot_shape":"circle","background_color":"#AAA","RDK_type":3,"aperture_type":2,"reinsert_type":2,"frame_rate":16.636363636363637,"frame_rate_array":[3,21,19,8,20,18,16,16,17,16,17,17,17,17,16,16,17,18,16,17,16,17,18,16,17,17,16,16,18,17,16,17,17,17,16,18,16,16,17,17,17,16,18,16,17,17,16,17,17,16,18,16,16,18,15,17,17,16,18,16,16,18,16,18,16,17,17,15,16,18,17,17,17,16,17,15,18,15,17,17,16,18,16,16,18,16,17,17,16,18,18,17,18,16,17,17,15,17,16,18,16,18,16,17,16,17,16,16,18,17,17,17,16,16,17,16,17,16,18,17,18],"number_of_frames":121,"aperture_center_x":768,"aperture_center_y":432,"fixation_cross":true,"fixation_cross_width":15,"fixation_cross_height":15,"fixation_cross_color":"#111","fixation_cross_thickness":1,"border":true,"border_thickness":2,"border_color":"transparent","canvas_width":1536,"canvas_height":864,"trial_type":"rdk","trial_index":11,"plugin_version":"2.0.0","time_elapsed":189701,"target_direction":40,"distractor_direction":200},{"rt":6856,"stimulus":"\n        <div class=\"response-container\">\n          <div class=\"response-instruction\">\n            <p>rotate the bar by using the left and right arrow keys.</p>\n            <p>when you are determined, press the Enter key.</p>\n          </div>\n          <div class=\"response-circle\">\n            <div class=\"response-fixation\"></div>\n            <div id=\"bar\" class=\"rotating-bar\"></div>\n          </div>\n        </div>\n      ","response":"Enter","trial_type":"html-keyboard-response","trial_index":12,"plugin_version":"2.1.0","time_elapsed":196558,"random_initial_angle":271,"response_angle_css":419,"response_angle_rdk":31,"angular_error_target":-9,"angular_error_distractor":-169,"target_direction":40,"target_group":"black","reward_points":8},{"rt":null,"stimulus":"\n          <p style=\"color: #00FF00;\">Your reward: 8 points</p>\n        ","response":null,"trial_type":"html-keyboard-response","trial_index":13,"plugin_version":"2.1.0","time_elapsed":198565},{"rt":null,"stimulus":"<div class=\"fixation\" style=\"font-size: 60px;\">+</div>","response":null,"trial_type":"html-keyboard-response","trial_index":14,"plugin_version":"2.1.0","time_elapsed":199579},{"target_group":"white","target_index":0,"condition_label":"practice","rt":-1,"response":"","correct":false,"choices":"ALL_KEYS","correct_choice":["a"],"trial_duration":2000,"flip_timestamps":[],"response_ends_trial":false,"number_of_apertures":2,"number_of_dots":[100,100],"number_of_sets":1,"coherent_direction":[225,70],"coherence":1,"opposite_coherence":0,"dot_radius":2,"dot_side_length":1,"dot_life":-1,"move_distance":1,"aperture_width":300,"aperture_height":300,"dot_color":["white","black"],"dot_shape":"circle","background_color":"#AAA","RDK_type":3,"aperture_type":2,"reinsert_type":2,"frame_rate":16.658333333333335,"frame_rate_array":[8,17,21,15,17,15,16,18,16,17,18,15,16,18,16,16,18,17,15,18,15,16,18,16,18,17,17,17,17,15,17,18,17,16,18,16,16,17,16,18,17,17,16,16,16,18,16,18,16,18,15,18,16,17,17,16,18,16,17,16,18,16,16,17,15,18,16,18,16,18,15,17,16,17,17,17,17,16,16,17,16,18,17,16,17,17,15,18,17,17,16,18,16,16,18,16,16,17,16,17,16,17,17,16,16,18,15,18,17,16,18,17,15,18,17,16,18,17,16,18],"number_of_frames":120,"aperture_center_x":768,"aperture_center_y":432,"fixation_cross":true,"fixation_cross_width":15,"fixation_cross_height":15,"fixation_cross_color":"#111","fixation_cross_thickness":1,"border":true,"border_thickness":2,"border_color":"transparent","canvas_width":1536,"canvas_height":864,"trial_type":"rdk","trial_index":15,"plugin_version":"2.0.0","time_elapsed":201603,"target_direction":225,"distractor_direction":70},{"rt":3812,"stimulus":"\n        <div class=\"response-container\">\n          <div class=\"response-instruction\">\n            <p>rotate the bar by using the left and right arrow keys.</p>\n            <p>when you are determined, press the Enter key.</p>\n          </div>\n          <div class=\"response-circle\">\n            <div class=\"response-fixation\"></div>\n            <div id=\"bar\" class=\"rotating-bar\"></div>\n          </div>\n        </div>\n      ","response":"Enter","trial_type":"html-keyboard-response","trial_index":16,"plugin_version":"2.1.0","time_elapsed":205416,"random_initial_angle":83,"response_angle_css":51,"response_angle_rdk":39,"angular_error_target":174,"angular_error_distractor":-31,"target_direction":225,"target_group":"white","reward_points":0},{"rt":null,"stimulus":"\n          <p style=\"color: #FF3333;\">Your reward: 0 points</p>\n        ","response":null,"trial_type":"html-keyboard-response","trial_index":17,"plugin_version":"2.1.0","time_elapsed":207417},{"rt":null,"stimulus":"<div class=\"fixation\" style=\"font-size: 60px;\">+</div>","response":null,"trial_type":"html-keyboard-response","trial_index":18,"plugin_version":"2.1.0","time_elapsed":208426},{"target_group":"black","target_index":1,"condition_label":"practice","rt":-1,"response":"","correct":false,"choices":"ALL_KEYS","correct_choice":["a"],"trial_duration":2000,"flip_timestamps":[],"response_ends_trial":false,"number_of_apertures":2,"number_of_dots":[91,100],"number_of_sets":1,"coherent_direction":[316,194],"coherence":1,"opposite_coherence":0,"dot_radius":2,"dot_side_length":1,"dot_life":-1,"move_distance":1,"aperture_width":300,"aperture_height":300,"dot_color":["white","black"],"dot_shape":"circle","background_color":"#AAA","RDK_type":3,"aperture_type":2,"reinsert_type":2,"frame_rate":16.65289256198347,"frame_rate_array":[4,19,21,12,16,17,17,16,16,17,17,18,17,15,18,16,17,17,18,16,17,17,16,18,17,16,17,18,15,18,16,16,18,16,16,17,17,16,16,18,16,16,18,16,17,17,16,16,18,16,16,18,16,17,18,17,18,17,17,17,16,16,17,18,15,17,17,16,18,16,15,18,17,15,18,17,15,17,17,16,17,18,17,16,15,17,18,16,17,17,16,18,17,16,17,16,17,17,17,18,16,17,16,17,16,18,17,15,17,16,17,18,16,16,18,17,17,17,17,16,17],"number_of_frames":121,"aperture_center_x":768,"aperture_center_y":432,"fixation_cross":true,"fixation_cross_width":15,"fixation_cross_height":15,"fixation_cross_color":"#111","fixation_cross_thickness":1,"border":true,"border_thickness":2,"border_color":"transparent","canvas_width":1536,"canvas_height":864,"trial_type":"rdk","trial_index":19,"plugin_version":"2.0.0","time_elapsed":210448,"target_direction":194,"distractor_direction":316},{"rt":6536,"stimulus":"\n        <div class=\"response-container\">\n          <div class=\"response-instruction\">\n            <p>rotate the bar by using the left and right arrow keys.</p>\n            <p>when you are determined, press the Enter key.</p>\n          </div>\n          <div class=\"response-circle\">\n            <div class=\"response-fixation\"></div>\n            <div id=\"bar\" class=\"rotating-bar\"></div>\n          </div>\n        </div>\n      ","response":"Enter","trial_type":"html-keyboard-response","trial_index":20,"plugin_version":"2.1.0","time_elapsed":216985,"random_initial_angle":209,"response_angle_css":129,"response_angle_rdk":321,"angular_error_target":127,"angular_error_distractor":5,"target_direction":194,"target_group":"black","reward_points":0},{"rt":null,"stimulus":"\n          <p style=\"color: #FF3333;\">Your reward: 0 points</p>\n        ","response":null,"trial_type":"html-keyboard-response","trial_index":21,"plugin_version":"2.1.0","time_elapsed":218988},{"rt":null,"stimulus":"<div class=\"fixation\" style=\"font-size: 60px;\">+</div>","response":null,"trial_type":"html-keyboard-response","trial_index":22,"plugin_version":"2.1.0","time_elapsed":219993},{"target_group":"white","target_index":0,"condition_label":"practice","rt":-1,"response":"","correct":false,"choices":"ALL_KEYS","correct_choice":["a"],"trial_duration":2000,"flip_timestamps":[],"response_ends_trial":false,"number_of_apertures":2,"number_of_dots":[100,50],"number_of_sets":1,"coherent_direction":[228,47],"coherence":1,"opposite_coherence":0,"dot_radius":2,"dot_side_length":1,"dot_life":-1,"move_distance":1,"aperture_width":300,"aperture_height":300,"dot_color":["white","black"],"dot_shape":"circle","background_color":"#AAA","RDK_type":3,"aperture_type":2,"reinsert_type":2,"frame_rate":16.798319327731093,"frame_rate_array":[10,17,39,14,17,18,15,16,17,16,17,17,16,16,17,18,17,16,17,16,15,18,17,16,17,17,16,17,16,18,16,18,16,18,17,17,17,16,18,16,17,16,17,16,18,17,17,16,16,16,18,17,16,17,17,15,17,17,16,17,18,16,17,17,16,17,16,18,16,16,18,16,18,16,17,17,17,15,17,17,16,16,18,16,18,17,15,17,17,17,16,16,18,16,17,16,17,17,15,18,17,17,16,18,15,18,16,17,17,16,17,17,16,17,17,17,16,16,16],"number_of_frames":119,"aperture_center_x":768,"aperture_center_y":432,"fixation_cross":true,"fixation_cross_width":15,"fixation_cross_height":15,"fixation_cross_color":"#111","fixation_cross_thickness":1,"border":true,"border_thickness":2,"border_color":"transparent","canvas_width":1536,"canvas_height":864,"trial_type":"rdk","trial_index":23,"plugin_version":"2.0.0","time_elapsed":222016,"target_direction":228,"distractor_direction":47},{"rt":5174,"stimulus":"\n        <div class=\"response-container\">\n          <div class=\"response-instruction\">\n            <p>rotate the bar by using the left and right arrow keys.</p>\n            <p>when you are determined, press the Enter key.</p>\n          </div>\n          <div class=\"response-circle\">\n            <div class=\"response-fixation\"></div>\n            <div id=\"bar\" class=\"rotating-bar\"></div>\n          </div>\n        </div>\n      ","response":"Enter","trial_type":"html-keyboard-response","trial_index":24,"plugin_version":"2.1.0","time_elapsed":227191,"random_initial_angle":122,"response_angle_css":230,"response_angle_rdk":220,"angular_error_target":-8,"angular_error_distractor":173,"target_direction":228,"target_group":"white","reward_points":8},{"rt":null,"stimulus":"\n          <p style=\"color: #00FF00;\">Your reward: 8 points</p>\n        ","response":null,"trial_type":"html-keyboard-response","trial_index":25,"plugin_version":"2.1.0","time_elapsed":229198},{"rt":null,"stimulus":"<div class=\"fixation\" style=\"font-size: 60px;\">+</div>","response":null,"trial_type":"html-keyboard-response","trial_index":26,"plugin_version":"2.1.0","time_elapsed":230201},{"target_group":"white","target_index":0,"condition_label":"practice","rt":-1,"response":"","correct":false,"choices":"ALL_KEYS","correct_choice":["a"],"trial_duration":2000,"flip_timestamps":[],"response_ends_trial":false,"number_of_apertures":2,"number_of_dots":[100,78],"number_of_sets":1,"coherent_direction":[20,135],"coherence":1,"opposite_coherence":0,"dot_radius":2,"dot_side_length":1,"dot_life":-1,"move_distance":1,"aperture_width":300,"aperture_height":300,"dot_color":["white","black"],"dot_shape":"circle","background_color":"#AAA","RDK_type":3,"aperture_type":2,"reinsert_type":2,"frame_rate":16.666666666666668,"frame_rate_array":[11,16,23,14,17,16,16,18,17,17,16,17,16,17,16,17,18,16,17,16,17,16,17,18,16,18,17,16,17,17,16,18,16,17,17,15,18,16,17,17,17,17,16,17,15,18,16,18,16,17,17,17,15,18,17,15,18,17,15,18,17,15,17,17,16,17,15,17,17,18,16,17,16,16,18,16,18,15,18,17,17,16,16,17,16,17,17,15,17,16,17,18,15,17,17,15,17,16,18,16,17,17,16,16,18,17,16,18,17,16,17,17,17,16,17,16,17,16,18,17],"number_of_frames":120,"aperture_center_x":768,"aperture_center_y":432,"fixation_cross":true,"fixation_cross_width":15,"fixation_cross_height":15,"fixation_cross_color":"#111","fixation_cross_thickness":1,"border":true,"border_thickness":2,"border_color":"transparent","canvas_width":1536,"canvas_height":864,"trial_type":"rdk","trial_index":27,"plugin_version":"2.0.0","time_elapsed":232219,"target_direction":20,"distractor_direction":135},{"rt":4427,"stimulus":"\n        <div class=\"response-container\">\n          <div class=\"response-instruction\">\n            <p>rotate the bar by using the left and right arrow keys.</p>\n            <p>when you are determined, press the Enter key.</p>\n          </div>\n          <div class=\"response-circle\">\n            <div class=\"response-fixation\"></div>\n            <div id=\"bar\" class=\"rotating-bar\"></div>\n          </div>\n        </div>\n      ","response":"Enter","trial_type":"html-keyboard-response","trial_index":28,"plugin_version":"2.1.0","time_elapsed":236647,"random_initial_angle":216,"response_angle_css":319,"response_angle_rdk":131,"angular_error_target":111,"angular_error_distractor":-4,"target_direction":20,"target_group":"white","reward_points":0},{"rt":null,"stimulus":"\n          <p style=\"color: #FF3333;\">Your reward: 0 points</p>\n        ","response":null,"trial_type":"html-keyboard-response","trial_index":29,"plugin_version":"2.1.0","time_elapsed":238655},{"rt":null,"stimulus":"<div class=\"fixation\" style=\"font-size: 60px;\">+</div>","response":null,"trial_type":"html-keyboard-response","trial_index":30,"plugin_version":"2.1.0","time_elapsed":239661},{"target_group":"black","target_index":1,"condition_label":"practice","rt":-1,"response":"","correct":false,"choices":"ALL_KEYS","correct_choice":["a"],"trial_duration":2000,"flip_timestamps":[],"response_ends_trial":false,"number_of_apertures":2,"number_of_dots":[95,100],"number_of_sets":1,"coherent_direction":[305,132],"coherence":1,"opposite_coherence":0,"dot_radius":2,"dot_side_length":1,"dot_life":-1,"move_distance":1,"aperture_width":300,"aperture_height":300,"dot_color":["white","black"],"dot_shape":"circle","background_color":"#AAA","RDK_type":3,"aperture_type":2,"reinsert_type":2,"frame_rate":16.628099173553718,"frame_rate_array":[8,18,15,17,17,17,17,16,16,17,17,17,17,16,17,17,17,16,17,16,17,16,17,17,17,17,16,18,16,17,16,17,17,16,17,16,17,17,17,17,17,16,17,17,16,17,17,17,16,16,17,17,16,17,16,17,17,17,17,16,17,16,17,17,17,17,17,17,17,17,16,17,17,17,17,16,17,16,17,17,17,16,17,16,17,17,17,17,17,17,16,17,16,17,17,17,16,17,16,17,17,16,17,16,17,17,16,16,17,17,17,17,16,16,17,17,17,17,16,17,16],"number_of_frames":121,"aperture_center_x":768,"aperture_center_y":432,"fixation_cross":true,"fixation_cross_width":15,"fixation_cross_height":15,"fixation_cross_color":"#111","fixation_cross_thickness":1,"border":true,"border_thickness":2,"border_color":"transparent","canvas_width":1536,"canvas_height":864,"trial_type":"rdk","trial_index":31,"plugin_version":"2.0.0","time_elapsed":241685,"target_direction":132,"distractor_direction":305},{"rt":2682,"stimulus":"\n        <div class=\"response-container\">\n          <div class=\"response-instruction\">\n            <p>rotate the bar by using the left and right arrow keys.</p>\n            <p>when you are determined, press the Enter key.</p>\n          </div>\n          <div class=\"response-circle\">\n            <div class=\"response-fixation\"></div>\n            <div id=\"bar\" class=\"rotating-bar\"></div>\n          </div>\n        </div>\n      ","response":"Enter","trial_type":"html-keyboard-response","trial_index":32,"plugin_version":"2.1.0","time_elapsed":244368,"random_initial_angle":302,"response_angle_css":311,"response_angle_rdk":139,"angular_error_target":7,"angular_error_distractor":-166,"target_direction":132,"target_group":"black","reward_points":8},{"rt":null,"stimulus":"\n          <p style=\"color: #00FF00;\">Your reward: 8 points</p>\n        ","response":null,"trial_type":"html-keyboard-response","trial_index":33,"plugin_version":"2.1.0","time_elapsed":246373},{"rt":null,"stimulus":"<div class=\"fixation\" style=\"font-size: 60px;\">+</div>","response":null,"trial_type":"html-keyboard-response","trial_index":34,"plugin_version":"2.1.0","time_elapsed":247389},{"target_group":"white","target_index":0,"condition_label":"practice","rt":-1,"response":"","correct":false,"choices":"ALL_KEYS","correct_choice":["a"],"trial_duration":2000,"flip_timestamps":[],"response_ends_trial":false,"number_of_apertures":2,"number_of_dots":[100,50],"number_of_sets":1,"coherent_direction":[185,18],"coherence":1,"opposite_coherence":0,"dot_radius":2,"dot_side_length":1,"dot_life":-1,"move_distance":1,"aperture_width":300,"aperture_height":300,"dot_color":["white","black"],"dot_shape":"circle","background_color":"#AAA","RDK_type":3,"aperture_type":2,"reinsert_type":2,"frame_rate":16.677685950413224,"frame_rate_array":[8,17,31,8,13,17,17,16,17,17,18,16,17,16,17,16,16,18,16,17,17,16,17,18,15,18,18,16,16,17,16,17,16,17,17,16,17,17,18,15,17,16,16,17,17,17,16,17,16,16,16,17,18,16,17,17,16,17,17,17,17,16,16,18,17,17,16,16,17,17,18,15,17,17,16,17,16,17,16,17,18,16,17,17,16,18,16,17,16,17,18,16,17,17,16,19,16,15,18,17,17,17,17,17,15,17,17,17,17,17,17,17,16,16,17,16,18,17,16,17,18],"number_of_frames":121,"aperture_center_x":768,"aperture_center_y":432,"fixation_cross":true,"fixation_cross_width":15,"fixation_cross_height":15,"fixation_cross_color":"#111","fixation_cross_thickness":1,"border":true,"border_thickness":2,"border_color":"transparent","canvas_width":1536,"canvas_height":864,"trial_type":"rdk","trial_index":35,"plugin_version":"2.0.0","time_elapsed":249410,"target_direction":185,"distractor_direction":18},{"rt":5129,"stimulus":"\n        <div class=\"response-container\">\n          <div class=\"response-instruction\">\n            <p>rotate the bar by using the left and right arrow keys.</p>\n            <p>when you are determined, press the Enter key.</p>\n          </div>\n          <div class=\"response-circle\">\n            <div class=\"response-fixation\"></div>\n            <div id=\"bar\" class=\"rotating-bar\"></div>\n          </div>\n        </div>\n      ","response":"Enter","trial_type":"html-keyboard-response","trial_index":36,"plugin_version":"2.1.0","time_elapsed":254539,"random_initial_angle":7,"response_angle_css":-111,"response_angle_rdk":201,"angular_error_target":16,"angular_error_distractor":-177,"target_direction":185,"target_group":"white","reward_points":6},{"rt":null,"stimulus":"\n          <p style=\"color: #00FF00;\">Your reward: 6 points</p>\n        ","response":null,"trial_type":"html-keyboard-response","trial_index":37,"plugin_version":"2.1.0","time_elapsed":256545},{"rt":null,"stimulus":"<div class=\"fixation\" style=\"font-size: 60px;\">+</div>","response":null,"trial_type":"html-keyboard-response","trial_index":38,"plugin_version":"2.1.0","time_elapsed":257558},{"target_group":"white","target_index":0,"condition_label":"practice","rt":-1,"response":"","correct":false,"choices":"ALL_KEYS","correct_choice":["a"],"trial_duration":2000,"flip_timestamps":[],"response_ends_trial":false,"number_of_apertures":2,"number_of_dots":[100,68],"number_of_sets":1,"coherent_direction":[155,334],"coherence":1,"opposite_coherence":0,"dot_radius":2,"dot_side_length":1,"dot_life":-1,"move_distance":1,"aperture_width":300,"aperture_height":300,"dot_color":["white","black"],"dot_shape":"circle","background_color":"#AAA","RDK_type":3,"aperture_type":2,"reinsert_type":2,"frame_rate":16.840336134453782,"frame_rate_array":[13,16,24,14,42,8,16,17,17,18,15,17,16,18,16,15,18,18,16,17,17,17,16,17,22,12,18,16,17,17,17,16,16,17,17,17,17,16,18,16,17,17,16,18,17,17,16,16,17,16,18,16,17,16,17,17,16,17,17,16,17,16,17,17,16,18,17,17,16,17,15,18,16,16,18,16,18,17,16,16,17,17,16,17,17,17,17,17,16,17,16,17,17,16,17,17,16,18,15,17,17,17,15,17,17,16,17,15,18,17,17,16,17,17,16,16,17,16,17],"number_of_frames":119,"aperture_center_x":768,"aperture_center_y":432,"fixation_cross":true,"fixation_cross_width":15,"fixation_cross_height":15,"fixation_cross_color":"#111","fixation_cross_thickness":1,"border":true,"border_thickness":2,"border_color":"transparent","canvas_width":1536,"canvas_height":864,"trial_type":"rdk","trial_index":39,"plugin_version":"2.0.0","time_elapsed":259574,"target_direction":155,"distractor_direction":334},{"rt":2964,"stimulus":"\n        <div class=\"response-container\">\n          <div class=\"response-instruction\">\n            <p>rotate the bar by using the left and right arrow keys.</p>\n            <p>when you are determined, press the Enter key.</p>\n          </div>\n          <div class=\"response-circle\">\n            <div class=\"response-fixation\"></div>\n            <div id=\"bar\" class=\"rotating-bar\"></div>\n          </div>\n        </div>\n      ","response":"Enter","trial_type":"html-keyboard-response","trial_index":40,"plugin_version":"2.1.0","time_elapsed":262538,"random_initial_angle":299,"response_angle_css":308,"response_angle_rdk":142,"angular_error_target":-13,"angular_error_distractor":168,"target_direction":155,"target_group":"white","reward_points":7},{"rt":null,"stimulus":"\n          <p style=\"color: #00FF00;\">Your reward: 7 points</p>\n        ","response":null,"trial_type":"html-keyboard-response","trial_index":41,"plugin_version":"2.1.0","time_elapsed":264541},{"rt":null,"stimulus":"<div class=\"fixation\" style=\"font-size: 60px;\">+</div>","response":null,"trial_type":"html-keyboard-response","trial_index":42,"plugin_version":"2.1.0","time_elapsed":265547},{"target_group":"white","target_index":0,"condition_label":"practice","rt":-1,"response":"","correct":false,"choices":"ALL_KEYS","correct_choice":["a"],"trial_duration":2000,"flip_timestamps":[],"response_ends_trial":false,"number_of_apertures":2,"number_of_dots":[100,100],"number_of_sets":1,"coherent_direction":[17,184],"coherence":1,"opposite_coherence":0,"dot_radius":2,"dot_side_length":1,"dot_life":-1,"move_distance":1,"aperture_width":300,"aperture_height":300,"dot_color":["white","black"],"dot_shape":"circle","background_color":"#AAA","RDK_type":3,"aperture_type":2,"reinsert_type":2,"frame_rate":16.558333333333334,"frame_rate_array":[2,15,16,23,11,20,16,17,18,17,17,16,17,17,16,16,16,18,15,18,17,15,18,18,15,17,15,18,18,17,16,16,16,18,17,18,16,17,16,17,17,17,16,16,18,16,17,16,18,16,16,17,17,15,17,16,18,16,17,17,17,15,19,16,17,17,17,15,17,17,16,16,15,18,17,16,17,17,17,15,18,15,17,18,17,16,18,16,16,18,16,17,17,17,16,15,17,18,15,18,16,19,16,18,16,16,17,17,16,16,16,17,15,18,16,17,18,16,17,15],"number_of_frames":120,"aperture_center_x":768,"aperture_center_y":432,"fixation_cross":true,"fixation_cross_width":15,"fixation_cross_height":15,"fixation_cross_color":"#111","fixation_cross_thickness":1,"border":true,"border_thickness":2,"border_color":"transparent","canvas_width":1536,"canvas_height":864,"trial_type":"rdk","trial_index":43,"plugin_version":"2.0.0","time_elapsed":267560,"target_direction":17,"distractor_direction":184},{"rt":3652,"stimulus":"\n        <div class=\"response-container\">\n          <div class=\"response-instruction\">\n            <p>rotate the bar by using the left and right arrow keys.</p>\n            <p>when you are determined, press the Enter key.</p>\n          </div>\n          <div class=\"response-circle\">\n            <div class=\"response-fixation\"></div>\n            <div id=\"bar\" class=\"rotating-bar\"></div>\n          </div>\n        </div>\n      ","response":"Enter","trial_type":"html-keyboard-response","trial_index":44,"plugin_version":"2.1.0","time_elapsed":271212,"random_initial_angle":352,"response_angle_css":239,"response_angle_rdk":211,"angular_error_target":-166,"angular_error_distractor":27,"target_direction":17,"target_group":"white","reward_points":0},{"rt":null,"stimulus":"\n          <p style=\"color: #FF3333;\">Your reward: 0 points</p>\n        ","response":null,"trial_type":"html-keyboard-response","trial_index":45,"plugin_version":"2.1.0","time_elapsed":273225},{"rt":null,"stimulus":"<div class=\"fixation\" style=\"font-size: 60px;\">+</div>","response":null,"trial_type":"html-keyboard-response","trial_index":46,"plugin_version":"2.1.0","time_elapsed":274228},{"target_group":"white","target_index":0,"condition_label":"practice","rt":-1,"response":"","correct":false,"choices":"ALL_KEYS","correct_choice":["a"],"trial_duration":2000,"flip_timestamps":[],"response_ends_trial":false,"number_of_apertures":2,"number_of_dots":[100,60],"number_of_sets":1,"coherent_direction":[312,201],"coherence":1,"opposite_coherence":0,"dot_radius":2,"dot_side_length":1,"dot_life":-1,"move_distance":1,"aperture_width":300,"aperture_height":300,"dot_color":["white","black"],"dot_shape":"circle","background_color":"#AAA","RDK_type":3,"aperture_type":2,"reinsert_type":2,"frame_rate":16.691666666666666,"frame_rate_array":[12,17,17,17,16,17,17,16,17,17,17,17,16,16,17,16,17,17,17,17,17,16,17,17,16,17,17,16,17,17,16,17,17,17,16,17,17,17,16,17,17,16,17,17,17,17,17,17,17,17,17,17,17,17,17,16,18,16,16,17,17,17,17,17,16,17,16,17,17,16,17,17,17,16,17,16,16,17,17,17,17,16,17,17,17,16,17,16,17,16,17,17,17,17,16,17,17,17,17,16,17,16,18,16,16,17,17,16,17,17,17,16,17,16,17,17,17,17,16,17],"number_of_frames":120,"aperture_center_x":768,"aperture_center_y":432,"fixation_cross":true,"fixation_cross_width":15,"fixation_cross_height":15,"fixation_cross_color":"#111","fixation_cross_thickness":1,"border":true,"border_thickness":2,"border_color":"transparent","canvas_width":1536,"canvas_height":864,"trial_type":"rdk","trial_index":47,"plugin_version":"2.0.0","time_elapsed":276251,"target_direction":312,"distractor_direction":201},{"rt":4924,"stimulus":"\n        <div class=\"response-container\">\n          <div class=\"response-instruction\">\n            <p>rotate the bar by using the left and right arrow keys.</p>\n            <p>when you are determined, press the Enter key.</p>\n          </div>\n          <div class=\"response-circle\">\n            <div class=\"response-fixation\"></div>\n            <div id=\"bar\" class=\"rotating-bar\"></div>\n          </div>\n        </div>\n      ","response":"Enter","trial_type":"html-keyboard-response","trial_index":48,"plugin_version":"2.1.0","time_elapsed":281176,"random_initial_angle":245,"response_angle_css":488,"response_angle_rdk":322,"angular_error_target":10,"angular_error_distractor":121,"target_direction":312,"target_group":"white","reward_points":8},{"rt":null,"stimulus":"\n          <p style=\"color: #00FF00;\">Your reward: 8 points</p>\n        ","response":null,"trial_type":"html-keyboard-response","trial_index":49,"plugin_version":"2.1.0","time_elapsed":283188},{"rt":null,"stimulus":"<div class=\"fixation\" style=\"font-size: 60px;\">+</div>","response":null,"trial_type":"html-keyboard-response","trial_index":50,"plugin_version":"2.1.0","time_elapsed":284205},{"target_group":"black","target_index":1,"condition_label":"practice","rt":-1,"response":"","correct":false,"choices":"ALL_KEYS","correct_choice":["a"],"trial_duration":2000,"flip_timestamps":[],"response_ends_trial":false,"number_of_apertures":2,"number_of_dots":[87,100],"number_of_sets":1,"coherent_direction":[206,46],"coherence":1,"opposite_coherence":0,"dot_radius":2,"dot_side_length":1,"dot_life":-1,"move_distance":1,"aperture_width":300,"aperture_height":300,"dot_color":["white","black"],"dot_shape":"circle","background_color":"#AAA","RDK_type":3,"aperture_type":2,"reinsert_type":2,"frame_rate":16.658333333333335,"frame_rate_array":[10,17,23,14,16,17,16,17,17,16,18,17,15,18,17,16,18,17,17,16,17,17,16,18,16,17,16,16,18,17,17,15,17,18,16,16,17,17,15,18,16,17,18,17,16,17,17,17,16,18,15,17,16,17,17,16,17,17,16,17,18,15,18,17,16,17,17,17,16,17,16,17,17,16,17,16,17,17,17,16,17,16,16,17,18,16,15,17,17,16,16,17,18,15,18,15,16,18,16,16,18,16,18,17,16,17,16,18,17,17,15,17,18,16,17,14,19,16,15,18],"number_of_frames":120,"aperture_center_x":768,"aperture_center_y":432,"fixation_cross":true,"fixation_cross_width":15,"fixation_cross_height":15,"fixation_cross_color":"#111","fixation_cross_thickness":1,"border":true,"border_thickness":2,"border_color":"transparent","canvas_width":1536,"canvas_height":864,"trial_type":"rdk","trial_index":51,"plugin_version":"2.0.0","time_elapsed":286217,"target_direction":46,"distractor_direction":206},{"rt":2572,"stimulus":"\n        <div class=\"response-container\">\n          <div class=\"response-instruction\">\n            <p>rotate the bar by using the left and right arrow keys.</p>\n            <p>when you are determined, press the Enter key.</p>\n          </div>\n          <div class=\"response-circle\">\n            <div class=\"response-fixation\"></div>\n            <div id=\"bar\" class=\"rotating-bar\"></div>\n          </div>\n        </div>\n      ","response":"Enter","trial_type":"html-keyboard-response","trial_index":52,"plugin_version":"2.1.0","time_elapsed":288790,"random_initial_angle":101,"response_angle_css":49,"response_angle_rdk":41,"angular_error_target":-5,"angular_error_distractor":-165,"target_direction":46,"target_group":"black","reward_points":9},{"rt":null,"stimulus":"\n          <p style=\"color: #00FF00;\">Your reward: 9 points</p>\n        ","response":null,"trial_type":"html-keyboard-response","trial_index":53,"plugin_version":"2.1.0","time_elapsed":290792},{"rt":null,"stimulus":"<div class=\"fixation\" style=\"font-size: 60px;\">+</div>","response":null,"trial_type":"html-keyboard-response","trial_index":54,"plugin_version":"2.1.0","time_elapsed":291808},{"target_group":"black","target_index":1,"condition_label":"practice","rt":-1,"response":"","correct":false,"choices":"ALL_KEYS","correct_choice":["a"],"trial_duration":2000,"flip_timestamps":[],"response_ends_trial":false,"number_of_apertures":2,"number_of_dots":[70,100],"number_of_sets":1,"coherent_direction":[134,266],"coherence":1,"opposite_coherence":0,"dot_radius":2,"dot_side_length":1,"dot_life":-1,"move_distance":1,"aperture_width":300,"aperture_height":300,"dot_color":["white","black"],"dot_shape":"circle","background_color":"#AAA","RDK_type":3,"aperture_type":2,"reinsert_type":2,"frame_rate":16.628099173553718,"frame_rate_array":[2,16,32,1,17,17,16,17,17,17,16,17,17,16,17,17,22,12,17,17,17,17,17,17,17,16,17,16,17,17,16,16,17,17,17,17,17,17,17,17,17,16,16,17,16,17,17,16,16,17,17,17,17,16,17,17,17,16,17,17,17,17,16,16,16,17,17,16,17,17,17,17,17,17,17,16,17,17,17,17,17,16,17,17,17,17,17,17,17,17,16,17,17,17,17,17,16,17,16,17,17,17,16,17,16,17,17,17,16,17,17,17,17,16,17,17,17,17,17,16,17],"number_of_frames":121,"aperture_center_x":768,"aperture_center_y":432,"fixation_cross":true,"fixation_cross_width":15,"fixation_cross_height":15,"fixation_cross_color":"#111","fixation_cross_thickness":1,"border":true,"border_thickness":2,"border_color":"transparent","canvas_width":1536,"canvas_height":864,"trial_type":"rdk","trial_index":55,"plugin_version":"2.0.0","time_elapsed":293818,"target_direction":266,"distractor_direction":134},{"rt":4644,"stimulus":"\n        <div class=\"response-container\">\n          <div class=\"response-instruction\">\n            <p>rotate the bar by using the left and right arrow keys.</p>\n            <p>when you are determined, press the Enter key.</p>\n          </div>\n          <div class=\"response-circle\">\n            <div class=\"response-fixation\"></div>\n            <div id=\"bar\" class=\"rotating-bar\"></div>\n          </div>\n        </div>\n      ","response":"Enter","trial_type":"html-keyboard-response","trial_index":56,"plugin_version":"2.1.0","time_elapsed":298463,"random_initial_angle":101,"response_angle_css":167,"response_angle_rdk":283,"angular_error_target":17,"angular_error_distractor":149,"target_direction":266,"target_group":"black","reward_points":6},{"rt":null,"stimulus":"\n          <p style=\"color: #00FF00;\">Your reward: 6 points</p>\n        ","response":null,"trial_type":"html-keyboard-response","trial_index":57,"plugin_version":"2.1.0","time_elapsed":300465},{"rt":null,"stimulus":"<div class=\"fixation\" style=\"font-size: 60px;\">+</div>","response":null,"trial_type":"html-keyboard-response","trial_index":58,"plugin_version":"2.1.0","time_elapsed":301481},{"target_group":"white","target_index":0,"condition_label":"practice","rt":-1,"response":"","correct":false,"choices":"ALL_KEYS","correct_choice":["a"],"trial_duration":2000,"flip_timestamps":[],"response_ends_trial":false,"number_of_apertures":2,"number_of_dots":[100,98],"number_of_sets":1,"coherent_direction":[158,352],"coherence":1,"opposite_coherence":0,"dot_radius":2,"dot_side_length":1,"dot_life":-1,"move_distance":1,"aperture_width":300,"aperture_height":300,"dot_color":["white","black"],"dot_shape":"circle","background_color":"#AAA","RDK_type":3,"aperture_type":2,"reinsert_type":2,"frame_rate":16.608333333333334,"frame_rate_array":[4,20,17,14,18,15,18,16,17,17,17,15,18,17,16,17,17,15,16,17,17,18,16,18,16,16,17,17,15,18,17,15,17,16,17,18,16,17,17,16,17,17,16,17,17,16,17,17,16,18,15,17,18,16,17,16,16,18,16,17,16,17,16,18,17,16,16,17,16,17,17,17,17,17,16,16,16,17,18,15,17,18,16,16,17,15,19,17,17,17,17,15,18,16,16,18,15,18,17,16,18,17,17,16,17,16,16,17,16,18,16,17,17,18,16,16,18,17,17,17],"number_of_frames":120,"aperture_center_x":768,"aperture_center_y":432,"fixation_cross":true,"fixation_cross_width":15,"fixation_cross_height":15,"fixation_cross_color":"#111","fixation_cross_thickness":1,"border":true,"border_thickness":2,"border_color":"transparent","canvas_width":1536,"canvas_height":864,"trial_type":"rdk","trial_index":59,"plugin_version":"2.0.0","time_elapsed":303501,"target_direction":158,"distractor_direction":352},{"rt":4622,"stimulus":"\n        <div class=\"response-container\">\n          <div class=\"response-instruction\">\n            <p>rotate the bar by using the left and right arrow keys.</p>\n            <p>when you are determined, press the Enter key.</p>\n          </div>\n          <div class=\"response-circle\">\n            <div class=\"response-fixation\"></div>\n            <div id=\"bar\" class=\"rotating-bar\"></div>\n          </div>\n        </div>\n      ","response":"Enter","trial_type":"html-keyboard-response","trial_index":60,"plugin_version":"2.1.0","time_elapsed":308124,"random_initial_angle":169,"response_angle_css":-37,"response_angle_rdk":127,"angular_error_target":-31,"angular_error_distractor":135,"target_direction":158,"target_group":"white","reward_points":3},{"rt":null,"stimulus":"\n          <p style=\"color: #00FF00;\">Your reward: 3 points</p>\n        ","response":null,"trial_type":"html-keyboard-response","trial_index":61,"plugin_version":"2.1.0","time_elapsed":310135},{"rt":null,"stimulus":"<div class=\"fixation\" style=\"font-size: 60px;\">+</div>","response":null,"trial_type":"html-keyboard-response","trial_index":62,"plugin_version":"2.1.0","time_elapsed":311147},{"target_group":"black","target_index":1,"condition_label":"practice","rt":-1,"response":"","correct":false,"choices":"ALL_KEYS","correct_choice":["a"],"trial_duration":2000,"flip_timestamps":[],"response_ends_trial":false,"number_of_apertures":2,"number_of_dots":[65,100],"number_of_sets":1,"coherent_direction":[321,168],"coherence":1,"opposite_coherence":0,"dot_radius":2,"dot_side_length":1,"dot_life":-1,"move_distance":1,"aperture_width":300,"aperture_height":300,"dot_color":["white","black"],"dot_shape":"circle","background_color":"#AAA","RDK_type":3,"aperture_type":2,"reinsert_type":2,"frame_rate":16.708333333333332,"frame_rate_array":[11,17,17,21,15,17,18,16,17,17,15,18,16,15,18,17,16,17,16,16,18,17,16,17,16,18,17,16,17,18,15,18,17,16,18,16,16,18,16,16,17,16,17,17,16,17,18,15,18,17,16,18,17,15,16,18,16,17,17,16,18,16,16,18,16,16,18,16,18,17,17,17,17,15,18,17,16,17,17,16,17,16,18,17,16,17,17,15,18,16,18,16,17,16,18,17,17,15,18,15,18,16,17,16,17,17,17,17,17,17,16,16,17,18,16,17,14,18,17,17],"number_of_frames":120,"aperture_center_x":768,"aperture_center_y":432,"fixation_cross":true,"fixation_cross_width":15,"fixation_cross_height":15,"fixation_cross_color":"#111","fixation_cross_thickness":1,"border":true,"border_thickness":2,"border_color":"transparent","canvas_width":1536,"canvas_height":864,"trial_type":"rdk","trial_index":63,"plugin_version":"2.0.0","time_elapsed":313165,"target_direction":168,"distractor_direction":321},{"rt":2810,"stimulus":"\n        <div class=\"response-container\">\n          <div class=\"response-instruction\">\n            <p>rotate the bar by using the left and right arrow keys.</p>\n            <p>when you are determined, press the Enter key.</p>\n          </div>\n          <div class=\"response-circle\">\n            <div class=\"response-fixation\"></div>\n            <div id=\"bar\" class=\"rotating-bar\"></div>\n          </div>\n        </div>\n      ","response":"Enter","trial_type":"html-keyboard-response","trial_index":64,"plugin_version":"2.1.0","time_elapsed":315975,"random_initial_angle":64,"response_angle_css":-37,"response_angle_rdk":127,"angular_error_target":-41,"angular_error_distractor":166,"target_direction":168,"target_group":"black","reward_points":1},{"rt":null,"stimulus":"\n          <p style=\"color: #FF3333;\">Your reward: 1 points</p>\n        ","response":null,"trial_type":"html-keyboard-response","trial_index":65,"plugin_version":"2.1.0","time_elapsed":317987},{"rt":7538,"stimulus":"\n        <div class=\"instructions-container\">\n          <h2>End of Practice</h2>\n          <p>You have completed the practice trials.</p>\n          <p>Press <strong>Enter</strong> key to begin the main experiment.</p>\n        </div>\n      ","response":"Enter","trial_type":"html-keyboard-response","trial_index":66,"plugin_version":"2.1.0","time_elapsed":325526},{"rt":null,"stimulus":"<div class=\"fixation\" style=\"font-size: 60px;\">+</div>","response":null,"trial_type":"html-keyboard-response","trial_index":67,"plugin_version":"2.1.0","time_elapsed":326531},{"target_group":"white","condition_label":"W_H_vs_B_L_rep5","target_direction":202,"distractor_direction":80,"session_rotation":170,"rt":-1,"response":"","correct":false,"choices":"ALL_KEYS","correct_choice":["a"],"trial_duration":2000,"flip_timestamps":[],"response_ends_trial":false,"number_of_apertures":200,"number_of_dots":[1,1,1,1,1,1,1,1,1,1,1,1,1,1,1,1,1,1,1,1,1,1,1,1,1,1,1,1,1,1,1,1,1,1,1,1,1,1,1,1,1,1,1,1,1,1,1,1,1,1,1,1,1,1,1,1,1,1,1,1,1,1,1,1,1,1,1,1,1,1,1,1,1,1,1,1,1,1,1,1,1,1,1,1,1,1,1,1,1,1,1,1,1,1,1,1,1,1,1,1,1,1,1,1,1,1,1,1,1,1,1,1,1,1,1,1,1,1,1,1,1,1,1,1,1,1,1,1,1,1,1,1,1,1,1,1,1,1,1,1,1,1,1,1,1,1,1,1,1,1,1,1,1,1,1,1,1,1,1,1,1,1,1,1,1,1,1,1,1,1,1,1,1,1,1,1,1,1,1,1,1,1,1,1,1,1,1,1,1,1,1,1,1,1,1,1,1,1,1,1],"number_of_sets":1,"coherent_direction":[202,202,202,202,80,202,202,80,202,80,202,80,202,202,80,202,202,80,80,202,202,202,80,80,80,202,202,202,202,80,80,80,80,80,80,202,80,202,202,202,80,202,80,80,202,80,202,80,80,202,202,202,80,202,80,202,202,202,202,202,80,202,80,202,202,202,202,80,80,202,80,80,80,80,80,80,80,80,80,202,80,202,80,80,202,80,80,80,80,80,80,202,80,80,202,80,202,80,80,202,80,202,202,80,80,80,202,202,202,80,80,202,80,80,80,80,80,80,80,80,80,80,202,80,80,80,202,80,80,202,202,80,202,202,202,202,202,80,80,202,202,80,202,202,202,80,202,80,202,202,80,80,80,202,80,202,80,80,80,80,202,80,80,202,202,202,202,80,202,202,80,202,202,80,202,202,80,202,202,202,202,80,202,202,202,202,80,202,202,202,80,202,80,202,202,80,202,80,202,80],"coherence":1,"opposite_coherence":0,"dot_radius":2,"dot_side_length":1,"dot_life":-1,"move_distance":1,"aperture_width":300,"aperture_height":300,"dot_color":["white","white","white","white","black","white","white","black","white","black","white","black","white","white","black","white","white","black","black","white","white","white","black","black","black","white","white","white","white","black","black","black","black","black","black","white","black","white","white","white","black","white","black","black","white","black","white","black","black","white","white","white","black","white","black","white","white","white","white","white","black","white","black","white","white","white","white","black","black","white","black","black","black","black","black","black","black","black","black","white","black","white","black","black","white","black","black","black","black","black","black","white","black","black","white","black","white","black","black","white","black","white","white","black","black","black","white","white","white","black","black","white","black","black","black","black","black","black","black","black","black","black","white","black","black","black","white","black","black","white","white","black","white","white","white","white","white","black","black","white","white","black","white","white","white","black","white","black","white","white","black","black","black","white","black","white","black","black","black","black","white","black","black","white","white","white","white","black","white","white","black","white","white","black","white","white","black","white","white","white","white","black","white","white","white","white","black","white","white","white","black","white","black","white","white","black","white","black","white","black"],"dot_shape":"circle","background_color":"#AAA","RDK_type":3,"aperture_type":2,"reinsert_type":2,"frame_rate":16.783333333333335,"frame_rate_array":[18,15,18,16,17,17,16,17,16,17,17,16,17,17,17,16,17,16,17,17,16,18,16,16,17,16,17,17,17,17,16,17,16,16,17,17,17,17,16,17,16,17,16,17,17,17,16,17,16,17,17,17,16,17,17,16,17,16,16,17,16,17,17,16,17,16,17,17,17,16,17,17,16,17,17,17,17,17,22,12,18,15,18,16,16,16,17,17,17,17,16,17,17,17,17,17,17,17,17,17,17,17,17,17,16,17,17,17,16,17,17,16,17,17,16,17,16,17,16,27],"number_of_frames":120,"aperture_center_x":768,"aperture_center_y":432,"fixation_cross":true,"fixation_cross_width":15,"fixation_cross_height":15,"fixation_cross_color":"#111","fixation_cross_thickness":1,"border":true,"border_thickness":2,"border_color":"transparent","canvas_width":1536,"canvas_height":864,"trial_type":"rdk","trial_index":68,"plugin_version":"2.0.0","time_elapsed":328557},{"rt":5753,"stimulus":"\n        <div class=\"response-container\">\n          <div class=\"response-instruction\">\n            <p>rotate the bar by using the left and right arrow keys.</p>\n            <p>when you are determined, press the Enter key.</p>\n          </div>\n          <div class=\"response-circle\">\n            <div class=\"response-fixation\"></div>\n            <div id=\"bar\" class=\"rotating-bar\"></div>\n          </div>\n        </div>\n      ","response":"Enter","trial_type":"html-keyboard-response","trial_index":69,"plugin_version":"2.1.0","time_elapsed":334311,"random_initial_angle":290,"response_angle_css":29,"response_angle_rdk":61,"angular_error_target":-141,"angular_error_distractor":-19,"target_direction":202,"target_group":"white","reward_points":0},{"rt":null,"stimulus":"\n          <p style=\"color: #FF3333;\">Your reward: 0 points</p>\n        ","response":null,"trial_type":"html-keyboard-response","trial_index":70,"plugin_version":"2.1.0","time_elapsed":336326},{"rt":null,"stimulus":"<div class=\"fixation\" style=\"font-size: 60px;\">+</div>","response":null,"trial_type":"html-keyboard-response","trial_index":71,"plugin_version":"2.1.0","time_elapsed":337329},{"target_group":"white","condition_label":"W_H_vs_B_L_rep24","target_direction":203,"distractor_direction":87,"session_rotation":170,"rt":-1,"response":"","correct":false,"choices":"ALL_KEYS","correct_choice":["a"],"trial_duration":2000,"flip_timestamps":[],"response_ends_trial":false,"number_of_apertures":200,"number_of_dots":[1,1,1,1,1,1,1,1,1,1,1,1,1,1,1,1,1,1,1,1,1,1,1,1,1,1,1,1,1,1,1,1,1,1,1,1,1,1,1,1,1,1,1,1,1,1,1,1,1,1,1,1,1,1,1,1,1,1,1,1,1,1,1,1,1,1,1,1,1,1,1,1,1,1,1,1,1,1,1,1,1,1,1,1,1,1,1,1,1,1,1,1,1,1,1,1,1,1,1,1,1,1,1,1,1,1,1,1,1,1,1,1,1,1,1,1,1,1,1,1,1,1,1,1,1,1,1,1,1,1,1,1,1,1,1,1,1,1,1,1,1,1,1,1,1,1,1,1,1,1,1,1,1,1,1,1,1,1,1,1,1,1,1,1,1,1,1,1,1,1,1,1,1,1,1,1,1,1,1,1,1,1,1,1,1,1,1,1,1,1,1,1,1,1,1,1,1,1,1,1],"number_of_sets":1,"coherent_direction":[87,203,203,87,87,87,203,87,203,87,203,203,203,203,203,203,87,87,203,203,203,203,203,87,203,203,203,87,203,203,87,87,203,87,203,203,87,87,203,203,87,87,87,87,203,203,203,203,203,87,203,203,87,87,87,87,203,87,87,203,87,87,203,203,203,87,87,203,87,87,87,87,203,203,203,87,87,203,203,203,87,87,203,87,87,87,87,87,87,203,203,87,87,87,87,203,203,203,203,87,87,203,87,87,87,203,87,87,203,87,203,203,87,87,87,203,203,87,203,87,203,203,87,87,203,87,87,203,203,87,203,87,203,203,87,203,203,203,87,87,203,203,203,87,203,203,87,87,203,87,203,87,87,87,203,87,203,87,87,87,87,203,203,87,87,87,203,203,87,203,203,87,87,87,203,203,203,203,87,87,203,87,203,87,203,203,203,87,203,87,87,203,203,203,203,87,87,203,87,87],"coherence":1,"opposite_coherence":0,"dot_radius":2,"dot_side_length":1,"dot_life":-1,"move_distance":1,"aperture_width":300,"aperture_height":300,"dot_color":["black","white","white","black","black","black","white","black","white","black","white","white","white","white","white","white","black","black","white","white","white","white","white","black","white","white","white","black","white","white","black","black","white","black","white","white","black","black","white","white","black","black","black","black","white","white","white","white","white","black","white","white","black","black","black","black","white","black","black","white","black","black","white","white","white","black","black","white","black","black","black","black","white","white","white","black","black","white","white","white","black","black","white","black","black","black","black","black","black","white","white","black","black","black","black","white","white","white","white","black","black","white","black","black","black","white","black","black","white","black","white","white","black","black","black","white","white","black","white","black","white","white","black","black","white","black","black","white","white","black","white","black","white","white","black","white","white","white","black","black","white","white","white","black","white","white","black","black","white","black","white","black","black","black","white","black","white","black","black","black","black","white","white","black","black","black","white","white","black","white","white","black","black","black","white","white","white","white","black","black","white","black","white","black","white","white","white","black","white","black","black","white","white","white","white","black","black","white","black","black"],"dot_shape":"circle","background_color":"#AAA","RDK_type":3,"aperture_type":2,"reinsert_type":2,"frame_rate":16.633333333333333,"frame_rate_array":[5,18,17,17,16,17,16,18,16,18,17,16,17,17,15,17,16,17,16,16,17,18,16,17,16,18,16,17,16,17,17,25,7,18,16,16,18,15,18,16,16,18,16,17,17,16,17,17,16,17,17,22,12,17,15,17,18,16,17,16,17,17,16,17,18,16,16,18,17,16,18,24,7,19,16,16,18,15,18,17,16,18,16,16,18,17,16,18,15,17,17,22,12,17,16,18,16,16,17,17,16,18,17,16,17,16,16,18,15,18,17,22,12,17,16,17,17,16,17,17],"number_of_frames":120,"aperture_center_x":768,"aperture_center_y":432,"fixation_cross":true,"fixation_cross_width":15,"fixation_cross_height":15,"fixation_cross_color":"#111","fixation_cross_thickness":1,"border":true,"border_thickness":2,"border_color":"transparent","canvas_width":1536,"canvas_height":864,"trial_type":"rdk","trial_index":72,"plugin_version":"2.0.0","time_elapsed":339349},{"rt":3677,"stimulus":"\n        <div class=\"response-container\">\n          <div class=\"response-instruction\">\n            <p>rotate the bar by using the left and right arrow keys.</p>\n            <p>when you are determined, press the Enter key.</p>\n          </div>\n          <div class=\"response-circle\">\n            <div class=\"response-fixation\"></div>\n            <div id=\"bar\" class=\"rotating-bar\"></div>\n          </div>\n        </div>\n      ","response":"Enter","trial_type":"html-keyboard-response","trial_index":73,"plugin_version":"2.1.0","time_elapsed":343026,"random_initial_angle":53,"response_angle_css":-141,"response_angle_rdk":231,"angular_error_target":28,"angular_error_distractor":144,"target_direction":203,"target_group":"white","reward_points":4},{"rt":null,"stimulus":"\n          <p style=\"color: #00FF00;\">Your reward: 4 points</p>\n        ","response":null,"trial_type":"html-keyboard-response","trial_index":74,"plugin_version":"2.1.0","time_elapsed":345030},{"rt":null,"stimulus":"<div class=\"fixation\" style=\"font-size: 60px;\">+</div>","response":null,"trial_type":"html-keyboard-response","trial_index":75,"plugin_version":"2.1.0","time_elapsed":346045},{"target_group":"black","condition_label":"B_H_vs_W_L_rep21","target_direction":280,"distractor_direction":30,"session_rotation":170,"rt":-1,"response":"","correct":false,"choices":"ALL_KEYS","correct_choice":["a"],"trial_duration":2000,"flip_timestamps":[],"response_ends_trial":false,"number_of_apertures":200,"number_of_dots":[1,1,1,1,1,1,1,1,1,1,1,1,1,1,1,1,1,1,1,1,1,1,1,1,1,1,1,1,1,1,1,1,1,1,1,1,1,1,1,1,1,1,1,1,1,1,1,1,1,1,1,1,1,1,1,1,1,1,1,1,1,1,1,1,1,1,1,1,1,1,1,1,1,1,1,1,1,1,1,1,1,1,1,1,1,1,1,1,1,1,1,1,1,1,1,1,1,1,1,1,1,1,1,1,1,1,1,1,1,1,1,1,1,1,1,1,1,1,1,1,1,1,1,1,1,1,1,1,1,1,1,1,1,1,1,1,1,1,1,1,1,1,1,1,1,1,1,1,1,1,1,1,1,1,1,1,1,1,1,1,1,1,1,1,1,1,1,1,1,1,1,1,1,1,1,1,1,1,1,1,1,1,1,1,1,1,1,1,1,1,1,1,1,1,1,1,1,1,1,1],"number_of_sets":1,"coherent_direction":[280,30,30,30,30,30,30,30,280,280,280,280,280,30,30,280,280,280,30,280,280,280,30,280,30,30,280,30,30,30,30,30,30,280,30,280,280,280,30,30,30,30,280,30,280,280,30,280,30,280,280,30,30,280,280,30,280,30,30,280,30,30,30,30,30,30,280,30,280,280,30,30,280,30,30,30,30,280,30,30,30,280,280,30,30,280,280,280,280,30,30,280,30,30,280,280,30,280,30,280,30,280,30,30,30,30,280,280,30,30,280,280,280,30,280,30,30,280,280,280,280,280,280,280,280,280,30,30,280,30,30,30,30,280,30,280,280,30,280,280,280,280,30,30,280,280,280,280,280,280,30,280,280,280,30,280,30,280,30,280,30,30,280,280,30,280,30,30,280,30,280,30,30,30,280,30,280,280,280,280,280,30,30,280,280,30,280,30,30,280,280,30,30,280,280,30,280,280,30,30],"coherence":1,"opposite_coherence":0,"dot_radius":2,"dot_side_length":1,"dot_life":-1,"move_distance":1,"aperture_width":300,"aperture_height":300,"dot_color":["black","white","white","white","white","white","white","white","black","black","black","black","black","white","white","black","black","black","white","black","black","black","white","black","white","white","black","white","white","white","white","white","white","black","white","black","black","black","white","white","white","white","black","white","black","black","white","black","white","black","black","white","white","black","black","white","black","white","white","black","white","white","white","white","white","white","black","white","black","black","white","white","black","white","white","white","white","black","white","white","white","black","black","white","white","black","black","black","black","white","white","black","white","white","black","black","white","black","white","black","white","black","white","white","white","white","black","black","white","white","black","black","black","white","black","white","white","black","black","black","black","black","black","black","black","black","white","white","black","white","white","white","white","black","white","black","black","white","black","black","black","black","white","white","black","black","black","black","black","black","white","black","black","black","white","black","white","black","white","black","white","white","black","black","white","black","white","white","black","white","black","white","white","white","black","white","black","black","black","black","black","white","white","black","black","white","black","white","white","black","black","white","white","black","black","white","black","black","white","white"],"dot_shape":"circle","background_color":"#AAA","RDK_type":3,"aperture_type":2,"reinsert_type":2,"frame_rate":16.545454545454547,"frame_rate_array":[6,6,21,14,18,15,18,18,16,17,18,16,16,18,17,16,17,16,17,17,15,18,16,17,17,18,16,17,23,8,19,16,16,18,16,16,18,16,17,17,17,17,17,15,18,16,17,17,25,6,18,18,16,17,17,15,18,17,16,17,16,16,18,16,17,17,16,17,23,8,19,16,18,17,16,16,18,16,17,17,15,17,18,16,19,15,16,18,23,8,19,16,17,17,16,17,17,16,17,16,17,16,17,16,18,16,16,18,24,7,19,16,16,18,16,17,17,16,17,16,17],"number_of_frames":121,"aperture_center_x":768,"aperture_center_y":432,"fixation_cross":true,"fixation_cross_width":15,"fixation_cross_height":15,"fixation_cross_color":"#111","fixation_cross_thickness":1,"border":true,"border_thickness":2,"border_color":"transparent","canvas_width":1536,"canvas_height":864,"trial_type":"rdk","trial_index":76,"plugin_version":"2.0.0","time_elapsed":348063},{"rt":3098,"stimulus":"\n        <div class=\"response-container\">\n          <div class=\"response-instruction\">\n            <p>rotate the bar by using the left and right arrow keys.</p>\n            <p>when you are determined, press the Enter key.</p>\n          </div>\n          <div class=\"response-circle\">\n            <div class=\"response-fixation\"></div>\n            <div id=\"bar\" class=\"rotating-bar\"></div>\n          </div>\n        </div>\n      ","response":"Enter","trial_type":"html-keyboard-response","trial_index":77,"plugin_version":"2.1.0","time_elapsed":351162,"random_initial_angle":254,"response_angle_css":154,"response_angle_rdk":296,"angular_error_target":16,"angular_error_distractor":-94,"target_direction":280,"target_group":"black","reward_points":6},{"rt":null,"stimulus":"\n          <p style=\"color: #00FF00;\">Your reward: 6 points</p>\n        ","response":null,"trial_type":"html-keyboard-response","trial_index":78,"plugin_version":"2.1.0","time_elapsed":353169},{"rt":null,"stimulus":"<div class=\"fixation\" style=\"font-size: 60px;\">+</div>","response":null,"trial_type":"html-keyboard-response","trial_index":79,"plugin_version":"2.1.0","time_elapsed":354183},{"target_group":"white","condition_label":"W_H_vs_B_L_rep10","target_direction":211,"distractor_direction":113,"session_rotation":170,"rt":-1,"response":"","correct":false,"choices":"ALL_KEYS","correct_choice":["a"],"trial_duration":2000,"flip_timestamps":[],"response_ends_trial":false,"number_of_apertures":200,"number_of_dots":[1,1,1,1,1,1,1,1,1,1,1,1,1,1,1,1,1,1,1,1,1,1,1,1,1,1,1,1,1,1,1,1,1,1,1,1,1,1,1,1,1,1,1,1,1,1,1,1,1,1,1,1,1,1,1,1,1,1,1,1,1,1,1,1,1,1,1,1,1,1,1,1,1,1,1,1,1,1,1,1,1,1,1,1,1,1,1,1,1,1,1,1,1,1,1,1,1,1,1,1,1,1,1,1,1,1,1,1,1,1,1,1,1,1,1,1,1,1,1,1,1,1,1,1,1,1,1,1,1,1,1,1,1,1,1,1,1,1,1,1,1,1,1,1,1,1,1,1,1,1,1,1,1,1,1,1,1,1,1,1,1,1,1,1,1,1,1,1,1,1,1,1,1,1,1,1,1,1,1,1,1,1,1,1,1,1,1,1,1,1,1,1,1,1,1,1,1,1,1,1],"number_of_sets":1,"coherent_direction":[113,113,113,113,113,211,211,211,211,113,211,113,211,211,113,211,211,211,113,113,211,113,211,211,211,211,211,113,113,113,211,113,113,113,211,113,113,211,211,113,113,211,113,211,113,211,113,113,211,211,113,211,113,211,113,211,211,113,211,113,113,211,211,113,113,211,113,211,211,211,113,113,113,211,113,211,113,113,211,211,211,211,113,113,211,211,113,113,113,211,211,113,211,211,211,211,113,113,113,211,113,211,113,211,211,113,211,113,211,211,113,211,211,211,211,211,113,113,113,211,113,113,113,211,211,113,211,211,211,113,211,113,211,113,113,113,211,211,211,113,113,113,211,113,211,211,113,113,211,113,211,113,211,211,211,211,211,211,113,211,211,113,113,211,211,113,211,211,113,113,113,211,113,211,113,211,211,113,113,211,113,113,211,211,113,113,113,113,113,113,113,211,113,113,211,211,113,113,113,113],"coherence":1,"opposite_coherence":0,"dot_radius":2,"dot_side_length":1,"dot_life":-1,"move_distance":1,"aperture_width":300,"aperture_height":300,"dot_color":["black","black","black","black","black","white","white","white","white","black","white","black","white","white","black","white","white","white","black","black","white","black","white","white","white","white","white","black","black","black","white","black","black","black","white","black","black","white","white","black","black","white","black","white","black","white","black","black","white","white","black","white","black","white","black","white","white","black","white","black","black","white","white","black","black","white","black","white","white","white","black","black","black","white","black","white","black","black","white","white","white","white","black","black","white","white","black","black","black","white","white","black","white","white","white","white","black","black","black","white","black","white","black","white","white","black","white","black","white","white","black","white","white","white","white","white","black","black","black","white","black","black","black","white","white","black","white","white","white","black","white","black","white","black","black","black","white","white","white","black","black","black","white","black","white","white","black","black","white","black","white","black","white","white","white","white","white","white","black","white","white","black","black","white","white","black","white","white","black","black","black","white","black","white","black","white","white","black","black","white","black","black","white","white","black","black","black","black","black","black","black","white","black","black","white","white","black","black","black","black"],"dot_shape":"circle","background_color":"#AAA","RDK_type":3,"aperture_type":2,"reinsert_type":2,"frame_rate":16.747899159663866,"frame_rate_array":[3,29,10,31,19,15,17,17,16,17,17,16,18,16,17,16,16,17,18,20,12,18,16,17,17,16,17,16,16,17,16,17,17,16,17,18,17,16,16,24,7,20,15,17,16,18,16,17,17,18,15,17,17,16,17,18,16,16,17,25,6,20,16,17,17,16,17,16,17,18,16,16,18,17,16,17,18,15,17,23,8,19,16,17,17,17,16,18,16,17,16,17,17,16,16,18,16,16,18,22,11,18,15,18,16,17,16,18,16,17,16,16,18,17,17,16,16,16,17],"number_of_frames":119,"aperture_center_x":768,"aperture_center_y":432,"fixation_cross":true,"fixation_cross_width":15,"fixation_cross_height":15,"fixation_cross_color":"#111","fixation_cross_thickness":1,"border":true,"border_thickness":2,"border_color":"transparent","canvas_width":1536,"canvas_height":864,"trial_type":"rdk","trial_index":80,"plugin_version":"2.0.0","time_elapsed":356202},{"rt":2386,"stimulus":"\n        <div class=\"response-container\">\n          <div class=\"response-instruction\">\n            <p>rotate the bar by using the left and right arrow keys.</p>\n            <p>when you are determined, press the Enter key.</p>\n          </div>\n          <div class=\"response-circle\">\n            <div class=\"response-fixation\"></div>\n            <div id=\"bar\" class=\"rotating-bar\"></div>\n          </div>\n        </div>\n      ","response":"Enter","trial_type":"html-keyboard-response","trial_index":81,"plugin_version":"2.1.0","time_elapsed":358589,"random_initial_angle":249,"response_angle_css":249,"response_angle_rdk":201,"angular_error_target":-10,"angular_error_distractor":88,"target_direction":211,"target_group":"white","reward_points":8},{"rt":null,"stimulus":"\n          <p style=\"color: #00FF00;\">Your reward: 8 points</p>\n        ","response":null,"trial_type":"html-keyboard-response","trial_index":82,"plugin_version":"2.1.0","time_elapsed":360603},{"rt":null,"stimulus":"<div class=\"fixation\" style=\"font-size: 60px;\">+</div>","response":null,"trial_type":"html-keyboard-response","trial_index":83,"plugin_version":"2.1.0","time_elapsed":361607},{"target_group":"white","condition_label":"W_H_vs_B_L_rep13","target_direction":199,"distractor_direction":81,"session_rotation":170,"rt":-1,"response":"","correct":false,"choices":"ALL_KEYS","correct_choice":["a"],"trial_duration":2000,"flip_timestamps":[],"response_ends_trial":false,"number_of_apertures":200,"number_of_dots":[1,1,1,1,1,1,1,1,1,1,1,1,1,1,1,1,1,1,1,1,1,1,1,1,1,1,1,1,1,1,1,1,1,1,1,1,1,1,1,1,1,1,1,1,1,1,1,1,1,1,1,1,1,1,1,1,1,1,1,1,1,1,1,1,1,1,1,1,1,1,1,1,1,1,1,1,1,1,1,1,1,1,1,1,1,1,1,1,1,1,1,1,1,1,1,1,1,1,1,1,1,1,1,1,1,1,1,1,1,1,1,1,1,1,1,1,1,1,1,1,1,1,1,1,1,1,1,1,1,1,1,1,1,1,1,1,1,1,1,1,1,1,1,1,1,1,1,1,1,1,1,1,1,1,1,1,1,1,1,1,1,1,1,1,1,1,1,1,1,1,1,1,1,1,1,1,1,1,1,1,1,1,1,1,1,1,1,1,1,1,1,1,1,1,1,1,1,1,1,1],"number_of_sets":1,"coherent_direction":[81,199,199,81,199,81,199,81,199,199,81,81,199,81,81,199,81,199,199,81,81,81,199,81,199,199,81,199,199,81,81,81,81,81,199,81,199,81,81,199,199,199,199,199,81,81,81,81,81,81,199,199,81,199,199,81,81,81,81,199,81,199,81,81,199,81,199,199,81,81,199,81,199,199,199,81,81,199,81,81,81,81,81,81,199,81,81,199,199,199,199,199,199,199,81,199,81,81,81,81,81,81,199,199,81,199,199,81,199,81,199,199,81,199,81,199,81,199,81,199,199,81,81,81,81,81,199,81,199,199,81,199,81,199,199,199,81,81,199,81,81,199,81,81,199,199,199,199,199,199,81,199,199,199,199,199,199,81,81,199,199,199,81,199,81,81,199,199,81,199,199,81,199,199,199,199,81,81,81,81,81,81,81,81,199,199,199,199,81,199,81,81,199,199,81,199,199,199,81,81],"coherence":1,"opposite_coherence":0,"dot_radius":2,"dot_side_length":1,"dot_life":-1,"move_distance":1,"aperture_width":300,"aperture_height":300,"dot_color":["black","white","white","black","white","black","white","black","white","white","black","black","white","black","black","white","black","white","white","black","black","black","white","black","white","white","black","white","white","black","black","black","black","black","white","black","white","black","black","white","white","white","white","white","black","black","black","black","black","black","white","white","black","white","white","black","black","black","black","white","black","white","black","black","white","black","white","white","black","black","white","black","white","white","white","black","black","white","black","black","black","black","black","black","white","black","black","white","white","white","white","white","white","white","black","white","black","black","black","black","black","black","white","white","black","white","white","black","white","black","white","white","black","white","black","white","black","white","black","white","white","black","black","black","black","black","white","black","white","white","black","white","black","white","white","white","black","black","white","black","black","white","black","black","white","white","white","white","white","white","black","white","white","white","white","white","white","black","black","white","white","white","black","white","black","black","white","white","black","white","white","black","white","white","white","white","black","black","black","black","black","black","black","black","white","white","white","white","black","white","black","black","white","white","black","white","white","white","black","black"],"dot_shape":"circle","background_color":"#AAA","RDK_type":3,"aperture_type":2,"reinsert_type":2,"frame_rate":16.633333333333333,"frame_rate_array":[7,17,17,17,17,16,17,17,17,17,17,17,17,17,16,17,17,16,17,17,16,17,17,16,17,17,16,17,17,16,17,17,17,17,16,17,17,16,17,17,16,17,16,17,16,17,16,17,17,16,17,16,17,17,17,16,17,16,16,16,17,17,17,17,17,17,16,17,16,17,17,16,17,17,17,16,17,17,17,17,16,17,17,17,18,16,17,17,17,16,17,17,17,17,17,16,17,17,16,17,16,18,16,16,16,17,17,17,17,17,16,17,16,17,17,16,17,16,17,17],"number_of_frames":120,"aperture_center_x":768,"aperture_center_y":432,"fixation_cross":true,"fixation_cross_width":15,"fixation_cross_height":15,"fixation_cross_color":"#111","fixation_cross_thickness":1,"border":true,"border_thickness":2,"border_color":"transparent","canvas_width":1536,"canvas_height":864,"trial_type":"rdk","trial_index":84,"plugin_version":"2.0.0","time_elapsed":363618},{"rt":4639,"stimulus":"\n        <div class=\"response-container\">\n          <div class=\"response-instruction\">\n            <p>rotate the bar by using the left and right arrow keys.</p>\n            <p>when you are determined, press the Enter key.</p>\n          </div>\n          <div class=\"response-circle\">\n            <div class=\"response-fixation\"></div>\n            <div id=\"bar\" class=\"rotating-bar\"></div>\n          </div>\n        </div>\n      ","response":"Enter","trial_type":"html-keyboard-response","trial_index":85,"plugin_version":"2.1.0","time_elapsed":368258,"random_initial_angle":131,"response_angle_css":208,"response_angle_rdk":242,"angular_error_target":43,"angular_error_distractor":161,"target_direction":199,"target_group":"white","reward_points":1},{"rt":null,"stimulus":"\n          <p style=\"color: #FF3333;\">Your reward: 1 points</p>\n        ","response":null,"trial_type":"html-keyboard-response","trial_index":86,"plugin_version":"2.1.0","time_elapsed":370264},{"rt":null,"stimulus":"<div class=\"fixation\" style=\"font-size: 60px;\">+</div>","response":null,"trial_type":"html-keyboard-response","trial_index":87,"plugin_version":"2.1.0","time_elapsed":371272},{"target_group":"black","condition_label":"B_H_vs_W_L_rep6","target_direction":303,"distractor_direction":33,"session_rotation":170,"rt":-1,"response":"","correct":false,"choices":"ALL_KEYS","correct_choice":["a"],"trial_duration":2000,"flip_timestamps":[],"response_ends_trial":false,"number_of_apertures":200,"number_of_dots":[1,1,1,1,1,1,1,1,1,1,1,1,1,1,1,1,1,1,1,1,1,1,1,1,1,1,1,1,1,1,1,1,1,1,1,1,1,1,1,1,1,1,1,1,1,1,1,1,1,1,1,1,1,1,1,1,1,1,1,1,1,1,1,1,1,1,1,1,1,1,1,1,1,1,1,1,1,1,1,1,1,1,1,1,1,1,1,1,1,1,1,1,1,1,1,1,1,1,1,1,1,1,1,1,1,1,1,1,1,1,1,1,1,1,1,1,1,1,1,1,1,1,1,1,1,1,1,1,1,1,1,1,1,1,1,1,1,1,1,1,1,1,1,1,1,1,1,1,1,1,1,1,1,1,1,1,1,1,1,1,1,1,1,1,1,1,1,1,1,1,1,1,1,1,1,1,1,1,1,1,1,1,1,1,1,1,1,1,1,1,1,1,1,1,1,1,1,1,1,1],"number_of_sets":1,"coherent_direction":[33,303,33,303,303,303,303,303,33,303,33,33,303,33,33,303,303,33,303,33,303,33,303,33,303,303,33,303,33,303,303,303,303,33,303,33,33,33,303,303,33,303,33,33,303,303,33,33,33,303,33,33,33,33,303,303,33,303,33,33,33,303,33,33,303,303,303,303,33,33,33,33,33,303,33,33,303,33,33,303,33,303,33,303,303,303,303,303,303,33,303,33,33,303,303,303,33,33,303,33,33,33,303,303,33,303,33,303,303,33,33,33,303,33,33,303,303,303,33,33,303,303,33,33,33,303,33,303,33,33,33,303,303,33,303,33,33,33,33,33,33,303,303,33,303,303,303,303,303,303,33,33,33,33,303,33,33,303,33,303,33,303,303,33,303,303,33,33,33,33,33,303,303,33,303,303,303,303,303,303,303,33,303,33,33,303,303,33,33,303,303,303,303,33,303,303,33,303,33,33],"coherence":1,"opposite_coherence":0,"dot_radius":2,"dot_side_length":1,"dot_life":-1,"move_distance":1,"aperture_width":300,"aperture_height":300,"dot_color":["white","black","white","black","black","black","black","black","white","black","white","white","black","white","white","black","black","white","black","white","black","white","black","white","black","black","white","black","white","black","black","black","black","white","black","white","white","white","black","black","white","black","white","white","black","black","white","white","white","black","white","white","white","white","black","black","white","black","white","white","white","black","white","white","black","black","black","black","white","white","white","white","white","black","white","white","black","white","white","black","white","black","white","black","black","black","black","black","black","white","black","white","white","black","black","black","white","white","black","white","white","white","black","black","white","black","white","black","black","white","white","white","black","white","white","black","black","black","white","white","black","black","white","white","white","black","white","black","white","white","white","black","black","white","black","white","white","white","white","white","white","black","black","white","black","black","black","black","black","black","white","white","white","white","black","white","white","black","white","black","white","black","black","white","black","black","white","white","white","white","white","black","black","white","black","black","black","black","black","black","black","white","black","white","white","black","black","white","white","black","black","black","black","white","black","black","white","black","white","white"],"dot_shape":"circle","background_color":"#AAA","RDK_type":3,"aperture_type":2,"reinsert_type":2,"frame_rate":16.59504132231405,"frame_rate_array":[2,25,14,10,19,18,16,17,17,16,17,17,16,17,16,17,18,16,17,16,17,16,18,17,16,18,18,15,18,16,17,17,23,9,18,16,17,17,16,17,17,16,17,40,1,6,17,16,17,16,17,17,16,17,17,16,17,17,16,17,16,17,17,17,17,17,16,17,17,17,16,17,17,16,17,17,17,17,17,17,17,17,17,16,17,17,16,17,17,16,17,17,17,16,17,16,17,16,16,17,17,17,17,17,30,3,17,17,17,17,16,17,16,17,17,16,17,16,17,17,17],"number_of_frames":121,"aperture_center_x":768,"aperture_center_y":432,"fixation_cross":true,"fixation_cross_width":15,"fixation_cross_height":15,"fixation_cross_color":"#111","fixation_cross_thickness":1,"border":true,"border_thickness":2,"border_color":"transparent","canvas_width":1536,"canvas_height":864,"trial_type":"rdk","trial_index":88,"plugin_version":"2.0.0","time_elapsed":373283},{"rt":6513,"stimulus":"\n        <div class=\"response-container\">\n          <div class=\"response-instruction\">\n            <p>rotate the bar by using the left and right arrow keys.</p>\n            <p>when you are determined, press the Enter key.</p>\n          </div>\n          <div class=\"response-circle\">\n            <div class=\"response-fixation\"></div>\n            <div id=\"bar\" class=\"rotating-bar\"></div>\n          </div>\n        </div>\n      ","response":"Enter","trial_type":"html-keyboard-response","trial_index":89,"plugin_version":"2.1.0","time_elapsed":379798,"random_initial_angle":272,"response_angle_css":35,"response_angle_rdk":55,"angular_error_target":112,"angular_error_distractor":22,"target_direction":303,"target_group":"black","reward_points":0},{"rt":null,"stimulus":"\n          <p style=\"color: #FF3333;\">Your reward: 0 points</p>\n        ","response":null,"trial_type":"html-keyboard-response","trial_index":90,"plugin_version":"2.1.0","time_elapsed":381810},{"rt":null,"stimulus":"<div class=\"fixation\" style=\"font-size: 60px;\">+</div>","response":null,"trial_type":"html-keyboard-response","trial_index":91,"plugin_version":"2.1.0","time_elapsed":382818},{"target_group":"white","condition_label":"W_H_vs_B_L_rep20","target_direction":214,"distractor_direction":92,"session_rotation":170,"rt":-1,"response":"","correct":false,"choices":"ALL_KEYS","correct_choice":["a"],"trial_duration":2000,"flip_timestamps":[],"response_ends_trial":false,"number_of_apertures":200,"number_of_dots":[1,1,1,1,1,1,1,1,1,1,1,1,1,1,1,1,1,1,1,1,1,1,1,1,1,1,1,1,1,1,1,1,1,1,1,1,1,1,1,1,1,1,1,1,1,1,1,1,1,1,1,1,1,1,1,1,1,1,1,1,1,1,1,1,1,1,1,1,1,1,1,1,1,1,1,1,1,1,1,1,1,1,1,1,1,1,1,1,1,1,1,1,1,1,1,1,1,1,1,1,1,1,1,1,1,1,1,1,1,1,1,1,1,1,1,1,1,1,1,1,1,1,1,1,1,1,1,1,1,1,1,1,1,1,1,1,1,1,1,1,1,1,1,1,1,1,1,1,1,1,1,1,1,1,1,1,1,1,1,1,1,1,1,1,1,1,1,1,1,1,1,1,1,1,1,1,1,1,1,1,1,1,1,1,1,1,1,1,1,1,1,1,1,1,1,1,1,1,1,1],"number_of_sets":1,"coherent_direction":[214,92,214,214,92,92,92,92,214,214,214,92,92,214,214,214,92,214,92,92,92,214,214,214,214,214,214,214,214,92,92,92,92,214,214,92,214,92,92,214,92,214,214,92,214,92,214,214,92,92,92,92,214,214,214,92,214,92,214,92,214,214,214,214,214,214,214,92,92,92,214,92,92,92,92,214,92,92,92,92,92,214,92,214,92,92,92,214,92,92,92,92,214,214,92,92,92,214,92,214,214,92,214,214,92,92,92,214,214,92,92,214,92,92,92,214,92,92,92,214,214,214,214,92,92,214,214,214,92,92,214,214,214,92,214,214,92,214,92,214,214,92,214,92,92,214,92,214,92,92,92,214,214,92,92,92,214,92,92,214,214,214,214,214,214,92,92,92,92,214,92,214,214,214,214,92,92,214,92,92,92,214,92,214,214,92,92,214,214,92,214,214,214,214,92,214,92,214,92,214],"coherence":1,"opposite_coherence":0,"dot_radius":2,"dot_side_length":1,"dot_life":-1,"move_distance":1,"aperture_width":300,"aperture_height":300,"dot_color":["white","black","white","white","black","black","black","black","white","white","white","black","black","white","white","white","black","white","black","black","black","white","white","white","white","white","white","white","white","black","black","black","black","white","white","black","white","black","black","white","black","white","white","black","white","black","white","white","black","black","black","black","white","white","white","black","white","black","white","black","white","white","white","white","white","white","white","black","black","black","white","black","black","black","black","white","black","black","black","black","black","white","black","white","black","black","black","white","black","black","black","black","white","white","black","black","black","white","black","white","white","black","white","white","black","black","black","white","white","black","black","white","black","black","black","white","black","black","black","white","white","white","white","black","black","white","white","white","black","black","white","white","white","black","white","white","black","white","black","white","white","black","white","black","black","white","black","white","black","black","black","white","white","black","black","black","white","black","black","white","white","white","white","white","white","black","black","black","black","white","black","white","white","white","white","black","black","white","black","black","black","white","black","white","white","black","black","white","white","black","white","white","white","white","black","white","black","white","black","white"],"dot_shape":"circle","background_color":"#AAA","RDK_type":3,"aperture_type":2,"reinsert_type":2,"frame_rate":16.666666666666668,"frame_rate_array":[12,17,16,17,17,17,17,17,16,17,16,17,17,16,17,17,16,17,16,17,17,16,17,17,17,17,17,17,16,17,16,17,17,16,17,17,17,17,17,17,17,17,16,17,16,17,17,17,16,17,17,16,17,17,16,16,17,17,16,17,17,17,17,17,16,17,17,17,17,16,16,17,17,16,17,17,17,17,17,16,17,17,17,17,16,16,17,16,17,17,17,16,17,16,17,17,16,17,17,17,17,16,16,18,16,17,17,17,17,17,17,16,17,16,17,16,17,17,16,16],"number_of_frames":120,"aperture_center_x":768,"aperture_center_y":432,"fixation_cross":true,"fixation_cross_width":15,"fixation_cross_height":15,"fixation_cross_color":"#111","fixation_cross_thickness":1,"border":true,"border_thickness":2,"border_color":"transparent","canvas_width":1536,"canvas_height":864,"trial_type":"rdk","trial_index":92,"plugin_version":"2.0.0","time_elapsed":384836},{"rt":3697,"stimulus":"\n        <div class=\"response-container\">\n          <div class=\"response-instruction\">\n            <p>rotate the bar by using the left and right arrow keys.</p>\n            <p>when you are determined, press the Enter key.</p>\n          </div>\n          <div class=\"response-circle\">\n            <div class=\"response-fixation\"></div>\n            <div id=\"bar\" class=\"rotating-bar\"></div>\n          </div>\n        </div>\n      ","response":"Enter","trial_type":"html-keyboard-response","trial_index":93,"plugin_version":"2.1.0","time_elapsed":388533,"random_initial_angle":85,"response_angle_css":224,"response_angle_rdk":226,"angular_error_target":12,"angular_error_distractor":134,"target_direction":214,"target_group":"white","reward_points":7},{"rt":null,"stimulus":"\n          <p style=\"color: #00FF00;\">Your reward: 7 points</p>\n        ","response":null,"trial_type":"html-keyboard-response","trial_index":94,"plugin_version":"2.1.0","time_elapsed":390534},{"rt":null,"stimulus":"<div class=\"fixation\" style=\"font-size: 60px;\">+</div>","response":null,"trial_type":"html-keyboard-response","trial_index":95,"plugin_version":"2.1.0","time_elapsed":391551},{"target_group":"black","condition_label":"B_H_vs_W_L_rep19","target_direction":271,"distractor_direction":1,"session_rotation":170,"rt":-1,"response":"","correct":false,"choices":"ALL_KEYS","correct_choice":["a"],"trial_duration":2000,"flip_timestamps":[],"response_ends_trial":false,"number_of_apertures":200,"number_of_dots":[1,1,1,1,1,1,1,1,1,1,1,1,1,1,1,1,1,1,1,1,1,1,1,1,1,1,1,1,1,1,1,1,1,1,1,1,1,1,1,1,1,1,1,1,1,1,1,1,1,1,1,1,1,1,1,1,1,1,1,1,1,1,1,1,1,1,1,1,1,1,1,1,1,1,1,1,1,1,1,1,1,1,1,1,1,1,1,1,1,1,1,1,1,1,1,1,1,1,1,1,1,1,1,1,1,1,1,1,1,1,1,1,1,1,1,1,1,1,1,1,1,1,1,1,1,1,1,1,1,1,1,1,1,1,1,1,1,1,1,1,1,1,1,1,1,1,1,1,1,1,1,1,1,1,1,1,1,1,1,1,1,1,1,1,1,1,1,1,1,1,1,1,1,1,1,1,1,1,1,1,1,1,1,1,1,1,1,1,1,1,1,1,1,1,1,1,1,1,1,1],"number_of_sets":1,"coherent_direction":[271,1,1,1,1,1,271,1,271,271,271,1,271,1,1,1,1,271,1,271,271,1,271,1,271,1,1,1,1,271,271,271,271,1,271,271,1,1,271,271,1,271,1,1,1,271,1,271,1,1,271,1,1,1,271,1,271,271,1,271,1,271,271,1,1,271,1,1,1,1,271,271,1,1,271,1,271,1,271,271,1,1,271,271,271,1,1,271,1,271,271,1,271,1,1,271,271,1,271,1,1,1,1,271,1,1,271,1,1,271,271,1,271,1,271,1,271,1,1,271,1,1,271,271,1,271,1,1,271,1,271,271,271,1,271,271,271,271,271,1,271,1,271,271,271,1,1,1,271,1,1,1,271,1,1,271,1,271,271,271,271,271,271,1,271,271,271,271,1,271,271,271,271,1,271,1,1,1,271,271,1,271,271,271,271,1,1,271,1,271,271,1,1,1,1,271,271,271,1,1],"coherence":1,"opposite_coherence":0,"dot_radius":2,"dot_side_length":1,"dot_life":-1,"move_distance":1,"aperture_width":300,"aperture_height":300,"dot_color":["black","white","white","white","white","white","black","white","black","black","black","white","black","white","white","white","white","black","white","black","black","white","black","white","black","white","white","white","white","black","black","black","black","white","black","black","white","white","black","black","white","black","white","white","white","black","white","black","white","white","black","white","white","white","black","white","black","black","white","black","white","black","black","white","white","black","white","white","white","white","black","black","white","white","black","white","black","white","black","black","white","white","black","black","black","white","white","black","white","black","black","white","black","white","white","black","black","white","black","white","white","white","white","black","white","white","black","white","white","black","black","white","black","white","black","white","black","white","white","black","white","white","black","black","white","black","white","white","black","white","black","black","black","white","black","black","black","black","black","white","black","white","black","black","black","white","white","white","black","white","white","white","black","white","white","black","white","black","black","black","black","black","black","white","black","black","black","black","white","black","black","black","black","white","black","white","white","white","black","black","white","black","black","black","black","white","white","black","white","black","black","white","white","white","white","black","black","black","white","white"],"dot_shape":"circle","background_color":"#AAA","RDK_type":3,"aperture_type":2,"reinsert_type":2,"frame_rate":16.583333333333332,"frame_rate_array":[4,17,17,17,16,17,17,16,18,17,16,17,16,18,16,16,17,17,16,17,16,17,17,17,18,15,16,17,17,16,17,17,20,15,15,16,17,17,16,17,17,16,17,17,17,17,17,17,17,17,16,17,17,17,17,17,17,17,16,16,17,16,17,17,16,17,17,16,17,17,16,17,17,16,17,16,17,17,16,17,17,17,16,17,17,17,16,16,17,16,17,17,16,17,16,17,17,16,17,17,17,17,16,17,16,17,17,16,17,16,17,17,17,16,17,17,16,18,16,16],"number_of_frames":120,"aperture_center_x":768,"aperture_center_y":432,"fixation_cross":true,"fixation_cross_width":15,"fixation_cross_height":15,"fixation_cross_color":"#111","fixation_cross_thickness":1,"border":true,"border_thickness":2,"border_color":"transparent","canvas_width":1536,"canvas_height":864,"trial_type":"rdk","trial_index":96,"plugin_version":"2.0.0","time_elapsed":393566},{"rt":4301,"stimulus":"\n        <div class=\"response-container\">\n          <div class=\"response-instruction\">\n            <p>rotate the bar by using the left and right arrow keys.</p>\n            <p>when you are determined, press the Enter key.</p>\n          </div>\n          <div class=\"response-circle\">\n            <div class=\"response-fixation\"></div>\n            <div id=\"bar\" class=\"rotating-bar\"></div>\n          </div>\n        </div>\n      ","response":"Enter","trial_type":"html-keyboard-response","trial_index":97,"plugin_version":"2.1.0","time_elapsed":397868,"random_initial_angle":244,"response_angle_css":155,"response_angle_rdk":295,"angular_error_target":24,"angular_error_distractor":-66,"target_direction":271,"target_group":"black","reward_points":5},{"rt":null,"stimulus":"\n          <p style=\"color: #00FF00;\">Your reward: 5 points</p>\n        ","response":null,"trial_type":"html-keyboard-response","trial_index":98,"plugin_version":"2.1.0","time_elapsed":399878},{"rt":null,"stimulus":"<div class=\"fixation\" style=\"font-size: 60px;\">+</div>","response":null,"trial_type":"html-keyboard-response","trial_index":99,"plugin_version":"2.1.0","time_elapsed":400891},{"target_group":"white","condition_label":"W_H_vs_B_L_rep17","target_direction":199,"distractor_direction":85,"session_rotation":170,"rt":-1,"response":"","correct":false,"choices":"ALL_KEYS","correct_choice":["a"],"trial_duration":2000,"flip_timestamps":[],"response_ends_trial":false,"number_of_apertures":200,"number_of_dots":[1,1,1,1,1,1,1,1,1,1,1,1,1,1,1,1,1,1,1,1,1,1,1,1,1,1,1,1,1,1,1,1,1,1,1,1,1,1,1,1,1,1,1,1,1,1,1,1,1,1,1,1,1,1,1,1,1,1,1,1,1,1,1,1,1,1,1,1,1,1,1,1,1,1,1,1,1,1,1,1,1,1,1,1,1,1,1,1,1,1,1,1,1,1,1,1,1,1,1,1,1,1,1,1,1,1,1,1,1,1,1,1,1,1,1,1,1,1,1,1,1,1,1,1,1,1,1,1,1,1,1,1,1,1,1,1,1,1,1,1,1,1,1,1,1,1,1,1,1,1,1,1,1,1,1,1,1,1,1,1,1,1,1,1,1,1,1,1,1,1,1,1,1,1,1,1,1,1,1,1,1,1,1,1,1,1,1,1,1,1,1,1,1,1,1,1,1,1,1,1],"number_of_sets":1,"coherent_direction":[199,199,199,199,85,85,199,199,199,199,199,199,85,199,199,85,85,199,85,199,199,199,199,199,85,85,85,199,199,85,85,85,85,199,199,85,199,85,85,199,199,199,85,85,199,85,199,85,85,85,199,85,85,199,199,85,85,199,85,85,199,199,199,85,199,85,85,85,199,199,85,85,199,199,85,85,85,199,199,85,199,85,199,85,199,199,85,199,199,85,199,199,199,85,199,85,199,85,85,199,199,199,85,199,85,199,85,199,199,199,199,85,85,85,199,199,85,85,199,85,85,85,85,85,199,85,199,199,199,199,199,85,85,85,199,199,85,85,85,199,85,199,85,85,199,199,199,199,85,199,199,85,85,85,85,199,199,85,199,85,85,199,85,199,199,85,85,199,199,85,85,85,85,85,85,199,199,199,85,199,85,85,199,85,199,199,85,85,85,85,85,85,85,199,85,85,199,199,85,199],"coherence":1,"opposite_coherence":0,"dot_radius":2,"dot_side_length":1,"dot_life":-1,"move_distance":1,"aperture_width":300,"aperture_height":300,"dot_color":["white","white","white","white","black","black","white","white","white","white","white","white","black","white","white","black","black","white","black","white","white","white","white","white","black","black","black","white","white","black","black","black","black","white","white","black","white","black","black","white","white","white","black","black","white","black","white","black","black","black","white","black","black","white","white","black","black","white","black","black","white","white","white","black","white","black","black","black","white","white","black","black","white","white","black","black","black","white","white","black","white","black","white","black","white","white","black","white","white","black","white","white","white","black","white","black","white","black","black","white","white","white","black","white","black","white","black","white","white","white","white","black","black","black","white","white","black","black","white","black","black","black","black","black","white","black","white","white","white","white","white","black","black","black","white","white","black","black","black","white","black","white","black","black","white","white","white","white","black","white","white","black","black","black","black","white","white","black","white","black","black","white","black","white","white","black","black","white","white","black","black","black","black","black","black","white","white","white","black","white","black","black","white","black","white","white","black","black","black","black","black","black","black","white","black","black","white","white","black","white"],"dot_shape":"circle","background_color":"#AAA","RDK_type":3,"aperture_type":2,"reinsert_type":2,"frame_rate":16.570247933884296,"frame_rate_array":[6,17,20,15,15,18,18,15,19,16,16,18,16,17,17,17,16,17,16,16,18,16,17,17,16,17,17,17,16,18,15,17,23,11,16,17,16,17,17,16,18,16,17,16,17,18,17,15,18,16,17,17,25,6,19,17,15,18,16,18,16,16,17,16,17,32,1,14,17,17,17,17,16,17,17,16,17,16,17,17,17,16,17,17,16,18,16,16,16,17,16,17,17,16,17,16,17,17,16,16,16,17,17,16,17,17,16,17,17,17,16,17,17,16,16,17,17,16,17,17,16],"number_of_frames":121,"aperture_center_x":768,"aperture_center_y":432,"fixation_cross":true,"fixation_cross_width":15,"fixation_cross_height":15,"fixation_cross_color":"#111","fixation_cross_thickness":1,"border":true,"border_thickness":2,"border_color":"transparent","canvas_width":1536,"canvas_height":864,"trial_type":"rdk","trial_index":100,"plugin_version":"2.0.0","time_elapsed":402907},{"rt":2620,"stimulus":"\n        <div class=\"response-container\">\n          <div class=\"response-instruction\">\n            <p>rotate the bar by using the left and right arrow keys.</p>\n            <p>when you are determined, press the Enter key.</p>\n          </div>\n          <div class=\"response-circle\">\n            <div class=\"response-fixation\"></div>\n            <div id=\"bar\" class=\"rotating-bar\"></div>\n          </div>\n        </div>\n      ","response":"Enter","trial_type":"html-keyboard-response","trial_index":101,"plugin_version":"2.1.0","time_elapsed":405528,"random_initial_angle":331,"response_angle_css":236,"response_angle_rdk":214,"angular_error_target":15,"angular_error_distractor":129,"target_direction":199,"target_group":"white","reward_points":7},{"rt":null,"stimulus":"\n          <p style=\"color: #00FF00;\">Your reward: 7 points</p>\n        ","response":null,"trial_type":"html-keyboard-response","trial_index":102,"plugin_version":"2.1.0","time_elapsed":407542},{"rt":null,"stimulus":"<div class=\"fixation\" style=\"font-size: 60px;\">+</div>","response":null,"trial_type":"html-keyboard-response","trial_index":103,"plugin_version":"2.1.0","time_elapsed":408556},{"target_group":"white","condition_label":"W_H_vs_B_L_rep8","target_direction":205,"distractor_direction":92,"session_rotation":170,"rt":-1,"response":"","correct":false,"choices":"ALL_KEYS","correct_choice":["a"],"trial_duration":2000,"flip_timestamps":[],"response_ends_trial":false,"number_of_apertures":200,"number_of_dots":[1,1,1,1,1,1,1,1,1,1,1,1,1,1,1,1,1,1,1,1,1,1,1,1,1,1,1,1,1,1,1,1,1,1,1,1,1,1,1,1,1,1,1,1,1,1,1,1,1,1,1,1,1,1,1,1,1,1,1,1,1,1,1,1,1,1,1,1,1,1,1,1,1,1,1,1,1,1,1,1,1,1,1,1,1,1,1,1,1,1,1,1,1,1,1,1,1,1,1,1,1,1,1,1,1,1,1,1,1,1,1,1,1,1,1,1,1,1,1,1,1,1,1,1,1,1,1,1,1,1,1,1,1,1,1,1,1,1,1,1,1,1,1,1,1,1,1,1,1,1,1,1,1,1,1,1,1,1,1,1,1,1,1,1,1,1,1,1,1,1,1,1,1,1,1,1,1,1,1,1,1,1,1,1,1,1,1,1,1,1,1,1,1,1,1,1,1,1,1,1],"number_of_sets":1,"coherent_direction":[92,92,205,92,92,92,205,205,205,92,205,205,205,205,92,92,92,92,92,205,205,205,205,205,92,92,205,205,205,205,92,205,92,92,92,92,205,205,92,92,92,205,92,92,205,92,205,92,205,205,205,205,92,205,205,92,92,205,205,205,92,205,205,92,92,205,205,92,205,205,92,205,205,92,92,205,92,92,205,92,92,205,205,92,205,92,92,92,92,205,92,92,92,92,92,205,205,92,205,92,205,205,92,92,205,205,92,92,92,92,92,92,205,205,92,92,92,205,92,92,205,92,205,92,92,92,92,205,92,205,205,92,92,205,205,205,92,92,92,205,205,205,205,205,205,205,92,205,92,92,205,205,92,205,205,92,92,92,92,92,205,92,92,205,92,205,205,92,92,92,205,205,205,205,92,205,92,205,205,92,205,205,92,205,205,92,205,92,205,92,205,205,205,92,205,92,205,205,205,92],"coherence":1,"opposite_coherence":0,"dot_radius":2,"dot_side_length":1,"dot_life":-1,"move_distance":1,"aperture_width":300,"aperture_height":300,"dot_color":["black","black","white","black","black","black","white","white","white","black","white","white","white","white","black","black","black","black","black","white","white","white","white","white","black","black","white","white","white","white","black","white","black","black","black","black","white","white","black","black","black","white","black","black","white","black","white","black","white","white","white","white","black","white","white","black","black","white","white","white","black","white","white","black","black","white","white","black","white","white","black","white","white","black","black","white","black","black","white","black","black","white","white","black","white","black","black","black","black","white","black","black","black","black","black","white","white","black","white","black","white","white","black","black","white","white","black","black","black","black","black","black","white","white","black","black","black","white","black","black","white","black","white","black","black","black","black","white","black","white","white","black","black","white","white","white","black","black","black","white","white","white","white","white","white","white","black","white","black","black","white","white","black","white","white","black","black","black","black","black","white","black","black","white","black","white","white","black","black","black","white","white","white","white","black","white","black","white","white","black","white","white","black","white","white","black","white","black","white","black","white","white","white","black","white","black","white","white","white","black"],"dot_shape":"circle","background_color":"#AAA","RDK_type":3,"aperture_type":2,"reinsert_type":2,"frame_rate":16.669421487603305,"frame_rate_array":[3,24,11,16,18,18,17,16,17,17,15,17,18,16,17,17,15,18,17,15,18,16,16,18,15,18,23,10,17,17,18,17,17,16,17,16,17,17,17,16,18,16,17,16,17,17,22,12,15,18,15,17,17,16,18,16,15,18,17,16,18,18,16,16,17,16,24,9,17,17,16,16,18,15,18,17,16,18,17,16,19,15,16,17,17,16,24,9,17,18,15,18,17,16,17,17,17,17,18,16,16,17,16,18,16,16,24,10,17,17,15,18,18,15,17,16,17,17,17,15,23],"number_of_frames":121,"aperture_center_x":768,"aperture_center_y":432,"fixation_cross":true,"fixation_cross_width":15,"fixation_cross_height":15,"fixation_cross_color":"#111","fixation_cross_thickness":1,"border":true,"border_thickness":2,"border_color":"transparent","canvas_width":1536,"canvas_height":864,"trial_type":"rdk","trial_index":104,"plugin_version":"2.0.0","time_elapsed":410568},{"rt":2249,"stimulus":"\n        <div class=\"response-container\">\n          <div class=\"response-instruction\">\n            <p>rotate the bar by using the left and right arrow keys.</p>\n            <p>when you are determined, press the Enter key.</p>\n          </div>\n          <div class=\"response-circle\">\n            <div class=\"response-fixation\"></div>\n            <div id=\"bar\" class=\"rotating-bar\"></div>\n          </div>\n        </div>\n      ","response":"Enter","trial_type":"html-keyboard-response","trial_index":105,"plugin_version":"2.1.0","time_elapsed":412818,"random_initial_angle":274,"response_angle_css":216,"response_angle_rdk":234,"angular_error_target":29,"angular_error_distractor":142,"target_direction":205,"target_group":"white","reward_points":4},{"rt":null,"stimulus":"\n          <p style=\"color: #00FF00;\">Your reward: 4 points</p>\n        ","response":null,"trial_type":"html-keyboard-response","trial_index":106,"plugin_version":"2.1.0","time_elapsed":414830},{"rt":null,"stimulus":"<div class=\"fixation\" style=\"font-size: 60px;\">+</div>","response":null,"trial_type":"html-keyboard-response","trial_index":107,"plugin_version":"2.1.0","time_elapsed":415834},{"target_group":"black","condition_label":"B_H_vs_W_L_rep23","target_direction":269,"distractor_direction":10,"session_rotation":170,"rt":-1,"response":"","correct":false,"choices":"ALL_KEYS","correct_choice":["a"],"trial_duration":2000,"flip_timestamps":[],"response_ends_trial":false,"number_of_apertures":200,"number_of_dots":[1,1,1,1,1,1,1,1,1,1,1,1,1,1,1,1,1,1,1,1,1,1,1,1,1,1,1,1,1,1,1,1,1,1,1,1,1,1,1,1,1,1,1,1,1,1,1,1,1,1,1,1,1,1,1,1,1,1,1,1,1,1,1,1,1,1,1,1,1,1,1,1,1,1,1,1,1,1,1,1,1,1,1,1,1,1,1,1,1,1,1,1,1,1,1,1,1,1,1,1,1,1,1,1,1,1,1,1,1,1,1,1,1,1,1,1,1,1,1,1,1,1,1,1,1,1,1,1,1,1,1,1,1,1,1,1,1,1,1,1,1,1,1,1,1,1,1,1,1,1,1,1,1,1,1,1,1,1,1,1,1,1,1,1,1,1,1,1,1,1,1,1,1,1,1,1,1,1,1,1,1,1,1,1,1,1,1,1,1,1,1,1,1,1,1,1,1,1,1,1],"number_of_sets":1,"coherent_direction":[269,10,10,10,10,269,10,10,269,10,269,10,269,10,10,269,269,10,10,10,10,10,10,10,269,269,269,10,10,10,269,269,10,269,10,10,269,10,10,10,10,269,10,269,10,10,269,10,10,10,10,10,269,269,10,10,10,269,26