[{"rt":285,"stimulus":"Welcome to the experiment. Press any key to begin.","response":"Control","trial_type":"html-keyboard-response","trial_index":0,"plugin_version":"2.1.0","time_elapsed":286},{"rt":62220,"stimulus":"\n        <div class=\"instructions-container\">\n          <h2>Instructions</h2>\n\n          <p>\n          In this experiment, you will see <strong>two Random Dot Kinematograms (RDKs)</strong> displayed simultaneously.\n          </p>\n\n          <p>\n          An RDK is a visual stimulus consisting of many small dots that move coherently in a single direction. \n          In this experiment, the dots will be either <strong>white</strong> or <strong>black</strong> \n          (see the short demo below for an example of an RDK stimulus).\n          </p>\n\n          <p>\n          On each trial, the two RDKs will move in different directions. \n          Your task is to decide <strong>which RDK appears to contain more dots</strong>.\n          </p>\n\n          <p>\n          The RDK that you judge to have more dots is called the <strong>target RDK</strong>. \n          For example, if the white RDK appears to have more dots than the black RDK, \n          you should report the motion direction of the white RDK.\n          </p>\n\n          <p>\n          After viewing the RDKs, you will rotate a bar to indicate the perceived direction of the target RDK \n          using the <strong>left</strong> and <strong>right arrow keys</strong>. \n          Press <strong>Enter</strong> when you are satisfied with your response.\n          </p>\n\n          <p>\n          You will receive points based on the <strong>accuracy of your response</strong>, \n          and your final <strong>bonus reward</strong> may depend on your overall performance. \n          Please try to respond as accurately as possible.\n          </p>\n\n          <p>\n          You will first complete <strong>16 practice trials</strong>. \n          Press the <strong>Enter</strong> key to start the practice phase.\n          </p>\n\n          <canvas id=\"instruction-demo-rdk\" width=\"200\" height=\"200\"style=\"display:block;margin:12px auto; border-radius: 50%;\"></canvas>\n        </div>\n      ","response":"Enter","trial_type":"html-keyboard-response","trial_index":1,"plugin_version":"2.1.0","time_elapsed":62507},{"rt":null,"stimulus":"<div class=\"fixation\" style=\"font-size: 60px;\">+</div>","response":null,"trial_type":"html-keyboard-response","trial_index":2,"plugin_version":"2.1.0","time_elapsed":63511},{"target_group":"black","target_index":1,"condition_label":"practice","rt":-1,"response":"","correct":false,"choices":"ALL_KEYS","correct_choice":["a"],"trial_duration":2000,"flip_timestamps":[],"response_ends_trial":false,"number_of_apertures":2,"number_of_dots":[80,100],"number_of_sets":1,"coherent_direction":[36,132],"coherence":1,"opposite_coherence":0,"dot_radius":2,"dot_side_length":1,"dot_life":-1,"move_distance":1,"aperture_width":300,"aperture_height":300,"dot_color":["white","black"],"dot_shape":"circle","background_color":"#AAA","RDK_type":3,"aperture_type":2,"reinsert_type":2,"frame_rate":16.8,"frame_rate_array":[11,16,17,17,17,16,17,17,17,17,16,17,16,17,16,17,17,17,16,17,18,17,16,17,17,17,16,17,17,17,16,17,17,17,16,17,17,17,17,17,17,17,17,17,17,16,17,18,17,17,17,17,16,18,16,17,17,16,18,17,16,18,17,16,18,17,17,16,16,18,17,16,16,18,17,17,16,18,17,16,17,17,16,17,16,18,17,16,17,17,16,17,17,16,18,17,17,17,17,17,17,16,18,17,17,17,16,18,17,16,18,17,17,17,17,17,17,15,18,16],"number_of_frames":120,"aperture_center_x":680.5,"aperture_center_y":619,"fixation_cross":true,"fixation_cross_width":15,"fixation_cross_height":15,"fixation_cross_color":"#111","fixation_cross_thickness":1,"border":true,"border_thickness":2,"border_color":"transparent","canvas_width":1361,"canvas_height":1238,"trial_type":"rdk","trial_index":3,"plugin_version":"2.0.0","time_elapsed":65517,"target_direction":132,"distractor_direction":36},{"rt":8622,"stimulus":"\n        <div class=\"response-container\">\n          <div class=\"response-instruction\">\n            <p>rotate the bar by using the left and right arrow keys.</p>\n            <p>when you are determined, press the Enter key.</p>\n          </div>\n          <div class=\"response-circle\">\n            <div class=\"response-fixation\"></div>\n            <div id=\"bar\" class=\"rotating-bar\"></div>\n          </div>\n        </div>\n      ","response":"Enter","trial_type":"html-keyboard-response","trial_index":4,"plugin_version":"2.1.0","time_elapsed":74141,"random_initial_angle":149,"response_angle_css":280,"response_angle_rdk":170,"angular_error_target":38,"angular_error_distractor":134,"target_direction":132,"target_group":"black","reward_points":2},{"rt":null,"stimulus":"\n          <p style=\"color: #FF3333;\">Your reward: 2 points</p>\n        ","response":null,"trial_type":"html-keyboard-response","trial_index":5,"plugin_version":"2.1.0","time_elapsed":76144},{"rt":null,"stimulus":"<div class=\"fixation\" style=\"font-size: 60px;\">+</div>","response":null,"trial_type":"html-keyboard-response","trial_index":6,"plugin_version":"2.1.0","time_elapsed":77147},{"target_group":"white","target_index":0,"condition_label":"practice","rt":-1,"response":"","correct":false,"choices":"ALL_KEYS","correct_choice":["a"],"trial_duration":2000,"flip_timestamps":[],"response_ends_trial":false,"number_of_apertures":2,"number_of_dots":[100,83],"number_of_sets":1,"coherent_direction":[243,13],"coherence":1,"opposite_coherence":0,"dot_radius":2,"dot_side_length":1,"dot_life":-1,"move_distance":1,"aperture_width":300,"aperture_height":300,"dot_color":["white","black"],"dot_shape":"circle","background_color":"#AAA","RDK_type":3,"aperture_type":2,"reinsert_type":2,"frame_rate":16.96638655462185,"frame_rate_array":[24,17,17,17,17,17,17,16,17,16,17,17,16,18,17,17,17,17,17,17,17,17,17,17,16,17,17,17,17,16,18,17,17,16,17,17,17,17,17,16,17,17,17,17,17,17,16,18,17,17,17,16,17,17,17,17,17,17,17,17,17,17,16,16,17,17,17,17,17,17,17,16,17,18,17,17,17,17,17,17,16,18,17,17,17,17,17,17,16,17,17,17,16,18,16,18,17,17,17,17,17,17,17,17,17,17,16,17,17,16,17,18,17,16,18,17,17,17,16],"number_of_frames":119,"aperture_center_x":680.5,"aperture_center_y":619,"fixation_cross":true,"fixation_cross_width":15,"fixation_cross_height":15,"fixation_cross_color":"#111","fixation_cross_thickness":1,"border":true,"border_thickness":2,"border_color":"transparent","canvas_width":1361,"canvas_height":1238,"trial_type":"rdk","trial_index":7,"plugin_version":"2.0.0","time_elapsed":79150,"target_direction":243,"distractor_direction":13},{"rt":2352,"stimulus":"\n        <div class=\"response-container\">\n          <div class=\"response-instruction\">\n            <p>rotate the bar by using the left and right arrow keys.</p>\n            <p>when you are determined, press the Enter key.</p>\n          </div>\n          <div class=\"response-circle\">\n            <div class=\"response-fixation\"></div>\n            <div id=\"bar\" class=\"rotating-bar\"></div>\n          </div>\n        </div>\n      ","response":"Enter","trial_type":"html-keyboard-response","trial_index":8,"plugin_version":"2.1.0","time_elapsed":81504,"random_initial_angle":63,"response_angle_css":44,"response_angle_rdk":46,"angular_error_target":163,"angular_error_distractor":33,"target_direction":243,"target_group":"white","reward_points":0},{"rt":null,"stimulus":"\n          <p style=\"color: #FF3333;\">Your reward: 0 points</p>\n        ","response":null,"trial_type":"html-keyboard-response","trial_index":9,"plugin_version":"2.1.0","time_elapsed":83507},{"rt":null,"stimulus":"<div class=\"fixation\" style=\"font-size: 60px;\">+</div>","response":null,"trial_type":"html-keyboard-response","trial_index":10,"plugin_version":"2.1.0","time_elapsed":84510},{"target_group":"black","target_index":1,"condition_label":"practice","rt":-1,"response":"","correct":false,"choices":"ALL_KEYS","correct_choice":["a"],"trial_duration":2000,"flip_timestamps":[],"response_ends_trial":false,"number_of_apertures":2,"number_of_dots":[91,100],"number_of_sets":1,"coherent_direction":[219,82],"coherence":1,"opposite_coherence":0,"dot_radius":2,"dot_side_length":1,"dot_life":-1,"move_distance":1,"aperture_width":300,"aperture_height":300,"dot_color":["white","black"],"dot_shape":"circle","background_color":"#AAA","RDK_type":3,"aperture_type":2,"reinsert_type":2,"frame_rate":16.89075630252101,"frame_rate_array":[17,17,17,17,17,16,18,17,17,17,17,16,17,17,17,17,17,17,17,17,17,17,17,17,17,16,17,17,17,17,17,17,17,17,17,17,17,17,17,17,16,18,16,17,17,16,17,17,16,16,17,17,17,17,17,17,16,17,17,16,17,17,17,17,17,17,17,17,17,15,18,17,17,17,17,17,17,17,16,18,17,16,17,17,17,17,15,18,17,17,17,17,17,16,17,17,17,17,17,17,17,17,17,17,17,17,17,17,17,17,17,17,17,17,17,16,17,17,17],"number_of_frames":119,"aperture_center_x":680.5,"aperture_center_y":619,"fixation_cross":true,"fixation_cross_width":15,"fixation_cross_height":15,"fixation_cross_color":"#111","fixation_cross_thickness":1,"border":true,"border_thickness":2,"border_color":"transparent","canvas_width":1361,"canvas_height":1238,"trial_type":"rdk","trial_index":11,"plugin_version":"2.0.0","time_elapsed":86514,"target_direction":82,"distractor_direction":219},{"rt":2836,"stimulus":"\n        <div class=\"response-container\">\n          <div class=\"response-instruction\">\n            <p>rotate the bar by using the left and right arrow keys.</p>\n            <p>when you are determined, press the Enter key.</p>\n          </div>\n          <div class=\"response-circle\">\n            <div class=\"response-fixation\"></div>\n            <div id=\"bar\" class=\"rotating-bar\"></div>\n          </div>\n        </div>\n      ","response":"Enter","trial_type":"html-keyboard-response","trial_index":12,"plugin_version":"2.1.0","time_elapsed":89351,"random_initial_angle":181,"response_angle_css":19,"response_angle_rdk":71,"angular_error_target":-11,"angular_error_distractor":-148,"target_direction":82,"target_group":"black","reward_points":7},{"rt":null,"stimulus":"\n          <p style=\"color: #00FF00;\">Your reward: 7 points</p>\n        ","response":null,"trial_type":"html-keyboard-response","trial_index":13,"plugin_version":"2.1.0","time_elapsed":91354},{"rt":null,"stimulus":"<div class=\"fixation\" style=\"font-size: 60px;\">+</div>","response":null,"trial_type":"html-keyboard-response","trial_index":14,"plugin_version":"2.1.0","time_elapsed":92357},{"target_group":"white","target_index":0,"condition_label":"practice","rt":-1,"response":"","correct":false,"choices":"ALL_KEYS","correct_choice":["a"],"trial_duration":2000,"flip_timestamps":[],"response_ends_trial":false,"number_of_apertures":2,"number_of_dots":[100,83],"number_of_sets":1,"coherent_direction":[275,146],"coherence":1,"opposite_coherence":0,"dot_radius":2,"dot_side_length":1,"dot_life":-1,"move_distance":1,"aperture_width":300,"aperture_height":300,"dot_color":["white","black"],"dot_shape":"circle","background_color":"#AAA","RDK_type":3,"aperture_type":2,"reinsert_type":2,"frame_rate":16.866666666666667,"frame_rate_array":[11,17,17,17,16,18,17,17,17,17,17,17,16,17,17,17,16,18,17,17,17,17,17,17,17,16,17,17,17,17,17,17,17,17,17,17,16,18,17,17,16,17,16,17,16,17,17,17,16,17,17,17,16,17,17,17,17,17,17,17,17,17,17,17,17,17,17,17,17,17,17,17,17,16,18,16,18,17,17,17,17,17,17,16,17,17,17,17,17,17,17,17,17,17,17,17,17,17,17,17,17,17,16,17,17,17,17,17,17,17,17,17,17,17,17,17,16,17,17,17],"number_of_frames":120,"aperture_center_x":680.5,"aperture_center_y":619,"fixation_cross":true,"fixation_cross_width":15,"fixation_cross_height":15,"fixation_cross_color":"#111","fixation_cross_thickness":1,"border":true,"border_thickness":2,"border_color":"transparent","canvas_width":1361,"canvas_height":1238,"trial_type":"rdk","trial_index":15,"plugin_version":"2.0.0","time_elapsed":94359,"target_direction":275,"distractor_direction":146},{"rt":2811,"stimulus":"\n        <div class=\"response-container\">\n          <div class=\"response-instruction\">\n            <p>rotate the bar by using the left and right arrow keys.</p>\n            <p>when you are determined, press the Enter key.</p>\n          </div>\n          <div class=\"response-circle\">\n            <div class=\"response-fixation\"></div>\n            <div id=\"bar\" class=\"rotating-bar\"></div>\n          </div>\n        </div>\n      ","response":"Enter","trial_type":"html-keyboard-response","trial_index":16,"plugin_version":"2.1.0","time_elapsed":97170,"random_initial_angle":97,"response_angle_css":-48,"response_angle_rdk":138,"angular_error_target":-137,"angular_error_distractor":-8,"target_direction":275,"target_group":"white","reward_points":0},{"rt":null,"stimulus":"\n          <p style=\"color: #FF3333;\">Your reward: 0 points</p>\n        ","response":null,"trial_type":"html-keyboard-response","trial_index":17,"plugin_version":"2.1.0","time_elapsed":99173},{"rt":null,"stimulus":"<div class=\"fixation\" style=\"font-size: 60px;\">+</div>","response":null,"trial_type":"html-keyboard-response","trial_index":18,"plugin_version":"2.1.0","time_elapsed":100175},{"target_group":"black","target_index":1,"condition_label":"practice","rt":-1,"response":"","correct":false,"choices":"ALL_KEYS","correct_choice":["a"],"trial_duration":2000,"flip_timestamps":[],"response_ends_trial":false,"number_of_apertures":2,"number_of_dots":[74,100],"number_of_sets":1,"coherent_direction":[116,265],"coherence":1,"opposite_coherence":0,"dot_radius":2,"dot_side_length":1,"dot_life":-1,"move_distance":1,"aperture_width":300,"aperture_height":300,"dot_color":["white","black"],"dot_shape":"circle","background_color":"#AAA","RDK_type":3,"aperture_type":2,"reinsert_type":2,"frame_rate":16.883333333333333,"frame_rate_array":[16,17,17,17,17,17,17,17,17,16,18,16,17,17,17,17,17,17,17,17,17,17,17,17,17,17,17,17,17,17,16,18,17,16,17,17,17,17,17,17,17,17,17,17,17,16,17,16,17,17,17,17,15,17,18,17,17,17,17,17,17,17,17,17,17,17,17,17,16,17,17,16,17,17,16,18,16,17,17,17,17,17,16,16,18,17,17,17,17,17,16,18,17,17,16,18,17,16,18,16,17,17,16,17,17,16,17,17,17,17,17,17,17,17,17,17,17,17,16,17],"number_of_frames":120,"aperture_center_x":680.5,"aperture_center_y":619,"fixation_cross":true,"fixation_cross_width":15,"fixation_cross_height":15,"fixation_cross_color":"#111","fixation_cross_thickness":1,"border":true,"border_thickness":2,"border_color":"transparent","canvas_width":1361,"canvas_height":1238,"trial_type":"rdk","trial_index":19,"plugin_version":"2.0.0","time_elapsed":102178,"target_direction":265,"distractor_direction":116},{"rt":3227,"stimulus":"\n        <div class=\"response-container\">\n          <div class=\"response-instruction\">\n            <p>rotate the bar by using the left and right arrow keys.</p>\n            <p>when you are determined, press the Enter key.</p>\n          </div>\n          <div class=\"response-circle\">\n            <div class=\"response-fixation\"></div>\n            <div id=\"bar\" class=\"rotating-bar\"></div>\n          </div>\n        </div>\n      ","response":"Enter","trial_type":"html-keyboard-response","trial_index":20,"plugin_version":"2.1.0","time_elapsed":105406,"random_initial_angle":9,"response_angle_css":172,"response_angle_rdk":278,"angular_error_target":13,"angular_error_distractor":162,"target_direction":265,"target_group":"black","reward_points":7},{"rt":null,"stimulus":"\n          <p style=\"color: #00FF00;\">Your reward: 7 points</p>\n        ","response":null,"trial_type":"html-keyboard-response","trial_index":21,"plugin_version":"2.1.0","time_elapsed":107409},{"rt":null,"stimulus":"<div class=\"fixation\" style=\"font-size: 60px;\">+</div>","response":null,"trial_type":"html-keyboard-response","trial_index":22,"plugin_version":"2.1.0","time_elapsed":108411},{"target_group":"black","target_index":1,"condition_label":"practice","rt":-1,"response":"","correct":false,"choices":"ALL_KEYS","correct_choice":["a"],"trial_duration":2000,"flip_timestamps":[],"response_ends_trial":false,"number_of_apertures":2,"number_of_dots":[54,100],"number_of_sets":1,"coherent_direction":[64,198],"coherence":1,"opposite_coherence":0,"dot_radius":2,"dot_side_length":1,"dot_life":-1,"move_distance":1,"aperture_width":300,"aperture_height":300,"dot_color":["white","black"],"dot_shape":"circle","background_color":"#AAA","RDK_type":3,"aperture_type":2,"reinsert_type":2,"frame_rate":16.907563025210084,"frame_rate_array":[21,17,16,16,17,17,17,17,17,17,17,17,17,17,17,17,17,17,16,17,16,17,17,17,17,17,17,17,17,17,17,17,17,17,17,17,17,17,16,17,17,17,16,18,17,17,16,17,17,17,17,17,17,17,17,17,16,17,17,17,17,17,17,17,17,17,17,16,18,17,17,17,17,17,17,16,18,16,17,16,17,17,16,17,17,17,17,15,18,17,17,16,17,17,17,17,17,17,16,16,18,17,17,17,17,17,17,17,16,18,17,17,16,17,16,17,17,17,17],"number_of_frames":119,"aperture_center_x":680.5,"aperture_center_y":619,"fixation_cross":true,"fixation_cross_width":15,"fixation_cross_height":15,"fixation_cross_color":"#111","fixation_cross_thickness":1,"border":true,"border_thickness":2,"border_color":"transparent","canvas_width":1361,"canvas_height":1238,"trial_type":"rdk","trial_index":23,"plugin_version":"2.0.0","time_elapsed":110414,"target_direction":198,"distractor_direction":64},{"rt":3261,"stimulus":"\n        <div class=\"response-container\">\n          <div class=\"response-instruction\">\n            <p>rotate the bar by using the left and right arrow keys.</p>\n            <p>when you are determined, press the Enter key.</p>\n          </div>\n          <div class=\"response-circle\">\n            <div class=\"response-fixation\"></div>\n            <div id=\"bar\" class=\"rotating-bar\"></div>\n          </div>\n        </div>\n      ","response":"Enter","trial_type":"html-keyboard-response","trial_index":24,"plugin_version":"2.1.0","time_elapsed":113676,"random_initial_angle":50,"response_angle_css":-133,"response_angle_rdk":223,"angular_error_target":25,"angular_error_distractor":159,"target_direction":198,"target_group":"black","reward_points":5},{"rt":null,"stimulus":"\n          <p style=\"color: #00FF00;\">Your reward: 5 points</p>\n        ","response":null,"trial_type":"html-keyboard-response","trial_index":25,"plugin_version":"2.1.0","time_elapsed":115678},{"rt":null,"stimulus":"<div class=\"fixation\" style=\"font-size: 60px;\">+</div>","response":null,"trial_type":"html-keyboard-response","trial_index":26,"plugin_version":"2.1.0","time_elapsed":116680},{"target_group":"white","target_index":0,"condition_label":"practice","rt":-1,"response":"","correct":false,"choices":"ALL_KEYS","correct_choice":["a"],"trial_duration":2000,"flip_timestamps":[],"response_ends_trial":false,"number_of_apertures":2,"number_of_dots":[100,94],"number_of_sets":1,"coherent_direction":[304,160],"coherence":1,"opposite_coherence":0,"dot_radius":2,"dot_side_length":1,"dot_life":-1,"move_distance":1,"aperture_width":300,"aperture_height":300,"dot_color":["white","black"],"dot_shape":"circle","background_color":"#AAA","RDK_type":3,"aperture_type":2,"reinsert_type":2,"frame_rate":16.991596638655462,"frame_rate_array":[24,17,17,17,17,16,17,17,17,16,18,17,16,18,17,17,17,16,17,17,17,17,16,18,17,17,17,16,17,17,17,17,17,17,17,17,17,17,17,17,17,17,17,17,17,17,17,17,17,17,17,17,17,17,17,17,17,17,17,17,16,17,17,17,17,17,17,17,16,17,17,17,17,17,17,17,17,17,17,17,16,17,17,17,17,17,17,17,17,17,17,16,18,17,17,17,17,17,17,16,17,17,16,17,17,17,17,17,17,17,17,17,17,17,16,18,17,17,17],"number_of_frames":119,"aperture_center_x":680.5,"aperture_center_y":619,"fixation_cross":true,"fixation_cross_width":15,"fixation_cross_height":15,"fixation_cross_color":"#111","fixation_cross_thickness":1,"border":true,"border_thickness":2,"border_color":"transparent","canvas_width":1361,"canvas_height":1238,"trial_type":"rdk","trial_index":27,"plugin_version":"2.0.0","time_elapsed":118684,"target_direction":304,"distractor_direction":160},{"rt":1907,"stimulus":"\n        <div class=\"response-container\">\n          <div class=\"response-instruction\">\n            <p>rotate the bar by using the left and right arrow keys.</p>\n            <p>when you are determined, press the Enter key.</p>\n          </div>\n          <div class=\"response-circle\">\n            <div class=\"response-fixation\"></div>\n            <div id=\"bar\" class=\"rotating-bar\"></div>\n          </div>\n        </div>\n      ","response":"Enter","trial_type":"html-keyboard-response","trial_index":28,"plugin_version":"2.1.0","time_elapsed":120592,"random_initial_angle":5,"response_angle_css":-40,"response_angle_rdk":130,"angular_error_target":-174,"angular_error_distractor":-30,"target_direction":304,"target_group":"white","reward_points":0},{"rt":null,"stimulus":"\n          <p style=\"color: #FF3333;\">Your reward: 0 points</p>\n        ","response":null,"trial_type":"html-keyboard-response","trial_index":29,"plugin_version":"2.1.0","time_elapsed":122594},{"rt":null,"stimulus":"<div class=\"fixation\" style=\"font-size: 60px;\">+</div>","response":null,"trial_type":"html-keyboard-response","trial_index":30,"plugin_version":"2.1.0","time_elapsed":123596},{"target_group":"white","target_index":0,"condition_label":"practice","rt":-1,"response":"","correct":false,"choices":"ALL_KEYS","correct_choice":["a"],"trial_duration":2000,"flip_timestamps":[],"response_ends_trial":false,"number_of_apertures":2,"number_of_dots":[100,76],"number_of_sets":1,"coherent_direction":[192,36],"coherence":1,"opposite_coherence":0,"dot_radius":2,"dot_side_length":1,"dot_life":-1,"move_distance":1,"aperture_width":300,"aperture_height":300,"dot_color":["white","black"],"dot_shape":"circle","background_color":"#AAA","RDK_type":3,"aperture_type":2,"reinsert_type":2,"frame_rate":16.875,"frame_rate_array":[14,16,17,17,17,17,17,16,17,17,17,16,17,17,16,18,17,17,16,17,17,17,17,17,17,17,17,17,17,16,18,17,17,17,17,16,17,18,17,16,17,17,17,17,17,16,17,17,17,17,17,17,17,17,17,17,17,17,17,17,16,17,17,17,17,16,17,17,17,17,17,16,16,17,17,17,17,17,17,17,17,17,17,17,17,17,17,17,16,18,17,17,17,17,17,17,17,17,17,17,17,16,17,17,17,17,17,17,17,17,17,17,17,17,17,17,17,17,16,17],"number_of_frames":120,"aperture_center_x":680.5,"aperture_center_y":619,"fixation_cross":true,"fixation_cross_width":15,"fixation_cross_height":15,"fixation_cross_color":"#111","fixation_cross_thickness":1,"border":true,"border_thickness":2,"border_color":"transparent","canvas_width":1361,"canvas_height":1238,"trial_type":"rdk","trial_index":31,"plugin_version":"2.0.0","time_elapsed":125599,"target_direction":192,"distractor_direction":36},{"rt":2257,"stimulus":"\n        <div class=\"response-container\">\n          <div class=\"response-instruction\">\n            <p>rotate the bar by using the left and right arrow keys.</p>\n            <p>when you are determined, press the Enter key.</p>\n          </div>\n          <div class=\"response-circle\">\n            <div class=\"response-fixation\"></div>\n            <div id=\"bar\" class=\"rotating-bar\"></div>\n          </div>\n        </div>\n      ","response":"Enter","trial_type":"html-keyboard-response","trial_index":32,"plugin_version":"2.1.0","time_elapsed":127856,"random_initial_angle":209,"response_angle_css":226,"response_angle_rdk":224,"angular_error_target":32,"angular_error_distractor":-172,"target_direction":192,"target_group":"white","reward_points":3},{"rt":null,"stimulus":"\n          <p style=\"color: #00FF00;\">Your reward: 3 points</p>\n        ","response":null,"trial_type":"html-keyboard-response","trial_index":33,"plugin_version":"2.1.0","time_elapsed":129858},{"rt":null,"stimulus":"<div class=\"fixation\" style=\"font-size: 60px;\">+</div>","response":null,"trial_type":"html-keyboard-response","trial_index":34,"plugin_version":"2.1.0","time_elapsed":130859},{"target_group":"white","target_index":0,"condition_label":"practice","rt":-1,"response":"","correct":false,"choices":"ALL_KEYS","correct_choice":["a"],"trial_duration":2000,"flip_timestamps":[],"response_ends_trial":false,"number_of_apertures":2,"number_of_dots":[100,72],"number_of_sets":1,"coherent_direction":[205,108],"coherence":1,"opposite_coherence":0,"dot_radius":2,"dot_side_length":1,"dot_life":-1,"move_distance":1,"aperture_width":300,"aperture_height":300,"dot_color":["white","black"],"dot_shape":"circle","background_color":"#AAA","RDK_type":3,"aperture_type":2,"reinsert_type":2,"frame_rate":16.95798319327731,"frame_rate_array":[24,17,17,16,17,17,16,18,17,17,17,16,17,17,17,17,17,17,17,17,17,17,17,17,17,17,17,17,17,16,16,17,17,17,17,17,16,17,17,17,17,16,18,17,17,17,16,17,17,17,17,17,17,17,17,17,17,16,17,17,17,16,17,17,17,17,17,17,17,17,17,16,17,17,18,17,17,17,17,17,17,17,17,17,17,16,17,17,17,16,17,17,17,17,17,17,16,18,17,17,17,17,17,16,17,17,17,17,17,16,17,17,17,17,17,17,17,16,18],"number_of_frames":119,"aperture_center_x":680.5,"aperture_center_y":619,"fixation_cross":true,"fixation_cross_width":15,"fixation_cross_height":15,"fixation_cross_color":"#111","fixation_cross_thickness":1,"border":true,"border_thickness":2,"border_color":"transparent","canvas_width":1361,"canvas_height":1238,"trial_type":"rdk","trial_index":35,"plugin_version":"2.0.0","time_elapsed":132863,"target_direction":205,"distractor_direction":108},{"rt":2908,"stimulus":"\n        <div class=\"response-container\">\n          <div class=\"response-instruction\">\n            <p>rotate the bar by using the left and right arrow keys.</p>\n            <p>when you are determined, press the Enter key.</p>\n          </div>\n          <div class=\"response-circle\">\n            <div class=\"response-fixation\"></div>\n            <div id=\"bar\" class=\"rotating-bar\"></div>\n          </div>\n        </div>\n      ","response":"Enter","trial_type":"html-keyboard-response","trial_index":36,"plugin_version":"2.1.0","time_elapsed":135772,"random_initial_angle":307,"response_angle_css":369,"response_angle_rdk":81,"angular_error_target":-124,"angular_error_distractor":-27,"target_direction":205,"target_group":"white","reward_points":0},{"rt":null,"stimulus":"\n          <p style=\"color: #FF3333;\">Your reward: 0 points</p>\n        ","response":null,"trial_type":"html-keyboard-response","trial_index":37,"plugin_version":"2.1.0","time_elapsed":137774},{"rt":null,"stimulus":"<div class=\"fixation\" style=\"font-size: 60px;\">+</div>","response":null,"trial_type":"html-keyboard-response","trial_index":38,"plugin_version":"2.1.0","time_elapsed":138776},{"target_group":"black","target_index":1,"condition_label":"practice","rt":-1,"response":"","correct":false,"choices":"ALL_KEYS","correct_choice":["a"],"trial_duration":2000,"flip_timestamps":[],"response_ends_trial":false,"number_of_apertures":2,"number_of_dots":[69,100],"number_of_sets":1,"coherent_direction":[85,190],"coherence":1,"opposite_coherence":0,"dot_radius":2,"dot_side_length":1,"dot_life":-1,"move_distance":1,"aperture_width":300,"aperture_height":300,"dot_color":["white","black"],"dot_shape":"circle","background_color":"#AAA","RDK_type":3,"aperture_type":2,"reinsert_type":2,"frame_rate":16.875,"frame_rate_array":[14,17,17,17,17,17,17,17,17,17,17,17,17,17,17,17,17,16,17,17,17,16,17,17,17,16,17,17,17,17,16,16,18,17,17,17,17,17,16,17,17,17,17,16,18,17,17,17,16,17,17,17,17,17,17,17,17,17,17,17,17,17,17,17,17,16,16,17,17,17,17,17,16,17,16,18,17,16,17,17,17,17,17,17,16,17,17,17,17,17,17,17,17,17,17,16,17,18,17,17,17,17,16,16,18,17,17,17,17,17,17,17,17,17,17,17,17,17,17,17],"number_of_frames":120,"aperture_center_x":680.5,"aperture_center_y":619,"fixation_cross":true,"fixation_cross_width":15,"fixation_cross_height":15,"fixation_cross_color":"#111","fixation_cross_thickness":1,"border":true,"border_thickness":2,"border_color":"transparent","canvas_width":1361,"canvas_height":1238,"trial_type":"rdk","trial_index":39,"plugin_version":"2.0.0","time_elapsed":140778,"target_direction":190,"distractor_direction":85},{"rt":2693,"stimulus":"\n        <div class=\"response-container\">\n          <div class=\"response-instruction\">\n            <p>rotate the bar by using the left and right arrow keys.</p>\n            <p>when you are determined, press the Enter key.</p>\n          </div>\n          <div class=\"response-circle\">\n            <div class=\"response-fixation\"></div>\n            <div id=\"bar\" class=\"rotating-bar\"></div>\n          </div>\n        </div>\n      ","response":"Enter","trial_type":"html-keyboard-response","trial_index":40,"plugin_version":"2.1.0","time_elapsed":143472,"random_initial_angle":34,"response_angle_css":-113,"response_angle_rdk":203,"angular_error_target":13,"angular_error_distractor":118,"target_direction":190,"target_group":"black","reward_points":7},{"rt":null,"stimulus":"\n          <p style=\"color: #00FF00;\">Your reward: 7 points</p>\n        ","response":null,"trial_type":"html-keyboard-response","trial_index":41,"plugin_version":"2.1.0","time_elapsed":145474},{"rt":null,"stimulus":"<div class=\"fixation\" style=\"font-size: 60px;\">+</div>","response":null,"trial_type":"html-keyboard-response","trial_index":42,"plugin_version":"2.1.0","time_elapsed":146476},{"target_group":"white","target_index":0,"condition_label":"practice","rt":-1,"response":"","correct":false,"choices":"ALL_KEYS","correct_choice":["a"],"trial_duration":2000,"flip_timestamps":[],"response_ends_trial":false,"number_of_apertures":2,"number_of_dots":[100,97],"number_of_sets":1,"coherent_direction":[251,110],"coherence":1,"opposite_coherence":0,"dot_radius":2,"dot_side_length":1,"dot_life":-1,"move_distance":1,"aperture_width":300,"aperture_height":300,"dot_color":["white","black"],"dot_shape":"circle","background_color":"#AAA","RDK_type":3,"aperture_type":2,"reinsert_type":2,"frame_rate":16.915966386554622,"frame_rate_array":[20,17,17,17,16,17,17,17,17,17,17,17,17,17,17,17,17,17,16,18,17,17,17,16,17,17,17,17,17,17,17,17,17,17,17,16,18,17,17,17,17,17,17,17,16,17,17,17,17,16,17,16,18,17,17,16,16,18,17,16,18,17,17,17,16,17,17,17,16,17,17,17,17,17,17,17,17,17,17,17,17,17,17,17,17,17,17,16,16,16,18,17,17,16,17,16,16,17,16,18,17,17,17,17,17,17,17,17,16,17,17,17,17,17,17,17,17,17,17],"number_of_frames":119,"aperture_center_x":680.5,"aperture_center_y":619,"fixation_cross":true,"fixation_cross_width":15,"fixation_cross_height":15,"fixation_cross_color":"#111","fixation_cross_thickness":1,"border":true,"border_thickness":2,"border_color":"transparent","canvas_width":1361,"canvas_height":1238,"trial_type":"rdk","trial_index":43,"plugin_version":"2.0.0","time_elapsed":148480,"target_direction":251,"distractor_direction":110},{"rt":3302,"stimulus":"\n        <div class=\"response-container\">\n          <div class=\"response-instruction\">\n            <p>rotate the bar by using the left and right arrow keys.</p>\n            <p>when you are determined, press the Enter key.</p>\n          </div>\n          <div class=\"response-circle\">\n            <div class=\"response-fixation\"></div>\n            <div id=\"bar\" class=\"rotating-bar\"></div>\n          </div>\n        </div>\n      ","response":"Enter","trial_type":"html-keyboard-response","trial_index":44,"plugin_version":"2.1.0","time_elapsed":151783,"random_initial_angle":183,"response_angle_css":355,"response_angle_rdk":95,"angular_error_target":-156,"angular_error_distractor":-15,"target_direction":251,"target_group":"white","reward_points":0},{"rt":null,"stimulus":"\n          <p style=\"color: #FF3333;\">Your reward: 0 points</p>\n        ","response":null,"trial_type":"html-keyboard-response","trial_index":45,"plugin_version":"2.1.0","time_elapsed":153785},{"rt":null,"stimulus":"<div class=\"fixation\" style=\"font-size: 60px;\">+</div>","response":null,"trial_type":"html-keyboard-response","trial_index":46,"plugin_version":"2.1.0","time_elapsed":154788},{"target_group":"white","target_index":0,"condition_label":"practice","rt":-1,"response":"","correct":false,"choices":"ALL_KEYS","correct_choice":["a"],"trial_duration":2000,"flip_timestamps":[],"response_ends_trial":false,"number_of_apertures":2,"number_of_dots":[100,71],"number_of_sets":1,"coherent_direction":[128,337],"coherence":1,"opposite_coherence":0,"dot_radius":2,"dot_side_length":1,"dot_life":-1,"move_distance":1,"aperture_width":300,"aperture_height":300,"dot_color":["white","black"],"dot_shape":"circle","background_color":"#AAA","RDK_type":3,"aperture_type":2,"reinsert_type":2,"frame_rate":16.916666666666668,"frame_rate_array":[16,17,17,17,16,17,17,17,17,17,17,17,16,17,16,17,17,17,17,16,17,17,17,17,17,17,17,17,17,17,17,17,16,16,17,16,17,17,17,17,17,17,17,17,16,17,17,17,17,17,17,17,17,17,17,17,17,17,17,17,17,17,17,17,17,17,17,17,17,17,17,17,17,17,17,17,17,17,17,17,17,16,18,17,16,18,17,17,17,16,17,18,16,17,17,17,17,17,17,17,17,17,17,17,17,17,17,17,17,17,17,17,17,17,17,17,17,17,16,18],"number_of_frames":120,"aperture_center_x":680.5,"aperture_center_y":619,"fixation_cross":true,"fixation_cross_width":15,"fixation_cross_height":15,"fixation_cross_color":"#111","fixation_cross_thickness":1,"border":true,"border_thickness":2,"border_color":"transparent","canvas_width":1361,"canvas_height":1238,"trial_type":"rdk","trial_index":47,"plugin_version":"2.0.0","time_elapsed":156791,"target_direction":128,"distractor_direction":337},{"rt":1726,"stimulus":"\n        <div class=\"response-container\">\n          <div class=\"response-instruction\">\n            <p>rotate the bar by using the left and right arrow keys.</p>\n            <p>when you are determined, press the Enter key.</p>\n          </div>\n          <div class=\"response-circle\">\n            <div class=\"response-fixation\"></div>\n            <div id=\"bar\" class=\"rotating-bar\"></div>\n          </div>\n        </div>\n      ","response":"Enter","trial_type":"html-keyboard-response","trial_index":48,"plugin_version":"2.1.0","time_elapsed":158517,"random_initial_angle":41,"response_angle_css":-53,"response_angle_rdk":143,"angular_error_target":15,"angular_error_distractor":166,"target_direction":128,"target_group":"white","reward_points":7},{"rt":null,"stimulus":"\n          <p style=\"color: #00FF00;\">Your reward: 7 points</p>\n        ","response":null,"trial_type":"html-keyboard-response","trial_index":49,"plugin_version":"2.1.0","time_elapsed":160519},{"rt":null,"stimulus":"<div class=\"fixation\" style=\"font-size: 60px;\">+</div>","response":null,"trial_type":"html-keyboard-response","trial_index":50,"plugin_version":"2.1.0","time_elapsed":161522},{"target_group":"black","target_index":1,"condition_label":"practice","rt":1445,"response":"ArrowLeft","correct":false,"choices":"ALL_KEYS","correct_choice":["a"],"trial_duration":2000,"flip_timestamps":[],"response_ends_trial":false,"number_of_apertures":2,"number_of_dots":[51,100],"number_of_sets":1,"coherent_direction":[36,214],"coherence":1,"opposite_coherence":0,"dot_radius":2,"dot_side_length":1,"dot_life":-1,"move_distance":1,"aperture_width":300,"aperture_height":300,"dot_color":["white","black"],"dot_shape":"circle","background_color":"#AAA","RDK_type":3,"aperture_type":2,"reinsert_type":2,"frame_rate":16.907563025210084,"frame_rate_array":[21,16,17,17,17,17,17,17,17,17,16,17,17,17,17,17,17,17,17,17,17,17,16,17,16,17,16,18,16,17,17,17,16,17,17,17,17,17,17,17,17,17,17,17,17,17,16,17,17,17,17,17,17,17,16,17,17,17,16,17,16,18,17,17,17,17,17,17,16,17,17,16,18,16,17,17,17,17,17,17,17,17,17,16,17,17,17,17,17,17,17,17,17,17,17,17,17,17,17,17,17,16,17,17,17,17,17,17,17,17,17,17,17,17,17,16,17,17,16],"number_of_frames":119,"aperture_center_x":680.5,"aperture_center_y":619,"fixation_cross":true,"fixation_cross_width":15,"fixation_cross_height":15,"fixation_cross_color":"#111","fixation_cross_thickness":1,"border":true,"border_thickness":2,"border_color":"transparent","canvas_width":1361,"canvas_height":1238,"trial_type":"rdk","trial_index":51,"plugin_version":"2.0.0","time_elapsed":163524,"target_direction":214,"distractor_direction":36},{"rt":2651,"stimulus":"\n        <div class=\"response-container\">\n          <div class=\"response-instruction\">\n            <p>rotate the bar by using the left and right arrow keys.</p>\n            <p>when you are determined, press the Enter key.</p>\n          </div>\n          <div class=\"response-circle\">\n            <div class=\"response-fixation\"></div>\n            <div id=\"bar\" class=\"rotating-bar\"></div>\n          </div>\n        </div>\n      ","response":"Enter","trial_type":"html-keyboard-response","trial_index":52,"plugin_version":"2.1.0","time_elapsed":166176,"random_initial_angle":112,"response_angle_css":225,"response_angle_rdk":225,"angular_error_target":11,"angular_error_distractor":-171,"target_direction":214,"target_group":"black","reward_points":7},{"rt":null,"stimulus":"\n          <p style=\"color: #00FF00;\">Your reward: 7 points</p>\n        ","response":null,"trial_type":"html-keyboard-response","trial_index":53,"plugin_version":"2.1.0","time_elapsed":168178},{"rt":null,"stimulus":"<div class=\"fixation\" style=\"font-size: 60px;\">+</div>","response":null,"trial_type":"html-keyboard-response","trial_index":54,"plugin_version":"2.1.0","time_elapsed":169180},{"target_group":"white","target_index":0,"condition_label":"practice","rt":-1,"response":"","correct":false,"choices":"ALL_KEYS","correct_choice":["a"],"trial_duration":2000,"flip_timestamps":[],"response_ends_trial":false,"number_of_apertures":2,"number_of_dots":[100,93],"number_of_sets":1,"coherent_direction":[35,293],"coherence":1,"opposite_coherence":0,"dot_radius":2,"dot_side_length":1,"dot_life":-1,"move_distance":1,"aperture_width":300,"aperture_height":300,"dot_color":["white","black"],"dot_shape":"circle","background_color":"#AAA","RDK_type":3,"aperture_type":2,"reinsert_type":2,"frame_rate":16.907563025210084,"frame_rate_array":[18,17,17,17,17,17,17,17,16,17,16,17,17,17,17,17,17,17,17,17,17,17,17,17,17,17,17,16,18,17,17,17,16,18,17,17,17,17,16,17,17,17,15,18,17,17,17,17,17,17,17,17,17,17,17,16,18,17,16,17,17,17,17,17,16,17,17,17,16,17,17,17,17,17,17,17,17,16,17,16,17,17,17,17,17,17,17,16,17,16,18,17,17,17,17,17,17,17,16,18,17,17,17,17,17,17,17,17,17,17,17,17,17,16,17,16,17,17,17],"number_of_frames":119,"aperture_center_x":680.5,"aperture_center_y":619,"fixation_cross":true,"fixation_cross_width":15,"fixation_cross_height":15,"fixation_cross_color":"#111","fixation_cross_thickness":1,"border":true,"border_thickness":2,"border_color":"transparent","canvas_width":1361,"canvas_height":1238,"trial_type":"rdk","trial_index":55,"plugin_version":"2.0.0","time_elapsed":171183,"target_direction":35,"distractor_direction":293},{"rt":2132,"stimulus":"\n        <div class=\"response-container\">\n          <div class=\"response-instruction\">\n            <p>rotate the bar by using the left and right arrow keys.</p>\n            <p>when you are determined, press the Enter key.</p>\n          </div>\n          <div class=\"response-circle\">\n            <div class=\"response-fixation\"></div>\n            <div id=\"bar\" class=\"rotating-bar\"></div>\n          </div>\n        </div>\n      ","response":"Enter","trial_type":"html-keyboard-response","trial_index":56,"plugin_version":"2.1.0","time_elapsed":173316,"random_initial_angle":268,"response_angle_css":151,"response_angle_rdk":299,"angular_error_target":-96,"angular_error_distractor":6,"target_direction":35,"target_group":"white","reward_points":0},{"rt":null,"stimulus":"\n          <p style=\"color: #FF3333;\">Your reward: 0 points</p>\n        ","response":null,"trial_type":"html-keyboard-response","trial_index":57,"plugin_version":"2.1.0","time_elapsed":175318},{"rt":null,"stimulus":"<div class=\"fixation\" style=\"font-size: 60px;\">+</div>","response":null,"trial_type":"html-keyboard-response","trial_index":58,"plugin_version":"2.1.0","time_elapsed":176320},{"target_group":"black","target_index":1,"condition_label":"practice","rt":1791,"response":"ArrowLeft","correct":false,"choices":"ALL_KEYS","correct_choice":["a"],"trial_duration":2000,"flip_timestamps":[],"response_ends_trial":false,"number_of_apertures":2,"number_of_dots":[81,100],"number_of_sets":1,"coherent_direction":[294,103],"coherence":1,"opposite_coherence":0,"dot_radius":2,"dot_side_length":1,"dot_life":-1,"move_distance":1,"aperture_width":300,"aperture_height":300,"dot_color":["white","black"],"dot_shape":"circle","background_color":"#AAA","RDK_type":3,"aperture_type":2,"reinsert_type":2,"frame_rate":16.907563025210084,"frame_rate_array":[17,17,17,17,17,17,17,17,17,16,17,17,16,18,16,17,17,17,17,17,17,17,17,17,17,17,16,17,17,17,17,17,17,17,17,17,17,17,17,17,16,18,17,17,16,17,17,17,17,17,17,17,17,17,17,17,17,16,18,16,18,16,17,16,17,16,17,17,16,18,17,17,17,17,17,17,17,16,16,18,17,17,16,17,17,17,17,17,17,17,17,16,17,17,17,17,16,17,17,17,17,17,17,17,17,17,17,17,17,17,17,17,17,17,17,17,17,17,17],"number_of_frames":119,"aperture_center_x":680.5,"aperture_center_y":619,"fixation_cross":true,"fixation_cross_width":15,"fixation_cross_height":15,"fixation_cross_color":"#111","fixation_cross_thickness":1,"border":true,"border_thickness":2,"border_color":"transparent","canvas_width":1361,"canvas_height":1238,"trial_type":"rdk","trial_index":59,"plugin_version":"2.0.0","time_elapsed":178324,"target_direction":103,"distractor_direction":294},{"rt":2254,"stimulus":"\n        <div class=\"response-container\">\n          <div class=\"response-instruction\">\n            <p>rotate the bar by using the left and right arrow keys.</p>\n            <p>when you are determined, press the Enter key.</p>\n          </div>\n          <div class=\"response-circle\">\n            <div class=\"response-fixation\"></div>\n            <div id=\"bar\" class=\"rotating-bar\"></div>\n          </div>\n        </div>\n      ","response":"Enter","trial_type":"html-keyboard-response","trial_index":60,"plugin_version":"2.1.0","time_elapsed":180579,"random_initial_angle":254,"response_angle_css":327,"response_angle_rdk":123,"angular_error_target":20,"angular_error_distractor":-171,"target_direction":103,"target_group":"black","reward_points":6},{"rt":null,"stimulus":"\n          <p style=\"color: #00FF00;\">Your reward: 6 points</p>\n        ","response":null,"trial_type":"html-keyboard-response","trial_index":61,"plugin_version":"2.1.0","time_elapsed":182581},{"rt":null,"stimulus":"<div class=\"fixation\" style=\"font-size: 60px;\">+</div>","response":null,"trial_type":"html-keyboard-response","trial_index":62,"plugin_version":"2.1.0","time_elapsed":183584},{"target_group":"black","target_index":1,"condition_label":"practice","rt":-1,"response":"","correct":false,"choices":"ALL_KEYS","correct_choice":["a"],"trial_duration":2000,"flip_timestamps":[],"response_ends_trial":false,"number_of_apertures":2,"number_of_dots":[77,100],"number_of_sets":1,"coherent_direction":[220,87],"coherence":1,"opposite_coherence":0,"dot_radius":2,"dot_side_length":1,"dot_life":-1,"move_distance":1,"aperture_width":300,"aperture_height":300,"dot_color":["white","black"],"dot_shape":"circle","background_color":"#AAA","RDK_type":3,"aperture_type":2,"reinsert_type":2,"frame_rate":16.816666666666666,"frame_rate_array":[10,17,17,17,17,17,17,17,17,17,17,17,17,17,17,17,16,17,17,17,17,17,17,17,17,17,17,17,17,17,17,17,16,17,17,17,17,16,16,17,17,17,17,17,17,17,17,16,17,16,18,17,17,17,17,17,16,18,16,17,17,16,17,17,18,17,17,16,16,17,17,16,17,17,17,16,17,17,17,17,17,16,18,17,17,17,17,17,17,17,17,17,17,17,16,17,16,17,17,17,16,17,17,17,17,17,17,17,17,17,17,17,17,17,16,17,17,17,17,16],"number_of_frames":120,"aperture_center_x":680.5,"aperture_center_y":619,"fixation_cross":true,"fixation_cross_width":15,"fixation_cross_height":15,"fixation_cross_color":"#111","fixation_cross_thickness":1,"border":true,"border_thickness":2,"border_color":"transparent","canvas_width":1361,"canvas_height":1238,"trial_type":"rdk","trial_index":63,"plugin_version":"2.0.0","time_elapsed":185587,"target_direction":87,"distractor_direction":220},{"rt":1098,"stimulus":"\n        <div class=\"response-container\">\n          <div class=\"response-instruction\">\n            <p>rotate the bar by using the left and right arrow keys.</p>\n            <p>when you are determined, press the Enter key.</p>\n          </div>\n          <div class=\"response-circle\">\n            <div class=\"response-fixation\"></div>\n            <div id=\"bar\" class=\"rotating-bar\"></div>\n          </div>\n        </div>\n      ","response":"Enter","trial_type":"html-keyboard-response","trial_index":64,"plugin_version":"2.1.0","time_elapsed":186686,"random_initial_angle":54,"response_angle_css":37,"response_angle_rdk":53,"angular_error_target":-34,"angular_error_distractor":-167,"target_direction":87,"target_group":"black","reward_points":3},{"rt":null,"stimulus":"\n          <p style=\"color: #00FF00;\">Your reward: 3 points</p>\n        ","response":null,"trial_type":"html-keyboard-response","trial_index":65,"plugin_version":"2.1.0","time_elapsed":188688},{"rt":2255,"stimulus":"\n        <div class=\"instructions-container\">\n          <h2>End of Practice</h2>\n          <p>You have completed the practice trials.</p>\n          <p>Press <strong>Enter</strong> key to begin the main experiment.</p>\n        </div>\n      ","response":"Enter","trial_type":"html-keyboard-response","trial_index":66,"plugin_version":"2.1.0","time_elapsed":190944},{"rt":null,"stimulus":"<div class=\"fixation\" style=\"font-size: 60px;\">+</div>","response":null,"trial_type":"html-keyboard-response","trial_index":67,"plugin_version":"2.1.0","time_elapsed":191945},{"target_group":"black","condition_label":"B_H_vs_W_L_rep17","target_direction":224,"distractor_direction":315,"session_rotation":109,"rt":-1,"response":"","correct":false,"choices":"ALL_KEYS","correct_choice":["a"],"trial_duration":2000,"flip_timestamps":[],"response_ends_trial":false,"number_of_apertures":200,"number_of_dots":[1,1,1,1,1,1,1,1,1,1,1,1,1,1,1,1,1,1,1,1,1,1,1,1,1,1,1,1,1,1,1,1,1,1,1,1,1,1,1,1,1,1,1,1,1,1,1,1,1,1,1,1,1,1,1,1,1,1,1,1,1,1,1,1,1,1,1,1,1,1,1,1,1,1,1,1,1,1,1,1,1,1,1,1,1,1,1,1,1,1,1,1,1,1,1,1,1,1,1,1,1,1,1,1,1,1,1,1,1,1,1,1,1,1,1,1,1,1,1,1,1,1,1,1,1,1,1,1,1,1,1,1,1,1,1,1,1,1,1,1,1,1,1,1,1,1,1,1,1,1,1,1,1,1,1,1,1,1,1,1,1,1,1,1,1,1,1,1,1,1,1,1,1,1,1,1,1,1,1,1,1,1,1,1,1,1,1,1,1,1,1,1,1,1,1,1,1,1,1,1],"number_of_sets":1,"coherent_direction":[315,224,224,224,224,315,224,224,224,224,315,224,315,315,224,315,315,224,224,315,224,315,224,224,224,224,315,315,315,315,224,224,315,224,224,315,224,224,315,224,224,224,315,315,224,224,315,315,224,315,315,315,315,224,315,315,315,315,224,224,224,224,315,315,315,315,224,224,315,224,315,224,224,315,315,224,315,224,224,224,315,315,315,315,224,224,315,224,224,224,224,315,315,315,315,315,224,315,224,315,315,224,224,224,224,315,315,224,315,315,315,224,224,315,315,224,224,224,315,315,224,315,224,224,224,315,315,315,224,224,224,315,315,315,224,315,224,224,315,315,315,224,224,224,224,224,315,315,315,224,315,315,315,315,224,315,315,224,224,224,315,224,315,224,224,224,315,315,224,315,315,224,224,315,315,315,315,315,224,224,315,315,315,224,224,315,224,315,224,315,224,224,315,315,224,224,315,224,224,315],"coherence":1,"opposite_coherence":0,"dot_radius":2,"dot_side_length":1,"dot_life":-1,"move_distance":1,"aperture_width":300,"aperture_height":300,"dot_color":["white","black","black","black","black","white","black","black","black","black","white","black","white","white","black","white","white","black","black","white","black","white","black","black","black","black","white","white","white","white","black","black","white","black","black","white","black","black","white","black","black","black","white","white","black","black","white","white","black","white","white","white","white","black","white","white","white","white","black","black","black","black","white","white","white","white","black","black","white","black","white","black","black","white","white","black","white","black","black","black","white","white","white","white","black","black","white","black","black","black","black","white","white","white","white","white","black","white","black","white","white","black","black","black","black","white","white","black","white","white","white","black","black","white","white","black","black","black","white","white","black","white","black","black","black","white","white","white","black","black","black","white","white","white","black","white","black","black","white","white","white","black","black","black","black","black","white","white","white","black","white","white","white","white","black","white","white","black","black","black","white","black","white","black","black","black","white","white","black","white","white","black","black","white","white","white","white","white","black","black","white","white","white","black","black","white","black","white","black","white","black","black","white","white","black","black","white","black","black","white"],"dot_shape":"circle","background_color":"#AAA","RDK_type":3,"aperture_type":2,"reinsert_type":2,"frame_rate":16.823529411764707,"frame_rate_array":[23,17,16,17,17,17,17,16,17,17,16,18,16,16,17,17,17,17,17,16,17,17,17,17,16,17,16,17,17,17,17,17,17,17,16,17,17,17,17,16,17,17,17,17,17,17,17,17,17,17,16,17,17,17,17,16,17,16,17,17,16,18,16,17,17,17,17,17,16,17,17,17,16,16,17,17,17,17,16,17,17,17,16,17,17,17,16,17,17,17,16,17,17,17,17,16,17,17,17,17,17,17,16,17,17,17,17,16,17,17,17,16,17,16,17,16,17,17,16],"number_of_frames":119,"aperture_center_x":680.5,"aperture_center_y":619,"fixation_cross":true,"fixation_cross_width":15,"fixation_cross_height":15,"fixation_cross_color":"#111","fixation_cross_thickness":1,"border":true,"border_thickness":2,"border_color":"transparent","canvas_width":1361,"canvas_height":1238,"trial_type":"rdk","trial_index":68,"plugin_version":"2.0.0","time_elapsed":193949},{"rt":2465,"stimulus":"\n        <div class=\"response-container\">\n          <div class=\"response-instruction\">\n            <p>rotate the bar by using the left and right arrow keys.</p>\n            <p>when you are determined, press the Enter key.</p>\n          </div>\n          <div class=\"response-circle\">\n            <div class=\"response-fixation\"></div>\n            <div id=\"bar\" class=\"rotating-bar\"></div>\n          </div>\n        </div>\n      ","response":"Enter","trial_type":"html-keyboard-response","trial_index":69,"plugin_version":"2.1.0","time_elapsed":196415,"random_initial_angle":9,"response_angle_css":-135,"response_angle_rdk":225,"angular_error_target":1,"angular_error_distractor":-90,"target_direction":224,"target_group":"black","reward_points":9},{"rt":null,"stimulus":"\n          <p style=\"color: #00FF00;\">Your reward: 9 points</p>\n        ","response":null,"trial_type":"html-keyboard-response","trial_index":70,"plugin_version":"2.1.0","time_elapsed":198418},{"rt":null,"stimulus":"<div class=\"fixation\" style=\"font-size: 60px;\">+</div>","response":null,"trial_type":"html-keyboard-response","trial_index":71,"plugin_version":"2.1.0","time_elapsed":199420},{"target_group":"white","condition_label":"W_H_vs_B_L_rep4","target_direction":150,"distractor_direction":26,"session_rotation":109,"rt":1167,"response":"ArrowLeft","correct":false,"choices":"ALL_KEYS","correct_choice":["a"],"trial_duration":2000,"flip_timestamps":[],"response_ends_trial":false,"number_of_apertures":200,"number_of_dots":[1,1,1,1,1,1,1,1,1,1,1,1,1,1,1,1,1,1,1,1,1,1,1,1,1,1,1,1,1,1,1,1,1,1,1,1,1,1,1,1,1,1,1,1,1,1,1,1,1,1,1,1,1,1,1,1,1,1,1,1,1,1,1,1,1,1,1,1,1,1,1,1,1,1,1,1,1,1,1,1,1,1,1,1,1,1,1,1,1,1,1,1,1,1,1,1,1,1,1,1,1,1,1,1,1,1,1,1,1,1,1,1,1,1,1,1,1,1,1,1,1,1,1,1,1,1,1,1,1,1,1,1,1,1,1,1,1,1,1,1,1,1,1,1,1,1,1,1,1,1,1,1,1,1,1,1,1,1,1,1,1,1,1,1,1,1,1,1,1,1,1,1,1,1,1,1,1,1,1,1,1,1,1,1,1,1,1,1,1,1,1,1,1,1,1,1,1,1,1,1],"number_of_sets":1,"coherent_direction":[26,150,26,26,26,150,26,150,150,150,150,150,150,26,150,150,26,150,26,150,150,150,26,150,26,26,150,26,150,26,26,26,150,26,150,150,26,150,26,26,150,26,150,26,150,26,26,150,26,150,26,150,26,150,150,150,150,150,150,26,150,26,150,150,26,150,26,150,150,150,150,26,150,150,26,26,150,26,26,150,26,26,26,150,26,150,150,150,26,150,26,26,26,26,150,150,150,150,150,150,26,26,26,150,150,26,150,26,150,150,26,150,150,26,150,150,26,26,26,150,150,26,26,150,150,150,150,150,26,26,26,26,150,26,150,26,26,150,26,26,150,150,150,26,26,26,26,150,26,26,26,150,150,150,26,26,150,150,26,26,26,26,150,150,26,150,26,26,150,150,26,150,26,26,26,150,150,26,26,26,150,150,150,26,26,150,26,26,26,26,26,150,26,26,26,150,150,26,26,150],"coherence":1,"opposite_coherence":0,"dot_radius":2,"dot_side_length":1,"dot_life":-1,"move_distance":1,"aperture_width":300,"aperture_height":300,"dot_color":["black","white","black","black","black","white","black","white","white","white","white","white","white","black","white","white","black","white","black","white","white","white","black","white","black","black","white","black","white","black","black","black","white","black","white","white","black","white","black","black","white","black","white","black","white","black","black","white","black","white","black","white","black","white","white","white","white","white","white","black","white","black","white","white","black","white","black","white","white","white","white","black","white","white","black","black","white","black","black","white","black","black","black","white","black","white","white","white","black","white","black","black","black","black","white","white","white","white","white","white","black","black","black","white","white","black","white","black","white","white","black","white","white","black","white","white","black","black","black","white","white","black","black","white","white","white","white","white","black","black","black","black","white","black","white","black","black","white","black","black","white","white","white","black","black","black","black","white","black","black","black","white","white","white","black","black","white","white","black","black","black","black","white","white","black","white","black","black","white","white","black","white","black","black","black","white","white","black","black","black","white","white","white","black","black","white","black","black","black","black","black","white","black","black","black","white","white","black","black","white"],"dot_shape":"circle","background_color":"#AAA","RDK_type":3,"aperture_type":2,"reinsert_type":2,"frame_rate":16.80672268907563,"frame_rate_array":[20,16,17,17,16,18,16,17,17,16,17,17,16,17,15,18,17,16,17,17,16,16,17,17,16,18,16,18,17,17,17,17,17,16,17,16,17,16,17,17,17,17,17,17,15,18,15,18,16,17,17,17,17,16,17,16,17,17,17,17,17,17,16,17,16,17,17,17,17,17,17,16,18,17,17,17,17,17,16,17,17,17,17,17,16,17,17,16,17,17,17,16,18,17,17,17,17,17,17,17,17,17,16,17,16,17,17,17,16,17,16,17,17,17,16,18,16,17,17],"number_of_frames":119,"aperture_center_x":680.5,"aperture_center_y":619,"fixation_cross":true,"fixation_cross_width":15,"fixation_cross_height":15,"fixation_cross_color":"#111","fixation_cross_thickness":1,"border":true,"border_thickness":2,"border_color":"transparent","canvas_width":1361,"canvas_height":1238,"trial_type":"rdk","trial_index":72,"plugin_version":"2.0.0","time_elapsed":201423},{"rt":2878,"stimulus":"\n        <div class=\"response-container\">\n          <div class=\"response-instruction\">\n            <p>rotate the bar by using the left and right arrow keys.</p>\n            <p>when you are determined, press the Enter key.</p>\n          </div>\n          <div class=\"response-circle\">\n            <div class=\"response-fixation\"></div>\n            <div id=\"bar\" class=\"rotating-bar\"></div>\n          </div>\n        </div>\n      ","response":"Enter","trial_type":"html-keyboard-response","trial_index":73,"plugin_version":"2.1.0","time_elapsed":204302,"random_initial_angle":108,"response_angle_css":-64,"response_angle_rdk":154,"angular_error_target":4,"angular_error_distractor":128,"target_direction":150,"target_group":"white","reward_points":9},{"rt":null,"stimulus":"\n          <p style=\"color: #00FF00;\">Your reward: 9 points</p>\n        ","response":null,"trial_type":"html-keyboard-response","trial_index":74,"plugin_version":"2.1.0","time_elapsed":206304},{"rt":null,"stimulus":"<div class=\"fixation\" style=\"font-size: 60px;\">+</div>","response":null,"trial_type":"html-keyboard-response","trial_index":75,"plugin_version":"2.1.0","time_elapsed":207307},{"target_group":"white","condition_label":"W_H_vs_B_L_rep19","target_direction":123,"distractor_direction":25,"session_rotation":109,"rt":-1,"response":"","correct":false,"choices":"ALL_KEYS","correct_choice":["a"],"trial_duration":2000,"flip_timestamps":[],"response_ends_trial":false,"number_of_apertures":200,"number_of_dots":[1,1,1,1,1,1,1,1,1,1,1,1,1,1,1,1,1,1,1,1,1,1,1,1,1,1,1,1,1,1,1,1,1,1,1,1,1,1,1,1,1,1,1,1,1,1,1,1,1,1,1,1,1,1,1,1,1,1,1,1,1,1,1,1,1,1,1,1,1,1,1,1,1,1,1,1,1,1,1,1,1,1,1,1,1,1,1,1,1,1,1,1,1,1,1,1,1,1,1,1,1,1,1,1,1,1,1,1,1,1,1,1,1,1,1,1,1,1,1,1,1,1,1,1,1,1,1,1,1,1,1,1,1,1,1,1,1,1,1,1,1,1,1,1,1,1,1,1,1,1,1,1,1,1,1,1,1,1,1,1,1,1,1,1,1,1,1,1,1,1,1,1,1,1,1,1,1,1,1,1,1,1,1,1,1,1,1,1,1,1,1,1,1,1,1,1,1,1,1,1],"number_of_sets":1,"coherent_direction":[25,123,25,25,25,25,25,25,123,123,25,123,123,123,25,25,25,123,25,25,123,123,123,25,123,25,123,123,123,123,123,123,25,25,25,123,25,123,123,123,123,25,123,123,123,25,25,123,123,123,25,123,25,25,25,123,25,25,123,25,123,123,123,25,123,25,25,123,123,25,25,25,25,123,25,25,25,123,25,25,25,123,25,25,25,123,25,123,123,25,123,25,123,25,25,25,25,25,123,123,25,123,123,25,123,25,123,25,123,25,25,123,25,25,123,123,123,123,123,25,25,123,25,123,123,123,123,123,25,123,123,25,25,25,25,25,123,123,25,123,25,123,25,25,123,25,123,123,123,123,25,123,25,123,123,123,25,25,25,123,25,25,25,123,123,25,123,123,123,123,25,123,25,25,25,123,25,25,25,25,25,25,25,123,25,123,123,123,25,123,25,123,123,123,123,25,123,123,25,123],"coherence":1,"opposite_coherence":0,"dot_radius":2,"dot_side_length":1,"dot_life":-1,"move_distance":1,"aperture_width":300,"aperture_height":300,"dot_color":["black","white","black","black","black","black","black","black","white","white","black","white","white","white","black","black","black","white","black","black","white","white","white","black","white","black","white","white","white","white","white","white","black","black","black","white","black","white","white","white","white","black","white","white","white","black","black","white","white","white","black","white","black","black","black","white","black","black","white","black","white","white","white","black","white","black","black","white","white","black","black","black","black","white","black","black","black","white","black","black","black","white","black","black","black","white","black","white","white","black","white","black","white","black","black","black","black","black","white","white","black","white","white","black","white","black","white","black","white","black","black","white","black","black","white","white","white","white","white","black","black","white","black","white","white","white","white","white","black","white","white","black","black","black","black","black","white","white","black","white","black","white","black","black","white","black","white","white","white","white","black","white","black","white","white","white","black","black","black","white","black","black","black","white","white","black","white","white","white","white","black","white","black","black","black","white","black","black","black","black","black","black","black","white","black","white","white","white","black","white","black","white","white","white","white","black","white","white","black","white"],"dot_shape":"circle","background_color":"#AAA","RDK_type":3,"aperture_type":2,"reinsert_type":2,"frame_rate":16.857142857142858,"frame_rate_array":[21,17,17,16,16,18,16,17,17,17,17,17,17,16,18,17,17,16,17,16,17,17,17,16,17,17,17,16,17,16,18,17,17,17,16,17,17,17,17,16,17,16,18,16,16,17,17,17,17,16,16,17,17,17,17,17,17,17,16,17,17,17,17,17,17,17,17,17,17,17,16,17,16,18,17,16,17,17,17,16,17,17,17,17,17,16,17,17,17,17,17,16,17,17,17,17,17,16,17,17,17,17,17,17,17,17,17,17,17,17,17,17,16,17,17,17,17,17,16],"number_of_frames":119,"aperture_center_x":680.5,"aperture_center_y":619,"fixation_cross":true,"fixation_cross_width":15,"fixation_cross_height":15,"fixation_cross_color":"#111","fixation_cross_thickness":1,"border":true,"border_thickness":2,"border_color":"transparent","canvas_width":1361,"canvas_height":1238,"trial_type":"rdk","trial_index":76,"plugin_version":"2.0.0","time_elapsed":209310},{"rt":2450,"stimulus":"\n        <div class=\"response-container\">\n          <div class=\"response-instruction\">\n            <p>rotate the bar by using the left and right arrow keys.</p>\n            <p>when you are determined, press the Enter key.</p>\n          </div>\n          <div class=\"response-circle\">\n            <div class=\"response-fixation\"></div>\n            <div id=\"bar\" class=\"rotating-bar\"></div>\n          </div>\n        </div>\n      ","response":"Enter","trial_type":"html-keyboard-response","trial_index":77,"plugin_version":"2.1.0","time_elapsed":211761,"random_initial_angle":84,"response_angle_css":-69,"response_angle_rdk":159,"angular_error_target":36,"angular_error_distractor":134,"target_direction":123,"target_group":"white","reward_points":2},{"rt":null,"stimulus":"\n          <p style=\"color: #FF3333;\">Your reward: 2 points</p>\n        ","response":null,"trial_type":"html-keyboard-response","trial_index":78,"plugin_version":"2.1.0","time_elapsed":213763},{"rt":null,"stimulus":"<div class=\"fixation\" style=\"font-size: 60px;\">+</div>","response":null,"trial_type":"html-keyboard-response","trial_index":79,"plugin_version":"2.1.0","time_elapsed":214764},{"target_group":"white","condition_label":"W_H_vs_B_L_rep10","target_direction":140,"distractor_direction":35,"session_rotation":109,"rt":-1,"response":"","correct":false,"choices":"ALL_KEYS","correct_choice":["a"],"trial_duration":2000,"flip_timestamps":[],"response_ends_trial":false,"number_of_apertures":200,"number_of_dots":[1,1,1,1,1,1,1,1,1,1,1,1,1,1,1,1,1,1,1,1,1,1,1,1,1,1,1,1,1,1,1,1,1,1,1,1,1,1,1,1,1,1,1,1,1,1,1,1,1,1,1,1,1,1,1,1,1,1,1,1,1,1,1,1,1,1,1,1,1,1,1,1,1,1,1,1,1,1,1,1,1,1,1,1,1,1,1,1,1,1,1,1,1,1,1,1,1,1,1,1,1,1,1,1,1,1,1,1,1,1,1,1,1,1,1,1,1,1,1,1,1,1,1,1,1,1,1,1,1,1,1,1,1,1,1,1,1,1,1,1,1,1,1,1,1,1,1,1,1,1,1,1,1,1,1,1,1,1,1,1,1,1,1,1,1,1,1,1,1,1,1,1,1,1,1,1,1,1,1,1,1,1,1,1,1,1,1,1,1,1,1,1,1,1,1,1,1,1,1,1],"number_of_sets":1,"coherent_direction":[140,140,140,140,140,140,35,35,35,140,140,35,140,35,35,35,140,35,35,35,35,140,140,35,140,140,35,35,140,35,35,140,35,140,35,35,140,35,35,35,140,140,35,35,140,140,140,35,35,140,140,35,140,35,35,140,35,140,35,35,140,140,140,140,35,140,140,35,140,140,35,140,140,35,140,35,35,140,35,35,35,35,140,140,35,140,35,35,35,140,35,140,140,140,140,140,35,140,140,140,140,35,35,140,35,140,35,35,35,140,140,140,140,35,35,140,140,35,35,140,140,35,35,140,35,35,140,35,140,140,140,35,140,140,140,140,140,140,140,35,140,35,35,140,35,140,140,140,35,140,140,35,35,35,140,35,35,35,35,140,140,35,35,35,35,35,35,35,35,140,35,140,35,140,35,35,140,35,140,35,140,35,140,35,140,140,140,140,35,35,140,35,140,35,35,140,140,35,35,35],"coherence":1,"opposite_coherence":0,"dot_radius":2,"dot_side_length":1,"dot_life":-1,"move_distance":1,"aperture_width":300,"aperture_height":300,"dot_color":["white","white","white","white","white","white","black","black","black","white","white","black","white","black","black","black","white","black","black","black","black","white","white","black","white","white","black","black","white","black","black","white","black","white","black","black","white","black","black","black","white","white","black","black","white","white","white","black","black","white","white","black","white","black","black","white","black","white","black","black","white","white","white","white","black","white","white","black","white","white","black","white","white","black","white","black","black","white","black","black","black","black","white","white","black","white","black","black","black","white","black","white","white","white","white","white","black","white","white","white","white","black","black","white","black","white","black","black","black","white","white","white","white","black","black","white","white","black","black","white","white","black","black","white","black","black","white","black","white","white","white","black","white","white","white","white","white","white","white","black","white","black","black","white","black","white","white","white","black","white","white","black","black","black","white","black","black","black","black","white","white","black","black","black","black","black","black","black","black","white","black","white","black","white","black","black","white","black","white","black","white","black","white","black","white","white","white","white","black","black","white","black","white","black","black","white","white","black","black","black"],"dot_shape":"circle","background_color":"#AAA","RDK_type":3,"aperture_type":2,"reinsert_type":2,"frame_rate":16.77310924369748,"frame_rate_array":[22,17,17,17,17,16,17,17,17,17,17,16,17,17,16,16,17,17,16,17,16,17,17,17,17,16,18,16,18,16,17,17,17,19,14,17,17,17,16,17,16,17,16,17,16,16,17,16,17,17,17,16,17,16,17,16,17,17,17,17,16,18,17,17,17,16,17,17,17,16,17,17,16,18,16,16,18,17,16,17,16,17,17,16,17,17,16,16,16,18,17,16,17,17,17,15,17,17,16,18,16,17,17,17,17,17,17,17,16,16,18,17,16,17,17,17,16,18,16],"number_of_frames":119,"aperture_center_x":680.5,"aperture_center_y":619,"fixation_cross":true,"fixation_cross_width":15,"fixation_cross_height":15,"fixation_cross_color":"#111","fixation_cross_thickness":1,"border":true,"border_thickness":2,"border_color":"transparent","canvas_width":1361,"canvas_height":1238,"trial_type":"rdk","trial_index":80,"plugin_version":"2.0.0","time_elapsed":216768},{"rt":3366,"stimulus":"\n        <div class=\"response-container\">\n          <div class=\"response-instruction\">\n            <p>rotate the bar by using the left and right arrow keys.</p>\n            <p>when you are determined, press the Enter key.</p>\n          </div>\n          <div class=\"response-circle\">\n            <div class=\"response-fixation\"></div>\n            <div id=\"bar\" class=\"rotating-bar\"></div>\n          </div>\n        </div>\n      ","response":"Enter","trial_type":"html-keyboard-response","trial_index":81,"plugin_version":"2.1.0","time_elapsed":220135,"random_initial_angle":209,"response_angle_css":442,"response_angle_rdk":8,"angular_error_target":-132,"angular_error_distractor":-27,"target_direction":140,"target_group":"white","reward_points":0},{"rt":null,"stimulus":"\n          <p style=\"color: #FF3333;\">Your reward: 0 points</p>\n        ","response":null,"trial_type":"html-keyboard-response","trial_index":82,"plugin_version":"2.1.0","time_elapsed":222137},{"rt":null,"stimulus":"<div class=\"fixation\" style=\"font-size: 60px;\">+</div>","response":null,"trial_type":"html-keyboard-response","trial_index":83,"plugin_version":"2.1.0","time_elapsed":223138},{"target_group":"black","condition_label":"B_H_vs_W_L_rep15","target_direction":229,"distractor_direction":323,"session_rotation":109,"rt":-1,"response":"","correct":false,"choices":"ALL_KEYS","correct_choice":["a"],"trial_duration":2000,"flip_timestamps":[],"response_ends_trial":false,"number_of_apertures":200,"number_of_dots":[1,1,1,1,1,1,1,1,1,1,1,1,1,1,1,1,1,1,1,1,1,1,1,1,1,1,1,1,1,1,1,1,1,1,1,1,1,1,1,1,1,1,1,1,1,1,1,1,1,1,1,1,1,1,1,1,1,1,1,1,1,1,1,1,1,1,1,1,1,1,1,1,1,1,1,1,1,1,1,1,1,1,1,1,1,1,1,1,1,1,1,1,1,1,1,1,1,1,1,1,1,1,1,1,1,1,1,1,1,1,1,1,1,1,1,1,1,1,1,1,1,1,1,1,1,1,1,1,1,1,1,1,1,1,1,1,1,1,1,1,1,1,1,1,1,1,1,1,1,1,1,1,1,1,1,1,1,1,1,1,1,1,1,1,1,1,1,1,1,1,1,1,1,1,1,1,1,1,1,1,1,1,1,1,1,1,1,1,1,1,1,1,1,1,1,1,1,1,1,1],"number_of_sets":1,"coherent_direction":[229,323,229,229,229,323,229,229,323,323,229,229,323,323,229,229,323,323,323,229,229,229,229,229,229,229,229,229,323,323,323,323,229,323,229,323,323,229,323,229,229,323,229,229,323,323,323,229,229,229,323,323,229,323,323,323,323,323,229,229,229,323,229,323,229,323,229,323,229,323,229,323,323,323,323,323,229,229,323,229,323,229,323,323,323,323,323,229,323,229,323,323,229,229,323,323,323,229,323,323,229,323,229,323,229,323,323,229,323,229,229,229,323,229,229,323,229,323,229,323,323,323,229,323,323,229,229,323,229,323,323,229,229,323,323,323,229,323,323,323,229,229,229,229,323,229,323,323,229,229,229,229,323,229,229,323,229,323,229,323,323,323,323,323,323,229,229,229,229,323,229,323,229,229,229,323,229,229,323,229,229,323,323,323,323,229,229,229,323,323,229,229,323,229,229,229,323,229,323,229],"coherence":1,"opposite_coherence":0,"dot_radius":2,"dot_side_length":1,"dot_life":-1,"move_distance":1,"aperture_width":300,"aperture_height":300,"dot_color":["black","white","black","black","black","white","black","black","white","white","black","black","white","white","black","black","white","white","white","black","black","black","black","black","black","black","black","black","white","white","white","white","black","white","black","white","white","black","white","black","black","white","black","black","white","white","white","black","black","black","white","white","black","white","white","white","white","white","black","black","black","white","black","white","black","white","black","white","black","white","black","white","white","white","white","white","black","black","white","black","white","black","white","white","white","white","white","black","white","black","white","white","black","black","white","white","white","black","white","white","black","white","black","white","black","white","white","black","white","black","black","black","white","black","black","white","black","white","black","white","white","white","black","white","white","black","black","white","black","white","white","black","black","white","white","white","black","white","white","white","black","black","black","black","white","black","white","white","black","black","black","black","white","black","black","white","black","white","black","white","white","white","white","white","white","black","black","black","black","white","black","white","black","black","black","white","black","black","white","black","black","white","white","white","white","black","black","black","white","white","black","black","white","black","black","black","white","black","white","black"],"dot_shape":"circle","background_color":"#AAA","RDK_type":3,"aperture_type":2,"reinsert_type":2,"frame_rate":16.789915966386555,"frame_rate_array":[21,17,16,17,17,15,18,17,16,18,17,17,17,16,17,17,17,17,17,17,15,18,16,17,17,17,17,17,17,16,17,16,17,16,17,17,17,17,17,17,17,17,16,16,18,16,16,17,16,16,17,17,17,17,17,16,17,17,17,17,16,17,17,16,17,17,17,17,16,17,16,17,17,16,17,17,17,16,17,17,17,17,17,17,16,17,16,17,16,17,17,17,17,15,18,17,16,17,17,17,17,16,17,17,16,18,17,17,17,17,17,17,17,16,17,16,17,16,17],"number_of_frames":119,"aperture_center_x":680.5,"aperture_center_y":619,"fixation_cross":true,"fixation_cross_width":15,"fixation_cross_height":15,"fixation_cross_color":"#111","fixation_cross_thickness":1,"border":true,"border_thickness":2,"border_color":"transparent","canvas_width":1361,"canvas_height":1238,"trial_type":"rdk","trial_index":84,"plugin_version":"2.0.0","time_elapsed":225142},{"rt":1906,"stimulus":"\n        <div class=\"response-container\">\n          <div class=\"response-instruction\">\n            <p>rotate the bar by using the left and right arrow keys.</p>\n            <p>when you are determined, press the Enter key.</p>\n          </div>\n          <div class=\"response-circle\">\n            <div class=\"response-fixation\"></div>\n            <div id=\"bar\" class=\"rotating-bar\"></div>\n          </div>\n        </div>\n      ","response":"Enter","trial_type":"html-keyboard-response","trial_index":85,"plugin_version":"2.1.0","time_elapsed":227048,"random_initial_angle":197,"response_angle_css":225,"response_angle_rdk":225,"angular_error_target":-4,"angular_error_distractor":-98,"target_direction":229,"target_group":"black","reward_points":9},{"rt":null,"stimulus":"\n          <p style=\"color: #00FF00;\">Your reward: 9 points</p>\n        ","response":null,"trial_type":"html-keyboard-response","trial_index":86,"plugin_version":"2.1.0","time_elapsed":229050},{"rt":null,"stimulus":"<div class=\"fixation\" style=\"font-size: 60px;\">+</div>","response":null,"trial_type":"html-keyboard-response","trial_index":87,"plugin_version":"2.1.0","time_elapsed":230053},{"target_group":"white","condition_label":"W_H_vs_B_L_rep21","target_direction":147,"distractor_direction":56,"session_rotation":109,"rt":-1,"response":"","correct":false,"choices":"ALL_KEYS","correct_choice":["a"],"trial_duration":2000,"flip_timestamps":[],"response_ends_trial":false,"number_of_apertures":200,"number_of_dots":[1,1,1,1,1,1,1,1,1,1,1,1,1,1,1,1,1,1,1,1,1,1,1,1,1,1,1,1,1,1,1,1,1,1,1,1,1,1,1,1,1,1,1,1,1,1,1,1,1,1,1,1,1,1,1,1,1,1,1,1,1,1,1,1,1,1,1,1,1,1,1,1,1,1,1,1,1,1,1,1,1,1,1,1,1,1,1,1,1,1,1,1,1,1,1,1,1,1,1,1,1,1,1,1,1,1,1,1,1,1,1,1,1,1,1,1,1,1,1,1,1,1,1,1,1,1,1,1,1,1,1,1,1,1,1,1,1,1,1,1,1,1,1,1,1,1,1,1,1,1,1,1,1,1,1,1,1,1,1,1,1,1,1,1,1,1,1,1,1,1,1,1,1,1,1,1,1,1,1,1,1,1,1,1,1,1,1,1,1,1,1,1,1,1,1,1,1,1,1,1],"number_of_sets":1,"coherent_direction":[147,56,147,147,147,56,56,56,56,147,56,56,147,147,147,147,147,147,56,147,56,147,56,56,147,147,147,56,147,147,147,56,56,147,147,56,56,147,147,56,147,56,56,56,56,56,56,147,147,147,56,56,56,147,56,147,147,56,56,56,56,147,56,147,56,56,147,147,147,147,147,56,56,56,56,56,147,147,147,56,56,147,147,147,56,147,56,147,147,56,56,147,56,56,56,147,147,147,56,147,56,56,147,56,56,147,56,56,56,147,56,147,56,147,56,147,56,56,147,56,147,147,147,147,56,147,147,56,147,56,56,147,147,147,147,56,56,147,147,56,147,147,147,147,147,56,147,147,56,147,56,147,147,56,56,147,147,56,56,147,56,56,56,56,147,56,56,147,56,56,147,147,56,147,147,56,56,56,56,56,56,56,147,147,56,56,147,56,147,56,56,147,147,147,56,147,147,56,147,56],"coherence":1,"opposite_coherence":0,"dot_radius":2,"dot_side_length":1,"dot_life":-1,"move_distance":1,"aperture_width":300,"aperture_height":300,"dot_color":["white","black","white","white","white","black","black","black","black","white","black","black","white","white","white","white","white","white","black","white","black","white","black","black","white","white","white","black","white","white","white","black","black","white","white","black","black","white","white","black","white","black","black","black","black","black","black","white","white","white","black","black","black","white","black","white","white","black","black","black","black","white","black","white","black","black","white","white","white","white","white","black","black","black","black","black","white","white","white","black","black","white","white","white","black","white","black","white","white","black","black","white","black","black","black","white","white","white","black","white","black","black","white","black","black","white","black","black","black","white","black","white","black","white","black","white","black","black","white","black","white","white","white","white","black","white","white","black","white","black","black","white","white","white","white","black","black","white","white","black","white","white","white","white","white","black","white","white","black","white","black","white","white","black","black","white","white","black","black","white","black","black","black","black","white","black","black","white","black","black","white","white","black","white","white","black","black","black","black","black","black","black","white","white","black","black","white","black","white","black","black","white","white","white","black","white","white","black","white","black"],"dot_shape":"circle","background_color":"#AAA","RDK_type":3,"aperture_type":2,"reinsert_type":2,"frame_rate":16.716666666666665,"frame_rate_array":[13,17,17,17,17,16,17,17,16,17,17,16,17,17,17,17,16,17,17,15,18,17,17,17,16,17,16,17,17,17,16,17,17,17,17,16,17,16,17,17,16,17,17,17,16,17,17,17,16,16,17,17,16,17,17,17,16,17,16,17,17,17,17,17,17,17,17,16,17,17,17,16,17,17,17,16,17,16,17,17,16,17,16,17,17,17,17,17,17,17,17,16,17,17,17,17,16,18,16,17,16,17,17,17,16,18,16,17,17,16,17,17,17,17,17,17,17,17,16,16],"number_of_frames":120,"aperture_center_x":680.5,"aperture_center_y":619,"fixation_cross":true,"fixation_cross_width":15,"fixation_cross_height":15,"fixation_cross_color":"#111","fixation_cross_thickness":1,"border":true,"border_thickness":2,"border_color":"transparent","canvas_width":1361,"canvas_height":1238,"trial_type":"rdk","trial_index":88,"plugin_version":"2.0.0","time_elapsed":232056},{"rt":2304,"stimulus":"\n        <div class=\"response-container\">\n          <div class=\"response-instruction\">\n            <p>rotate the bar by using the left and right arrow keys.</p>\n            <p>when you are determined, press the Enter key.</p>\n          </div>\n          <div class=\"response-circle\">\n            <div class=\"response-fixation\"></div>\n            <div id=\"bar\" class=\"rotating-bar\"></div>\n          </div>\n        </div>\n      ","response":"Enter","trial_type":"html-keyboard-response","trial_index":89,"plugin_version":"2.1.0","time_elapsed":234360,"random_initial_angle":42,"response_angle_css":-77,"response_angle_rdk":167,"angular_error_target":20,"angular_error_distractor":111,"target_direction":147,"target_group":"white","reward_points":6},{"rt":null,"stimulus":"\n          <p style=\"color: #00FF00;\">Your reward: 6 points</p>\n        ","response":null,"trial_type":"html-keyboard-response","trial_index":90,"plugin_version":"2.1.0","time_elapsed":236361},{"rt":null,"stimulus":"<div class=\"fixation\" style=\"font-size: 60px;\">+</div>","response":null,"trial_type":"html-keyboard-response","trial_index":91,"plugin_version":"2.1.0","time_elapsed":237364},{"target_group":"black","condition_label":"B_H_vs_W_L_rep5","target_direction":231,"distractor_direction":326,"session_rotation":109,"rt":-1,"response":"","correct":false,"choices":"ALL_KEYS","correct_choice":["a"],"trial_duration":2000,"flip_timestamps":[],"response_ends_trial":false,"number_of_apertures":200,"number_of_dots":[1,1,1,1,1,1,1,1,1,1,1,1,1,1,1,1,1,1,1,1,1,1,1,1,1,1,1,1,1,1,1,1,1,1,1,1,1,1,1,1,1,1,1,1,1,1,1,1,1,1,1,1,1,1,1,1,1,1,1,1,1,1,1,1,1,1,1,1,1,1,1,1,1,1,1,1,1,1,1,1,1,1,1,1,1,1,1,1,1,1,1,1,1,1,1,1,1,1,1,1,1,1,1,1,1,1,1,1,1,1,1,1,1,1,1,1,1,1,1,1,1,1,1,1,1,1,1,1,1,1,1,1,1,1,1,1,1,1,1,1,1,1,1,1,1,1,1,1,1,1,1,1,1,1,1,1,1,1,1,1,1,1,1,1,1,1,1,1,1,1,1,1,1,1,1,1,1,1,1,1,1,1,1,1,1,1,1,1,1,1,1,1,1,1,1,1,1,1,1,1],"number_of_sets":1,"coherent_direction":[231,231,326,326,326,231,231,326,231,231,326,231,231,231,231,231,231,231,326,326,326,231,326,326,231,326,326,326,326,326,326,231,326,326,326,326,326,231,326,326,231,326,231,326,326,231,231,326,326,231,231,326,326,231,326,231,326,231,231,231,326,231,326,326,231,231,231,326,326,231,326,326,231,326,326,326,231,231,326,326,326,231,326,326,326,326,326,231,326,231,326,231,326,231,326,231,326,231,231,231,231,231,326,231,326,231,326,326,326,231,326,326,231,326,231,231,326,326,231,326,326,231,231,231,231,231,231,326,326,326,231,231,231,231,231,231,326,326,231,326,231,231,326,231,231,326,326,326,231,231,231,326,326,231,326,326,231,231,326,326,231,326,326,326,326,231,326,231,231,231,326,326,326,326,326,231,231,231,326,231,231,231,231,231,231,231,231,231,231,326,231,231,326,326,326,231,326,231,326,231],"coherence":1,"opposite_coherence":0,"dot_radius":2,"dot_side_length":1,"dot_life":-1,"move_distance":1,"aperture_width":300,"aperture_height":300,"dot_color":["black","black","white","white","white","black","black","white","black","black","white","black","black","black","black","black","black","black","white","white","white","black","white","white","black","white","white","white","white","white","white","black","white","white","white","white","white","black","white","white","black","white","black","white","white","black","black","white","white","black","black","white","white","black","white","black","white","black","black","black","white","black","white","white","black","black","black","white","white","black","white","white","black","white","white","white","black","black","white","white","white","black","white","white","white","white","white","black","white","black","white","black","white","black","white","black","white","black","black","black","black","black","white","black","white","black","white","white","white","black","white","white","black","white","black","black","white","white","black","white","white","black","black","black","black","black","black","white","white","white","black","black","black","black","black","black","white","white","black","white","black","black","white","black","black","white","white","white","black","black","black","white","white","black","white","white","black","black","white","white","black","white","white","white","white","black","white","black","black","black","white","white","white","white","white","black","black","black","white","black","black","black","black","black","black","black","black","black","black","white","black","black","white","white","white","black","white","black","white","black"],"dot_shape":"circle","background_color":"#AAA","RDK_type":3,"aperture_type":2,"reinsert_type":2,"frame_rate":16.831932773109244,"frame_rate_array":[24,16,18,16,18,16,17,17,17,16,17,17,17,17,16,16,17,17,16,17,17,17,16,18,17,16,17,16,17,16,18,16,17,17,16,17,17,16,17,17,16,17,17,17,17,17,17,16,17,16,16,17,17,16,17,17,17,17,16,17,16,17,17,17,17,17,17,16,17,17,16,18,17,17,16,17,17,17,17,16,17,17,17,17,17,17,17,16,17,17,16,17,16,17,17,17,17,17,16,17,17,17,17,17,17,17,17,17,16,17,16,17,17,16,17,17,17,17,17],"number_of_frames":119,"aperture_center_x":680.5,"aperture_center_y":619,"fixation_cross":true,"fixation_cross_width":15,"fixation_cross_height":15,"fixation_cross_color":"#111","fixation_cross_thickness":1,"border":true,"border_thickness":2,"border_color":"transparent","canvas_width":1361,"canvas_height":1238,"trial_type":"rdk","trial_index":92,"plugin_version":"2.0.0","time_elapsed":239368},{"rt":2695,"stimulus":"\n        <div class=\"response-container\">\n          <div class=\"response-instruction\">\n            <p>rotate the bar by using the left and right arrow keys.</p>\n            <p>when you are determined, press the Enter key.</p>\n          </div>\n          <div class=\"response-circle\">\n            <div class=\"response-fixation\"></div>\n            <div id=\"bar\" class=\"rotating-bar\"></div>\n          </div>\n        </div>\n      ","response":"Enter","trial_type":"html-keyboard-response","trial_index":93,"plugin_version":"2.1.0","time_elapsed":242063,"random_initial_angle":355,"response_angle_css":220,"response_angle_rdk":230,"angular_error_target":-1,"angular_error_distractor":-96,"target_direction":231,"target_group":"black","reward_points":9},{"rt":null,"stimulus":"\n          <p style=\"color: #00FF00;\">Your reward: 9 points</p>\n        ","response":null,"trial_type":"html-keyboard-response","trial_index":94,"plugin_version":"2.1.0","time_elapsed":244065},{"rt":null,"stimulus":"<div class=\"fixation\" style=\"font-size: 60px;\">+</div>","response":null,"trial_type":"html-keyboard-response","trial_index":95,"plugin_version":"2.1.0","time_elapsed":245067},{"target_group":"black","condition_label":"B_H_vs_W_L_rep21","target_direction":201,"distractor_direction":317,"session_rotation":109,"rt":-1,"response":"","correct":false,"choices":"ALL_KEYS","correct_choice":["a"],"trial_duration":2000,"flip_timestamps":[],"response_ends_trial":false,"number_of_apertures":200,"number_of_dots":[1,1,1,1,1,1,1,1,1,1,1,1,1,1,1,1,1,1,1,1,1,1,1,1,1,1,1,1,1,1,1,1,1,1,1,1,1,1,1,1,1,1,1,1,1,1,1,1,1,1,1,1,1,1,1,1,1,1,1,1,1,1,1,1,1,1,1,1,1,1,1,1,1,1,1,1,1,1,1,1,1,1,1,1,1,1,1,1,1,1,1,1,1,1,1,1,1,1,1,1,1,1,1,1,1,1,1,1,1,1,1,1,1,1,1,1,1,1,1,1,1,1,1,1,1,1,1,1,1,1,1,1,1,1,1,1,1,1,1,1,1,1,1,1,1,1,1,1,1,1,1,1,1,1,1,1,1,1,1,1,1,1,1,1,1,1,1,1,1,1,1,1,1,1,1,1,1,1,1,1,1,1,1,1,1,1,1,1,1,1,1,1,1,1,1,1,1,1,1,1],"number_of_sets":1,"coherent_direction":[201,201,317,317,201,317,317,317,317,201,317,317,201,317,317,317,317,201,201,201,201,201,317,201,317,201,201,201,317,201,317,201,201,317,201,317,317,201,201,317,201,201,317,317,317,201,317,201,317,201,317,317,317,317,201,201,201,317,317,317,317,201,317,317,201,317,317,201,317,317,201,201,201,201,317,201,201,201,317,201,317,201,317,201,201,201,317,201,201,201,317,317,201,201,201,317,317,201,201,317,201,201,201,201,317,201,317,201,201,317,317,317,201,317,317,317,201,317,317,317,317,317,317,201,317,201,201,201,317,201,317,201,317,317,201,317,201,201,201,201,317,201,317,317,317,317,201,317,201,201,201,201,317,201,201,317,201,317,317,317,317,201,317,201,317,201,201,317,317,317,201,201,201,201,317,317,317,317,317,201,201,201,317,201,201,317,317,317,201,201,317,317,317,201,317,201,201,317,201,201],"coherence":1,"opposite_coherence":0,"dot_radius":2,"dot_side_length":1,"dot_life":-1,"move_distance":1,"aperture_width":300,"aperture_height":300,"dot_color":["black","black","white","white","black","white","white","white","white","black","white","white","black","white","white","white","white","black","black","black","black","black","white","black","white","black","black","black","white","black","white","black","black","white","black","white","white","black","black","white","black","black","white","white","white","black","white","black","white","black","white","white","white","white","black","black","black","white","white","white","white","black","white","white","black","white","white","black","white","white","black","black","black","black","white","black","black","black","white","black","white","black","white","black","black","black","white","black","black","black","white","white","black","black","black","white","white","black","black","white","black","black","black","black","white","black","white","black","black","white","white","white","black","white","white","white","black","white","white","white","white","white","white","black","white","black","black","black","white","black","white","black","white","white","black","white","black","black","black","black","white","black","white","white","white","white","black","white","black","black","black","black","white","black","black","white","black","white","white","white","white","black","white","black","white","black","black","white","white","white","black","black","black","black","white","white","white","white","white","black","black","black","white","black","black","white","white","white","black","black","white","white","white","black","white","black","black","white","black","black"],"dot_shape":"circle","background_color":"#AAA","RDK_type":3,"aperture_type":2,"reinsert_type":2,"frame_rate":16.783333333333335,"frame_rate_array":[11,17,17,17,17,16,17,17,17,16,17,18,17,16,18,16,17,17,17,17,17,16,17,18,16,17,17,17,17,17,17,17,16,16,17,18,16,17,17,16,17,17,16,17,17,16,18,16,17,17,17,17,17,17,17,16,16,18,17,17,17,16,17,17,16,17,17,17,16,17,17,16,17,17,17,17,16,17,17,16,17,17,17,17,17,17,17,17,17,17,17,16,17,17,17,17,17,16,17,17,17,17,17,17,16,17,16,17,17,16,17,17,17,17,17,17,16,18,17,17],"number_of_frames":120,"aperture_center_x":680.5,"aperture_center_y":619,"fixation_cross":true,"fixation_cross_width":15,"fixation_cross_height":15,"fixation_cross_color":"#111","fixation_cross_thickness":1,"border":true,"border_thickness":2,"border_color":"transparent","canvas_width":1361,"canvas_height":1238,"trial_type":"rdk","trial_index":96,"plugin_version":"2.0.0","time_elapsed":247068},{"rt":1090,"stimulus":"\n        <div class=\"response-container\">\n          <div class=\"response-instruction\">\n            <p>rotate the bar by using the left and right arrow keys.</p>\n            <p>when you are determined, press the Enter key.</p>\n          </div>\n          <div class=\"response-circle\">\n            <div class=\"response-fixation\"></div>\n            <div id=\"bar\" class=\"rotating-bar\"></div>\n          </div>\n        </div>\n      ","response":"Enter","trial_type":"html-keyboard-response","trial_index":97,"plugin_version":"2.1.0","time_elapsed":248159,"random_initial_angle":238,"response_angle_css":224,"response_angle_rdk":226,"angular_error_target":25,"angular_error_distractor":-91,"target_direction":201,"target_group":"black","reward_points":5},{"rt":null,"stimulus":"\n          <p style=\"color: #00FF00;\">Your reward: 5 points</p>\n        ","response":null,"trial_type":"html-keyboard-response","trial_index":98,"plugin_version":"2.1.0","time_elapsed":250162},{"rt":null,"stimulus":"<div class=\"fixation\" style=\"font-size: 60px;\">+</div>","response":null,"trial_type":"html-keyboard-response","trial_index":99,"plugin_version":"2.1.0","time_elapsed":251165},{"target_group":"white","condition_label":"W_H_vs_B_L_rep1","target_direction":146,"distractor_direction":55,"session_rotation":109,"rt":-1,"response":"","correct":false,"choices":"ALL_KEYS","correct_choice":["a"],"trial_duration":2000,"flip_timestamps":[],"response_ends_trial":false,"number_of_apertures":200,"number_of_dots":[1,1,1,1,1,1,1,1,1,1,1,1,1,1,1,1,1,1,1,1,1,1,1,1,1,1,1,1,1,1,1,1,1,1,1,1,1,1,1,1,1,1,1,1,1,1,1,1,1,1,1,1,1,1,1,1,1,1,1,1,1,1,1,1,1,1,1,1,1,1,1,1,1,1,1,1,1,1,1,1,1,1,1,1,1,1,1,1,1,1,1,1,1,1,1,1,1,1,1,1,1,1,1,1,1,1,1,1,1,1,1,1,1,1,1,1,1,1,1,1,1,1,1,1,1,1,1,1,1,1,1,1,1,1,1,1,1,1,1,1,1,1,1,1,1,1,1,1,1,1,1,1,1,1,1,1,1,1,1,1,1,1,1,1,1,1,1,1,1,1,1,1,1,1,1,1,1,1,1,1,1,1,1,1,1,1,1,1,1,1,1,1,1,1,1,1,1,1,1,1],"number_of_sets":1,"coherent_direction":[55,146,55,55,55,146,146,146,146,146,55,55,55,146,55,146,146,55,146,146,55,146,55,146,55,55,55,55,55,146,55,146,146,146,55,55,146,146,55,55,146,55,146,55,146,55,55,55,55,55,55,55,146,146,146,146,55,146,55,146,146,55,55,55,146,146,55,55,146,55,146,146,146,146,146,55,55,55,146,146,55,55,146,146,55,146,146,146,55,55,55,55,55,146,146,55,146,146,55,146,55,55,55,55,55,55,55,146,146,55,55,146,146,146,55,55,55,146,146,55,146,146,146,146,55,55,146,146,55,146,55,146,55,55,55,146,146,55,146,146,146,146,55,55,146,55,55,146,146,55,55,146,55,146,55,146,55,146,146,55,146,146,55,146,55,146,146,146,146,55,55,55,55,55,146,146,146,55,146,146,146,146,146,55,55,55,146,146,55,146,55,55,55,146,55,146,55,55,146,146],"coherence":1,"opposite_coherence":0,"dot_radius":2,"dot_side_length":1,"dot_life":-1,"move_distance":1,"aperture_width":300,"aperture_height":300,"dot_color":["black","white","black","black","black","white","white","white","white","white","black","black","black","white","black","white","white","black","white","white","black","white","black","white","black","black","black","black","black","white","black","white","white","white","black","black","white","white","black","black","white","black","white","black","white","black","black","black","black","black","black","black","white","white","white","white","black","white","black","white","white","black","black","black","white","white","black","black","white","black","white","white","white","white","white","black","black","black","white","white","black","black","white","white","black","white","white","white","black","black","black","black","black","white","white","black","white","white","black","white","black","black","black","black","black","black","black","white","white","black","black","white","white","white","black","black","black","white","white","black","white","white","white","white","black","black","white","white","black","white","black","white","black","black","black","white","white","black","white","white","white","white","black","black","white","black","black","white","white","black","black","white","black","white","black","white","black","white","white","black","white","white","black","white","black","white","white","white","white","black","black","black","black","black","white","white","white","black","white","white","white","white","white","black","black","black","white","white","black","white","black","black","black","white","black","white","black","black","white","white"],"dot_shape":"circle","background_color":"#AAA","RDK_type":3,"aperture_type":2,"reinsert_type":2,"frame_rate":16.907563025210084,"frame_rate_array":[19,17,16,17,17,17,17,17,16,18,17,17,17,17,17,17,17,17,16,17,17,17,17,17,17,17,17,16,17,17,17,17,17,17,17,16,17,17,17,17,17,17,17,17,17,17,17,17,16,17,17,17,17,17,17,17,17,17,17,17,17,17,17,17,16,17,16,17,17,16,18,17,16,17,16,17,17,17,17,17,17,17,17,17,17,17,17,17,17,17,17,17,17,17,17,17,17,17,17,16,17,16,17,17,17,17,17,17,17,17,17,17,17,17,16,17,17,17,16],"number_of_frames":119,"aperture_center_x":680.5,"aperture_center_y":619,"fixation_cross":true,"fixation_cross_width":15,"fixation_cross_height":15,"fixation_cross_color":"#111","fixation_cross_thickness":1,"border":true,"border_thickness":2,"border_color":"transparent","canvas_width":1361,"canvas_height":1238,"trial_type":"rdk","trial_index":100,"plugin_version":"2.0.0","time_elapsed":253167},{"rt":2732,"stimulus":"\n        <div class=\"response-container\">\n          <div class=\"response-instruction\">\n            <p>rotate the bar by using the left and right arrow keys.</p>\n            <p>when you are determined, press the Enter key.</p>\n          </div>\n          <div class=\"response-circle\">\n            <div class=\"response-fixation\"></div>\n            <div id=\"bar\" class=\"rotating-bar\"></div>\n          </div>\n        </div>\n      ","response":"Enter","trial_type":"html-keyboard-response","trial_index":101,"plugin_version":"2.1.0","time_elapsed":255900,"random_initial_angle":40,"response_angle_css":-53,"response_angle_rdk":143,"angular_error_target":-3,"angular_error_distractor":88,"target_direction":146,"target_group":"white","reward_points":9},{"rt":null,"stimulus":"\n          <p style=\"color: #00FF00;\">Your reward: 9 points</p>\n        ","response":null,"trial_type":"html-keyboard-response","trial_index":102,"plugin_version":"2.1.0","time_elapsed":257902},{"rt":null,"stimulus":"<div class=\"fixation\" style=\"font-size: 60px;\">+</div>","response":null,"trial_type":"html-keyboard-response","trial_index":103,"plugin_version":"2.1.0","time_elapsed":258905},{"target_group":"black","condition_label":"B_H_vs_W_L_rep20","target_direction":231,"distractor_direction":333,"session_rotation":109,"rt":-1,"response":"","correct":false,"choices":"ALL_KEYS","correct_choice":["a"],"trial_duration":2000,"flip_timestamps":[],"response_ends_trial":false,"number_of_apertures":200,"number_of_dots":[1,1,1,1,1,1,1,1,1,1,1,1,1,1,1,1,1,1,1,1,1,1,1,1,1,1,1,1,1,1,1,1,1,1,1,1,1,1,1,1,1,1,1,1,1,1,1,1,1,1,1,1,1,1,1,1,1,1,1,1,1,1,1,1,1,1,1,1,1,1,1,1,1,1,1,1,1,1,1,1,1,1,1,1,1,1,1,1,1,1,1,1,1,1,1,1,1,1,1,1,1,1,1,1,1,1,1,1,1,1,1,1,1,1,1,1,1,1,1,1,1,1,1,1,1,1,1,1,1,1,1,1,1,1,1,1,1,1,1,1,1,1,1,1,1,1,1,1,1,1,1,1,1,1,1,1,1,1,1,1,1,1,1,1,1,1,1,1,1,1,1,1,1,1,1,1,1,1,1,1,1,1,1,1,1,1,1,1,1,1,1,1,1,1,1,1,1,1,1,1],"number_of_sets":1,"coherent_direction":[231,333,231,333,231,231,231,231,231,231,333,231,231,333,231,333,333,333,333,231,333,231,333,333,333,333,333,333,231,231,333,333,231,333,231,231,231,231,333,231,231,231,333,333,231,231,231,333,231,231,231,333,231,231,231,333,333,333,231,333,333,333,333,333,231,333,231,333,333,231,231,333,333,333,333,231,333,231,333,333,231,333,231,333,231,231,231,231,231,333,231,333,231,231,231,333,231,333,333,231,333,231,333,333,333,231,333,333,333,231,333,231,333,231,333,231,333,231,333,231,333,333,231,231,333,231,333,333,333,333,231,333,231,231,333,333,231,333,231,333,231,333,333,333,231,333,333,231,231,333,231,231,333,333,333,333,333,333,231,231,231,333,231,333,231,333,231,231,231,231,231,231,231,231,333,231,333,333,231,231,333,231,333,333,333,333,231,231,333,231,231,231,231,231,333,231,333,333,231,333],"coherence":1,"opposite_coherence":0,"dot_radius":2,"dot_side_length":1,"dot_life":-1,"move_distance":1,"aperture_width":300,"aperture_height":300,"dot_color":["black","white","black","white","black","black","black","black","black","black","white","black","black","white","black","white","white","white","white","black","white","black","white","white","white","white","white","white","black","black","white","white","black","white","black","black","black","black","white","black","black","black","white","white","black","black","black","white","black","black","black","white","black","black","black","white","white","white","black","white","white","white","white","white","black","white","black","white","white","black","black","white","white","white","white","black","white","black","white","white","black","white","black","white","black","black","black","black","black","white","black","white","black","black","black","white","black","white","white","black","white","black","white","white","white","black","white","white","white","black","white","black","white","black","white","black","white","black","white","black","white","white","black","black","white","black","white","white","white","white","black","white","black","black","white","white","black","white","black","white","black","white","white","white","black","white","white","black","black","white","black","black","white","white","white","white","white","white","black","black","black","white","black","white","black","white","black","black","black","black","black","black","black","black","white","black","white","white","black","black","white","black","white","white","white","white","black","black","white","black","black","black","black","black","white","black","white","white","black","white"],"dot_shape":"circle","background_color":"#AAA","RDK_type":3,"aperture_type":2,"reinsert_type":2,"frame_rate":16.840336134453782,"frame_rate_array":[19,16,17,17,17,17,17,17,17,17,17,17,17,17,17,17,17,17,17,17,16,17,17,16,17,17,16,17,17,17,16,16,18,17,17,16,17,17,17,17,17,16,17,17,17,17,17,16,17,17,16,17,16,17,17,17,16,16,17,17,17,17,17,17,17,17,17,17,16,17,16,17,17,17,17,17,17,17,17,16,16,18,17,17,16,16,18,17,16,17,17,17,17,17,16,18,17,17,17,17,17,17,16,17,17,17,17,16,17,17,17,17,17,16,17,17,17,17,16],"number_of_frames":119,"aperture_center_x":680.5,"aperture_center_y":619,"fixation_cross":true,"fixation_cross_width":15,"fixation_cross_height":15,"fixation_cross_color":"#111","fixation_cross_thickness":1,"border":true,"border_thickness":2,"border_color":"transparent","canvas_width":1361,"canvas_height":1238,"trial_type":"rdk","trial_index":104,"plugin_version":"2.0.0","time_elapsed":260907},{"rt":2337,"stimulus":"\n        <div class=\"response-container\">\n          <div class=\"response-instruction\">\n            <p>rotate the bar by using the left and right arrow keys.</p>\n            <p>when you are determined, press the Enter key.</p>\n          </div>\n          <div class=\"response-circle\">\n            <div class=\"response-fixation\"></div>\n            <div id=\"bar\" class=\"rotating-bar\"></div>\n          </div>\n        </div>\n      ","response":"Enter","trial_type":"html-keyboard-response","trial_index":105,"plugin_version":"2.1.0","time_elapsed":263244,"random_initial_angle":180,"response_angle_css":231,"response_angle_rdk":219,"angular_error_target":-12,"angular_error_distractor":-114,"target_direction":231,"target_group":"black","reward_points":7},{"rt":null,"stimulus":"\n          <p style=\"color: #00FF00;\">Your reward: 7 points</p>\n        ","response":null,"trial_type":"html-keyboard-response","trial_index":106,"plugin_version":"2.1.0","time_elapsed":265246},{"rt":null,"stimulus":"<div class=\"fixation\" style=\"font-size: 60px;\">+</div>","response":null,"trial_type":"html-keyboard-response","trial_index":107,"plugin_version":"2.1.0","time_elapsed":266247},{"target_group":"white","condition_label":"W_H_vs_B_L_rep17","target_direction":145,"distractor_direction":24,"session_rotation":109,"rt":-1,"response":"","correct":false,"choices":"ALL_KEYS","correct_choice":["a"],"trial_duration":2000,"flip_timestamps":[],"response_ends_trial":false,"number_of_apertures":200,"number_of_dots":[1,1,1,1,1,1,1,1,1,1,1,1,1,1,1,1,1,1,1,1,1,1,1,1,1,1,1,1,1,1,1,1,1,1,1,1,1,1,1,1,1