[{"rt":3657,"stimulus":"Welcome to the experiment. Press any key to begin.","response":" ","trial_type":"html-keyboard-response","trial_index":0,"plugin_version":"2.1.0","time_elapsed":3660},{"rt":23992,"stimulus":"\n        <div class=\"instructions-container\">\n          <h2>Instructions</h2>\n\n          <p>\n          In this experiment, you will see <strong>two Random Dot Kinematograms (RDKs)</strong> displayed simultaneously.\n          </p>\n\n          <p>\n          An RDK is a visual stimulus consisting of many small dots that move coherently in a single direction. \n          In this experiment, the dots will be either <strong>white</strong> or <strong>black</strong> \n          (see the short demo below for an example of an RDK stimulus).\n          </p>\n\n          <p>\n          On each trial, the two RDKs will move in different directions. \n          Your task is to decide <strong>which RDK appears to contain more dots</strong>.\n          </p>\n\n          <p>\n          The RDK that you judge to have more dots is called the <strong>target RDK</strong>. \n          For example, if the white RDK appears to have more dots than the black RDK, \n          you should report the motion direction of the white RDK.\n          </p>\n\n          <p>\n          After viewing the RDKs, you will rotate a bar to indicate the perceived direction of the target RDK \n          using the <strong>left</strong> and <strong>right arrow keys</strong>. \n          Press <strong>Enter</strong> when you are satisfied with your response.\n          </p>\n\n          <p>\n          You will receive points based on the <strong>accuracy of your response</strong>, \n          and your final <strong>bonus reward</strong> may depend on your overall performance. \n          Please try to respond as accurately as possible.\n          </p>\n\n          <p>\n          You will first complete <strong>16 practice trials</strong>. \n          Press the <strong>Enter</strong> key to start the practice phase.\n          </p>\n\n          <canvas id=\"instruction-demo-rdk\" width=\"200\" height=\"200\"style=\"display:block;margin:12px auto; border-radius: 50%;\"></canvas>\n        </div>\n      ","response":"Enter","trial_type":"html-keyboard-response","trial_index":1,"plugin_version":"2.1.0","time_elapsed":27653},{"rt":null,"stimulus":"<div class=\"fixation\" style=\"font-size: 60px;\">+</div>","response":null,"trial_type":"html-keyboard-response","trial_index":2,"plugin_version":"2.1.0","time_elapsed":28655},{"target_group":"white","target_index":0,"condition_label":"practice","rt":-1,"response":"","correct":false,"choices":"ALL_KEYS","correct_choice":["a"],"trial_duration":2000,"flip_timestamps":[],"response_ends_trial":false,"number_of_apertures":2,"number_of_dots":[100,89],"number_of_sets":1,"coherent_direction":[271,143],"coherence":1,"opposite_coherence":0,"dot_radius":2,"dot_side_length":1,"dot_life":-1,"move_distance":1,"aperture_width":300,"aperture_height":300,"dot_color":["white","black"],"dot_shape":"circle","background_color":"#AAA","RDK_type":3,"aperture_type":2,"reinsert_type":2,"frame_rate":16.775,"frame_rate_array":[15,18,14,17,17,17,16,17,17,17,16,17,17,17,17,17,17,17,17,17,17,17,17,17,17,17,17,18,16,17,17,17,17,16,17,17,16,17,16,17,17,17,17,17,17,17,18,16,17,16,17,17,17,17,16,17,17,17,17,16,17,17,16,17,17,16,17,16,17,16,17,17,17,17,16,17,16,17,16,17,17,17,17,16,17,16,17,17,17,17,17,18,16,17,17,17,17,17,17,16,17,17,17,17,16,16,17,16,17,17,17,16,17,17,17,17,17,17,16,17],"number_of_frames":120,"aperture_center_x":640,"aperture_center_y":400,"fixation_cross":true,"fixation_cross_width":15,"fixation_cross_height":15,"fixation_cross_color":"#111","fixation_cross_thickness":1,"border":true,"border_thickness":2,"border_color":"transparent","canvas_width":1280,"canvas_height":800,"trial_type":"rdk","trial_index":3,"plugin_version":"2.0.0","time_elapsed":30671,"target_direction":271,"distractor_direction":143},{"rt":16801,"stimulus":"\n        <div class=\"response-container\">\n          <div class=\"response-instruction\">\n            <p>rotate the bar by using the left and right arrow keys.</p>\n            <p>when you are determined, press the Enter key.</p>\n          </div>\n          <div class=\"response-circle\">\n            <div class=\"response-fixation\"></div>\n            <div id=\"bar\" class=\"rotating-bar\"></div>\n          </div>\n        </div>\n      ","response":"Enter","trial_type":"html-keyboard-response","trial_index":4,"plugin_version":"2.1.0","time_elapsed":47473,"random_initial_angle":297,"response_angle_css":300,"response_angle_rdk":150,"angular_error_target":-121,"angular_error_distractor":7,"target_direction":271,"target_group":"white","reward_points":0},{"rt":null,"stimulus":"\n          <p style=\"color: #FF3333;\">Your reward: 0 points</p>\n        ","response":null,"trial_type":"html-keyboard-response","trial_index":5,"plugin_version":"2.1.0","time_elapsed":49478},{"rt":null,"stimulus":"<div class=\"fixation\" style=\"font-size: 60px;\">+</div>","response":null,"trial_type":"html-keyboard-response","trial_index":6,"plugin_version":"2.1.0","time_elapsed":50485},{"target_group":"black","target_index":1,"condition_label":"practice","rt":-1,"response":"","correct":false,"choices":"ALL_KEYS","correct_choice":["a"],"trial_duration":2000,"flip_timestamps":[],"response_ends_trial":false,"number_of_apertures":2,"number_of_dots":[52,100],"number_of_sets":1,"coherent_direction":[216,117],"coherence":1,"opposite_coherence":0,"dot_radius":2,"dot_side_length":1,"dot_life":-1,"move_distance":1,"aperture_width":300,"aperture_height":300,"dot_color":["white","black"],"dot_shape":"circle","background_color":"#AAA","RDK_type":3,"aperture_type":2,"reinsert_type":2,"frame_rate":16.75,"frame_rate_array":[14,17,16,17,17,16,17,16,18,16,17,17,17,17,17,16,17,17,17,17,16,17,16,17,16,17,17,17,17,17,16,17,17,17,17,17,17,16,16,17,17,17,17,16,17,17,16,17,16,17,17,17,17,17,16,16,17,16,17,17,17,17,16,17,17,17,16,17,17,16,17,17,17,17,16,17,17,17,17,17,17,17,16,17,17,17,17,16,17,17,16,17,17,17,17,17,17,16,17,17,17,17,17,17,16,17,17,17,17,16,17,17,16,17,17,17,17,17,17,17],"number_of_frames":120,"aperture_center_x":640,"aperture_center_y":400,"fixation_cross":true,"fixation_cross_width":15,"fixation_cross_height":15,"fixation_cross_color":"#111","fixation_cross_thickness":1,"border":true,"border_thickness":2,"border_color":"transparent","canvas_width":1280,"canvas_height":800,"trial_type":"rdk","trial_index":7,"plugin_version":"2.0.0","time_elapsed":52488,"target_direction":117,"distractor_direction":216},{"rt":5830,"stimulus":"\n        <div class=\"response-container\">\n          <div class=\"response-instruction\">\n            <p>rotate the bar by using the left and right arrow keys.</p>\n            <p>when you are determined, press the Enter key.</p>\n          </div>\n          <div class=\"response-circle\">\n            <div class=\"response-fixation\"></div>\n            <div id=\"bar\" class=\"rotating-bar\"></div>\n          </div>\n        </div>\n      ","response":"Enter","trial_type":"html-keyboard-response","trial_index":8,"plugin_version":"2.1.0","time_elapsed":58319,"random_initial_angle":260,"response_angle_css":363,"response_angle_rdk":87,"angular_error_target":-30,"angular_error_distractor":-129,"target_direction":117,"target_group":"black","reward_points":4},{"rt":null,"stimulus":"\n          <p style=\"color: #00FF00;\">Your reward: 4 points</p>\n        ","response":null,"trial_type":"html-keyboard-response","trial_index":9,"plugin_version":"2.1.0","time_elapsed":60328},{"rt":null,"stimulus":"<div class=\"fixation\" style=\"font-size: 60px;\">+</div>","response":null,"trial_type":"html-keyboard-response","trial_index":10,"plugin_version":"2.1.0","time_elapsed":61334},{"target_group":"white","target_index":0,"condition_label":"practice","rt":-1,"response":"","correct":false,"choices":"ALL_KEYS","correct_choice":["a"],"trial_duration":2000,"flip_timestamps":[],"response_ends_trial":false,"number_of_apertures":2,"number_of_dots":[100,50],"number_of_sets":1,"coherent_direction":[126,34],"coherence":1,"opposite_coherence":0,"dot_radius":2,"dot_side_length":1,"dot_life":-1,"move_distance":1,"aperture_width":300,"aperture_height":300,"dot_color":["white","black"],"dot_shape":"circle","background_color":"#AAA","RDK_type":3,"aperture_type":2,"reinsert_type":2,"frame_rate":16.725,"frame_rate_array":[14,17,17,16,17,16,16,17,17,17,17,16,17,17,17,16,16,17,17,17,16,17,16,17,17,16,17,16,17,18,17,16,17,17,17,17,16,16,17,17,17,16,17,17,17,18,15,16,17,17,17,16,16,17,17,17,16,17,17,16,17,17,17,17,16,17,17,16,17,17,17,17,16,17,17,16,17,17,17,16,17,17,17,17,17,17,17,17,17,16,17,16,17,17,17,17,17,17,16,17,16,17,18,16,17,17,17,17,17,17,17,17,17,17,16,17,16,17,17,17],"number_of_frames":120,"aperture_center_x":640,"aperture_center_y":400,"fixation_cross":true,"fixation_cross_width":15,"fixation_cross_height":15,"fixation_cross_color":"#111","fixation_cross_thickness":1,"border":true,"border_thickness":2,"border_color":"transparent","canvas_width":1280,"canvas_height":800,"trial_type":"rdk","trial_index":11,"plugin_version":"2.0.0","time_elapsed":63337,"target_direction":126,"distractor_direction":34},{"rt":3436,"stimulus":"\n        <div class=\"response-container\">\n          <div class=\"response-instruction\">\n            <p>rotate the bar by using the left and right arrow keys.</p>\n            <p>when you are determined, press the Enter key.</p>\n          </div>\n          <div class=\"response-circle\">\n            <div class=\"response-fixation\"></div>\n            <div id=\"bar\" class=\"rotating-bar\"></div>\n          </div>\n        </div>\n      ","response":"Enter","trial_type":"html-keyboard-response","trial_index":12,"plugin_version":"2.1.0","time_elapsed":66774,"random_initial_angle":91,"response_angle_css":71,"response_angle_rdk":19,"angular_error_target":-107,"angular_error_distractor":-15,"target_direction":126,"target_group":"white","reward_points":0},{"rt":null,"stimulus":"\n          <p style=\"color: #FF3333;\">Your reward: 0 points</p>\n        ","response":null,"trial_type":"html-keyboard-response","trial_index":13,"plugin_version":"2.1.0","time_elapsed":68789},{"rt":null,"stimulus":"<div class=\"fixation\" style=\"font-size: 60px;\">+</div>","response":null,"trial_type":"html-keyboard-response","trial_index":14,"plugin_version":"2.1.0","time_elapsed":69803},{"target_group":"white","target_index":0,"condition_label":"practice","rt":-1,"response":"","correct":false,"choices":"ALL_KEYS","correct_choice":["a"],"trial_duration":2000,"flip_timestamps":[],"response_ends_trial":false,"number_of_apertures":2,"number_of_dots":[100,79],"number_of_sets":1,"coherent_direction":[161,301],"coherence":1,"opposite_coherence":0,"dot_radius":2,"dot_side_length":1,"dot_life":-1,"move_distance":1,"aperture_width":300,"aperture_height":300,"dot_color":["white","black"],"dot_shape":"circle","background_color":"#AAA","RDK_type":3,"aperture_type":2,"reinsert_type":2,"frame_rate":16.733333333333334,"frame_rate_array":[11,17,16,17,16,17,17,17,17,17,16,17,17,17,16,17,16,17,18,16,17,17,17,16,17,18,16,17,17,17,17,16,16,17,17,17,16,17,17,16,17,17,17,17,16,17,16,17,17,17,17,16,17,17,17,17,16,17,17,17,17,17,17,17,17,16,17,17,17,17,17,17,17,16,16,17,17,17,17,17,17,17,17,16,17,17,17,16,17,17,17,17,17,17,16,17,17,17,17,17,17,17,17,17,16,17,17,16,17,17,17,16,17,17,17,16,16,17,17,16],"number_of_frames":120,"aperture_center_x":640,"aperture_center_y":400,"fixation_cross":true,"fixation_cross_width":15,"fixation_cross_height":15,"fixation_cross_color":"#111","fixation_cross_thickness":1,"border":true,"border_thickness":2,"border_color":"transparent","canvas_width":1280,"canvas_height":800,"trial_type":"rdk","trial_index":15,"plugin_version":"2.0.0","time_elapsed":71815,"target_direction":161,"distractor_direction":301},{"rt":7515,"stimulus":"\n        <div class=\"response-container\">\n          <div class=\"response-instruction\">\n            <p>rotate the bar by using the left and right arrow keys.</p>\n            <p>when you are determined, press the Enter key.</p>\n          </div>\n          <div class=\"response-circle\">\n            <div class=\"response-fixation\"></div>\n            <div id=\"bar\" class=\"rotating-bar\"></div>\n          </div>\n        </div>\n      ","response":"Enter","trial_type":"html-keyboard-response","trial_index":16,"plugin_version":"2.1.0","time_elapsed":79331,"random_initial_angle":26,"response_angle_css":145,"response_angle_rdk":305,"angular_error_target":144,"angular_error_distractor":4,"target_direction":161,"target_group":"white","reward_points":0},{"rt":null,"stimulus":"\n          <p style=\"color: #FF3333;\">Your reward: 0 points</p>\n        ","response":null,"trial_type":"html-keyboard-response","trial_index":17,"plugin_version":"2.1.0","time_elapsed":81333},{"rt":null,"stimulus":"<div class=\"fixation\" style=\"font-size: 60px;\">+</div>","response":null,"trial_type":"html-keyboard-response","trial_index":18,"plugin_version":"2.1.0","time_elapsed":82339},{"target_group":"white","target_index":0,"condition_label":"practice","rt":-1,"response":"","correct":false,"choices":"ALL_KEYS","correct_choice":["a"],"trial_duration":2000,"flip_timestamps":[],"response_ends_trial":false,"number_of_apertures":2,"number_of_dots":[100,86],"number_of_sets":1,"coherent_direction":[300,71],"coherence":1,"opposite_coherence":0,"dot_radius":2,"dot_side_length":1,"dot_life":-1,"move_distance":1,"aperture_width":300,"aperture_height":300,"dot_color":["white","black"],"dot_shape":"circle","background_color":"#AAA","RDK_type":3,"aperture_type":2,"reinsert_type":2,"frame_rate":16.775,"frame_rate_array":[9,17,17,16,17,17,17,17,17,17,16,17,17,16,17,17,17,17,16,17,17,17,17,17,17,16,18,15,17,17,17,17,16,17,17,17,17,17,17,16,17,17,17,17,17,16,17,16,17,17,16,17,17,17,16,17,16,17,16,17,17,17,17,17,17,17,17,17,17,17,17,17,17,16,17,17,16,17,17,16,17,17,17,17,17,17,17,17,17,17,17,17,17,17,17,17,18,16,17,17,17,17,17,17,16,17,17,17,17,17,16,17,17,17,17,17,17,17,17,17],"number_of_frames":120,"aperture_center_x":640,"aperture_center_y":400,"fixation_cross":true,"fixation_cross_width":15,"fixation_cross_height":15,"fixation_cross_color":"#111","fixation_cross_thickness":1,"border":true,"border_thickness":2,"border_color":"transparent","canvas_width":1280,"canvas_height":800,"trial_type":"rdk","trial_index":19,"plugin_version":"2.0.0","time_elapsed":84349,"target_direction":300,"distractor_direction":71},{"rt":5991,"stimulus":"\n        <div class=\"response-container\">\n          <div class=\"response-instruction\">\n            <p>rotate the bar by using the left and right arrow keys.</p>\n            <p>when you are determined, press the Enter key.</p>\n          </div>\n          <div class=\"response-circle\">\n            <div class=\"response-fixation\"></div>\n            <div id=\"bar\" class=\"rotating-bar\"></div>\n          </div>\n        </div>\n      ","response":"Enter","trial_type":"html-keyboard-response","trial_index":20,"plugin_version":"2.1.0","time_elapsed":90341,"random_initial_angle":202,"response_angle_css":511,"response_angle_rdk":299,"angular_error_target":-1,"angular_error_distractor":-132,"target_direction":300,"target_group":"white","reward_points":9},{"rt":null,"stimulus":"\n          <p style=\"color: #00FF00;\">Your reward: 9 points</p>\n        ","response":null,"trial_type":"html-keyboard-response","trial_index":21,"plugin_version":"2.1.0","time_elapsed":92346},{"rt":null,"stimulus":"<div class=\"fixation\" style=\"font-size: 60px;\">+</div>","response":null,"trial_type":"html-keyboard-response","trial_index":22,"plugin_version":"2.1.0","time_elapsed":93353},{"target_group":"black","target_index":1,"condition_label":"practice","rt":-1,"response":"","correct":false,"choices":"ALL_KEYS","correct_choice":["a"],"trial_duration":2000,"flip_timestamps":[],"response_ends_trial":false,"number_of_apertures":2,"number_of_dots":[74,100],"number_of_sets":1,"coherent_direction":[357,94],"coherence":1,"opposite_coherence":0,"dot_radius":2,"dot_side_length":1,"dot_life":-1,"move_distance":1,"aperture_width":300,"aperture_height":300,"dot_color":["white","black"],"dot_shape":"circle","background_color":"#AAA","RDK_type":3,"aperture_type":2,"reinsert_type":2,"frame_rate":16.683333333333334,"frame_rate_array":[11,18,16,16,17,17,16,17,16,16,17,17,17,16,17,17,16,16,17,17,17,16,17,16,17,17,16,17,17,16,17,17,17,16,16,17,17,17,16,17,17,17,16,17,17,16,17,16,17,17,17,16,17,17,17,17,17,16,17,17,16,17,17,17,17,17,17,17,16,17,17,17,16,17,16,17,17,16,17,17,17,17,16,17,16,17,17,16,17,17,17,17,17,17,17,17,16,17,17,17,17,17,16,17,16,17,17,17,17,17,16,17,17,17,17,17,16,17,17,17],"number_of_frames":120,"aperture_center_x":640,"aperture_center_y":400,"fixation_cross":true,"fixation_cross_width":15,"fixation_cross_height":15,"fixation_cross_color":"#111","fixation_cross_thickness":1,"border":true,"border_thickness":2,"border_color":"transparent","canvas_width":1280,"canvas_height":800,"trial_type":"rdk","trial_index":23,"plugin_version":"2.0.0","time_elapsed":95363,"target_direction":94,"distractor_direction":357},{"rt":6053,"stimulus":"\n        <div class=\"response-container\">\n          <div class=\"response-instruction\">\n            <p>rotate the bar by using the left and right arrow keys.</p>\n            <p>when you are determined, press the Enter key.</p>\n          </div>\n          <div class=\"response-circle\">\n            <div class=\"response-fixation\"></div>\n            <div id=\"bar\" class=\"rotating-bar\"></div>\n          </div>\n        </div>\n      ","response":"Enter","trial_type":"html-keyboard-response","trial_index":24,"plugin_version":"2.1.0","time_elapsed":101417,"random_initial_angle":201,"response_angle_css":-34,"response_angle_rdk":124,"angular_error_target":30,"angular_error_distractor":127,"target_direction":94,"target_group":"black","reward_points":4},{"rt":null,"stimulus":"\n          <p style=\"color: #00FF00;\">Your reward: 4 points</p>\n        ","response":null,"trial_type":"html-keyboard-response","trial_index":25,"plugin_version":"2.1.0","time_elapsed":103422},{"rt":null,"stimulus":"<div class=\"fixation\" style=\"font-size: 60px;\">+</div>","response":null,"trial_type":"html-keyboard-response","trial_index":26,"plugin_version":"2.1.0","time_elapsed":104434},{"target_group":"white","target_index":0,"condition_label":"practice","rt":-1,"response":"","correct":false,"choices":"ALL_KEYS","correct_choice":["a"],"trial_duration":2000,"flip_timestamps":[],"response_ends_trial":false,"number_of_apertures":2,"number_of_dots":[100,71],"number_of_sets":1,"coherent_direction":[234,110],"coherence":1,"opposite_coherence":0,"dot_radius":2,"dot_side_length":1,"dot_life":-1,"move_distance":1,"aperture_width":300,"aperture_height":300,"dot_color":["white","black"],"dot_shape":"circle","background_color":"#AAA","RDK_type":3,"aperture_type":2,"reinsert_type":2,"frame_rate":16.741666666666667,"frame_rate_array":[13,17,17,17,17,17,17,17,16,18,17,17,16,18,16,16,16,17,17,17,17,17,17,17,16,17,17,17,17,16,17,17,17,17,17,17,16,17,17,16,17,16,17,17,16,17,17,17,17,16,17,17,17,17,16,17,17,17,17,17,17,16,17,17,16,17,17,17,16,17,17,16,17,17,17,16,17,17,16,17,17,16,17,16,17,17,16,18,16,17,17,16,17,16,17,17,17,17,17,17,17,16,17,16,17,17,17,17,16,17,17,17,17,17,16,18,16,16,17,17],"number_of_frames":120,"aperture_center_x":640,"aperture_center_y":400,"fixation_cross":true,"fixation_cross_width":15,"fixation_cross_height":15,"fixation_cross_color":"#111","fixation_cross_thickness":1,"border":true,"border_thickness":2,"border_color":"transparent","canvas_width":1280,"canvas_height":800,"trial_type":"rdk","trial_index":27,"plugin_version":"2.0.0","time_elapsed":106446,"target_direction":234,"distractor_direction":110},{"rt":2096,"stimulus":"\n        <div class=\"response-container\">\n          <div class=\"response-instruction\">\n            <p>rotate the bar by using the left and right arrow keys.</p>\n            <p>when you are determined, press the Enter key.</p>\n          </div>\n          <div class=\"response-circle\">\n            <div class=\"response-fixation\"></div>\n            <div id=\"bar\" class=\"rotating-bar\"></div>\n          </div>\n        </div>\n      ","response":"Enter","trial_type":"html-keyboard-response","trial_index":28,"plugin_version":"2.1.0","time_elapsed":108542,"random_initial_angle":354,"response_angle_css":326,"response_angle_rdk":124,"angular_error_target":-110,"angular_error_distractor":14,"target_direction":234,"target_group":"white","reward_points":0},{"rt":null,"stimulus":"\n          <p style=\"color: #FF3333;\">Your reward: 0 points</p>\n        ","response":null,"trial_type":"html-keyboard-response","trial_index":29,"plugin_version":"2.1.0","time_elapsed":110549},{"rt":null,"stimulus":"<div class=\"fixation\" style=\"font-size: 60px;\">+</div>","response":null,"trial_type":"html-keyboard-response","trial_index":30,"plugin_version":"2.1.0","time_elapsed":111553},{"target_group":"black","target_index":1,"condition_label":"practice","rt":-1,"response":"","correct":false,"choices":"ALL_KEYS","correct_choice":["a"],"trial_duration":2000,"flip_timestamps":[],"response_ends_trial":false,"number_of_apertures":2,"number_of_dots":[56,100],"number_of_sets":1,"coherent_direction":[312,206],"coherence":1,"opposite_coherence":0,"dot_radius":2,"dot_side_length":1,"dot_life":-1,"move_distance":1,"aperture_width":300,"aperture_height":300,"dot_color":["white","black"],"dot_shape":"circle","background_color":"#AAA","RDK_type":3,"aperture_type":2,"reinsert_type":2,"frame_rate":16.7,"frame_rate_array":[11,17,16,17,16,17,17,16,17,16,17,17,17,17,17,16,17,17,17,17,16,17,16,17,17,17,16,17,16,17,17,16,17,17,17,16,17,16,17,17,16,17,16,17,17,17,17,16,17,17,16,17,17,17,17,17,17,16,17,17,16,17,17,17,17,17,16,17,17,17,17,17,17,17,16,17,17,17,16,17,17,17,16,17,17,16,17,17,17,17,17,16,17,17,16,17,17,17,17,17,16,16,17,17,17,17,16,17,17,17,17,16,17,17,17,17,16,17,17,17],"number_of_frames":120,"aperture_center_x":640,"aperture_center_y":400,"fixation_cross":true,"fixation_cross_width":15,"fixation_cross_height":15,"fixation_cross_color":"#111","fixation_cross_thickness":1,"border":true,"border_thickness":2,"border_color":"transparent","canvas_width":1280,"canvas_height":800,"trial_type":"rdk","trial_index":31,"plugin_version":"2.0.0","time_elapsed":113567,"target_direction":206,"distractor_direction":312},{"rt":4147,"stimulus":"\n        <div class=\"response-container\">\n          <div class=\"response-instruction\">\n            <p>rotate the bar by using the left and right arrow keys.</p>\n            <p>when you are determined, press the Enter key.</p>\n          </div>\n          <div class=\"response-circle\">\n            <div class=\"response-fixation\"></div>\n            <div id=\"bar\" class=\"rotating-bar\"></div>\n          </div>\n        </div>\n      ","response":"Enter","trial_type":"html-keyboard-response","trial_index":32,"plugin_version":"2.1.0","time_elapsed":117714,"random_initial_angle":107,"response_angle_css":-101,"response_angle_rdk":191,"angular_error_target":-15,"angular_error_distractor":-121,"target_direction":206,"target_group":"black","reward_points":7},{"rt":null,"stimulus":"\n          <p style=\"color: #00FF00;\">Your reward: 7 points</p>\n        ","response":null,"trial_type":"html-keyboard-response","trial_index":33,"plugin_version":"2.1.0","time_elapsed":119722},{"rt":null,"stimulus":"<div class=\"fixation\" style=\"font-size: 60px;\">+</div>","response":null,"trial_type":"html-keyboard-response","trial_index":34,"plugin_version":"2.1.0","time_elapsed":120738},{"target_group":"black","target_index":1,"condition_label":"practice","rt":-1,"response":"","correct":false,"choices":"ALL_KEYS","correct_choice":["a"],"trial_duration":2000,"flip_timestamps":[],"response_ends_trial":false,"number_of_apertures":2,"number_of_dots":[99,100],"number_of_sets":1,"coherent_direction":[32,125],"coherence":1,"opposite_coherence":0,"dot_radius":2,"dot_side_length":1,"dot_life":-1,"move_distance":1,"aperture_width":300,"aperture_height":300,"dot_color":["white","black"],"dot_shape":"circle","background_color":"#AAA","RDK_type":3,"aperture_type":2,"reinsert_type":2,"frame_rate":16.733333333333334,"frame_rate_array":[11,15,17,17,16,17,17,16,17,17,17,17,17,17,17,17,16,17,17,17,17,16,17,16,17,17,16,17,17,17,17,17,17,16,17,16,16,17,17,17,17,16,17,16,17,17,17,16,17,17,16,17,17,17,17,16,17,16,17,17,16,17,17,17,17,17,17,17,17,16,17,17,17,17,17,17,17,16,17,16,17,16,17,17,17,17,17,17,17,17,17,17,17,17,17,17,16,17,17,16,17,17,16,17,17,17,17,17,17,17,18,16,17,17,17,17,17,16,17,17],"number_of_frames":120,"aperture_center_x":640,"aperture_center_y":400,"fixation_cross":true,"fixation_cross_width":15,"fixation_cross_height":15,"fixation_cross_color":"#111","fixation_cross_thickness":1,"border":true,"border_thickness":2,"border_color":"transparent","canvas_width":1280,"canvas_height":800,"trial_type":"rdk","trial_index":35,"plugin_version":"2.0.0","time_elapsed":122747,"target_direction":125,"distractor_direction":32},{"rt":3091,"stimulus":"\n        <div class=\"response-container\">\n          <div class=\"response-instruction\">\n            <p>rotate the bar by using the left and right arrow keys.</p>\n            <p>when you are determined, press the Enter key.</p>\n          </div>\n          <div class=\"response-circle\">\n            <div class=\"response-fixation\"></div>\n            <div id=\"bar\" class=\"rotating-bar\"></div>\n          </div>\n        </div>\n      ","response":"Enter","trial_type":"html-keyboard-response","trial_index":36,"plugin_version":"2.1.0","time_elapsed":125839,"random_initial_angle":246,"response_angle_css":300,"response_angle_rdk":150,"angular_error_target":25,"angular_error_distractor":118,"target_direction":125,"target_group":"black","reward_points":5},{"rt":null,"stimulus":"\n          <p style=\"color: #00FF00;\">Your reward: 5 points</p>\n        ","response":null,"trial_type":"html-keyboard-response","trial_index":37,"plugin_version":"2.1.0","time_elapsed":127841},{"rt":null,"stimulus":"<div class=\"fixation\" style=\"font-size: 60px;\">+</div>","response":null,"trial_type":"html-keyboard-response","trial_index":38,"plugin_version":"2.1.0","time_elapsed":128856},{"target_group":"black","target_index":1,"condition_label":"practice","rt":-1,"response":"","correct":false,"choices":"ALL_KEYS","correct_choice":["a"],"trial_duration":2000,"flip_timestamps":[],"response_ends_trial":false,"number_of_apertures":2,"number_of_dots":[92,100],"number_of_sets":1,"coherent_direction":[121,232],"coherence":1,"opposite_coherence":0,"dot_radius":2,"dot_side_length":1,"dot_life":-1,"move_distance":1,"aperture_width":300,"aperture_height":300,"dot_color":["white","black"],"dot_shape":"circle","background_color":"#AAA","RDK_type":3,"aperture_type":2,"reinsert_type":2,"frame_rate":16.666666666666668,"frame_rate_array":[8,16,17,17,17,16,17,17,16,17,17,17,16,17,17,17,17,16,17,17,17,17,16,17,17,17,16,17,17,17,16,17,17,16,17,16,17,17,17,17,17,16,17,17,16,17,17,17,17,17,16,16,17,16,17,17,16,17,16,17,17,17,17,17,16,16,17,17,16,17,17,16,17,17,16,17,17,17,17,17,16,17,17,18,16,16,17,17,17,17,17,17,17,16,17,16,17,17,17,17,17,16,17,16,17,17,17,16,17,17,17,16,17,16,17,17,17,17,17,17],"number_of_frames":120,"aperture_center_x":640,"aperture_center_y":400,"fixation_cross":true,"fixation_cross_width":15,"fixation_cross_height":15,"fixation_cross_color":"#111","fixation_cross_thickness":1,"border":true,"border_thickness":2,"border_color":"transparent","canvas_width":1280,"canvas_height":800,"trial_type":"rdk","trial_index":39,"plugin_version":"2.0.0","time_elapsed":130866,"target_direction":232,"distractor_direction":121},{"rt":3837,"stimulus":"\n        <div class=\"response-container\">\n          <div class=\"response-instruction\">\n            <p>rotate the bar by using the left and right arrow keys.</p>\n            <p>when you are determined, press the Enter key.</p>\n          </div>\n          <div class=\"response-circle\">\n            <div class=\"response-fixation\"></div>\n            <div id=\"bar\" class=\"rotating-bar\"></div>\n          </div>\n        </div>\n      ","response":"Enter","trial_type":"html-keyboard-response","trial_index":40,"plugin_version":"2.1.0","time_elapsed":134704,"random_initial_angle":175,"response_angle_css":204,"response_angle_rdk":246,"angular_error_target":14,"angular_error_distractor":125,"target_direction":232,"target_group":"black","reward_points":7},{"rt":null,"stimulus":"\n          <p style=\"color: #00FF00;\">Your reward: 7 points</p>\n        ","response":null,"trial_type":"html-keyboard-response","trial_index":41,"plugin_version":"2.1.0","time_elapsed":136719},{"rt":null,"stimulus":"<div class=\"fixation\" style=\"font-size: 60px;\">+</div>","response":null,"trial_type":"html-keyboard-response","trial_index":42,"plugin_version":"2.1.0","time_elapsed":137724},{"target_group":"black","target_index":1,"condition_label":"practice","rt":-1,"response":"","correct":false,"choices":"ALL_KEYS","correct_choice":["a"],"trial_duration":2000,"flip_timestamps":[],"response_ends_trial":false,"number_of_apertures":2,"number_of_dots":[79,100],"number_of_sets":1,"coherent_direction":[238,67],"coherence":1,"opposite_coherence":0,"dot_radius":2,"dot_side_length":1,"dot_life":-1,"move_distance":1,"aperture_width":300,"aperture_height":300,"dot_color":["white","black"],"dot_shape":"circle","background_color":"#AAA","RDK_type":3,"aperture_type":2,"reinsert_type":2,"frame_rate":17.04237288135593,"frame_rate_array":[8,15,49,17,16,17,17,17,17,17,17,16,17,17,17,17,16,17,16,17,17,19,15,17,17,17,17,17,17,17,17,17,16,17,17,17,17,17,17,16,17,16,17,16,17,17,16,17,17,17,17,16,17,17,16,17,17,17,17,17,17,17,17,17,17,17,17,17,17,17,17,17,17,17,17,17,17,17,17,17,16,17,17,17,17,17,17,17,16,17,16,17,17,16,17,17,17,17,17,17,17,16,17,17,17,17,17,17,17,17,17,17,17,17,17,17,17,17],"number_of_frames":118,"aperture_center_x":640,"aperture_center_y":400,"fixation_cross":true,"fixation_cross_width":15,"fixation_cross_height":15,"fixation_cross_color":"#111","fixation_cross_thickness":1,"border":true,"border_thickness":2,"border_color":"transparent","canvas_width":1280,"canvas_height":800,"trial_type":"rdk","trial_index":43,"plugin_version":"2.0.0","time_elapsed":139732,"target_direction":67,"distractor_direction":238},{"rt":3229,"stimulus":"\n        <div class=\"response-container\">\n          <div class=\"response-instruction\">\n            <p>rotate the bar by using the left and right arrow keys.</p>\n            <p>when you are determined, press the Enter key.</p>\n          </div>\n          <div class=\"response-circle\">\n            <div class=\"response-fixation\"></div>\n            <div id=\"bar\" class=\"rotating-bar\"></div>\n          </div>\n        </div>\n      ","response":"Enter","trial_type":"html-keyboard-response","trial_index":44,"plugin_version":"2.1.0","time_elapsed":142962,"random_initial_angle":99,"response_angle_css":49,"response_angle_rdk":41,"angular_error_target":-26,"angular_error_distractor":163,"target_direction":67,"target_group":"black","reward_points":4},{"rt":null,"stimulus":"\n          <p style=\"color: #00FF00;\">Your reward: 4 points</p>\n        ","response":null,"trial_type":"html-keyboard-response","trial_index":45,"plugin_version":"2.1.0","time_elapsed":144978},{"rt":null,"stimulus":"<div class=\"fixation\" style=\"font-size: 60px;\">+</div>","response":null,"trial_type":"html-keyboard-response","trial_index":46,"plugin_version":"2.1.0","time_elapsed":145987},{"target_group":"white","target_index":0,"condition_label":"practice","rt":-1,"response":"","correct":false,"choices":"ALL_KEYS","correct_choice":["a"],"trial_duration":2000,"flip_timestamps":[],"response_ends_trial":false,"number_of_apertures":2,"number_of_dots":[100,53],"number_of_sets":1,"coherent_direction":[80,242],"coherence":1,"opposite_coherence":0,"dot_radius":2,"dot_side_length":1,"dot_life":-1,"move_distance":1,"aperture_width":300,"aperture_height":300,"dot_color":["white","black"],"dot_shape":"circle","background_color":"#AAA","RDK_type":3,"aperture_type":2,"reinsert_type":2,"frame_rate":16.816666666666666,"frame_rate_array":[11,16,17,16,17,17,17,17,17,17,17,17,17,17,17,17,17,17,17,17,17,17,17,17,17,16,17,17,18,16,17,17,17,16,17,17,17,16,17,17,17,17,16,17,17,17,17,17,17,17,17,17,17,17,17,17,17,17,17,17,17,17,17,17,17,17,17,17,17,17,18,15,17,17,17,17,16,17,17,17,17,17,17,17,17,17,17,17,17,17,17,17,17,17,17,17,17,17,16,16,17,17,16,17,16,17,17,16,17,16,17,17,17,17,17,17,16,17,17,16],"number_of_frames":120,"aperture_center_x":640,"aperture_center_y":400,"fixation_cross":true,"fixation_cross_width":15,"fixation_cross_height":15,"fixation_cross_color":"#111","fixation_cross_thickness":1,"border":true,"border_thickness":2,"border_color":"transparent","canvas_width":1280,"canvas_height":800,"trial_type":"rdk","trial_index":47,"plugin_version":"2.0.0","time_elapsed":147997,"target_direction":80,"distractor_direction":242},{"rt":2302,"stimulus":"\n        <div class=\"response-container\">\n          <div class=\"response-instruction\">\n            <p>rotate the bar by using the left and right arrow keys.</p>\n            <p>when you are determined, press the Enter key.</p>\n          </div>\n          <div class=\"response-circle\">\n            <div class=\"response-fixation\"></div>\n            <div id=\"bar\" class=\"rotating-bar\"></div>\n          </div>\n        </div>\n      ","response":"Enter","trial_type":"html-keyboard-response","trial_index":48,"plugin_version":"2.1.0","time_elapsed":150300,"random_initial_angle":232,"response_angle_css":223,"response_angle_rdk":227,"angular_error_target":147,"angular_error_distractor":-15,"target_direction":80,"target_group":"white","reward_points":0},{"rt":null,"stimulus":"\n          <p style=\"color: #FF3333;\">Your reward: 0 points</p>\n        ","response":null,"trial_type":"html-keyboard-response","trial_index":49,"plugin_version":"2.1.0","time_elapsed":152314},{"rt":null,"stimulus":"<div class=\"fixation\" style=\"font-size: 60px;\">+</div>","response":null,"trial_type":"html-keyboard-response","trial_index":50,"plugin_version":"2.1.0","time_elapsed":153332},{"target_group":"black","target_index":1,"condition_label":"practice","rt":-1,"response":"","correct":false,"choices":"ALL_KEYS","correct_choice":["a"],"trial_duration":2000,"flip_timestamps":[],"response_ends_trial":false,"number_of_apertures":2,"number_of_dots":[63,100],"number_of_sets":1,"coherent_direction":[50,150],"coherence":1,"opposite_coherence":0,"dot_radius":2,"dot_side_length":1,"dot_life":-1,"move_distance":1,"aperture_width":300,"aperture_height":300,"dot_color":["white","black"],"dot_shape":"circle","background_color":"#AAA","RDK_type":3,"aperture_type":2,"reinsert_type":2,"frame_rate":16.716666666666665,"frame_rate_array":[16,16,17,17,16,17,17,16,17,16,17,17,17,17,17,17,17,17,16,17,17,17,17,17,17,17,17,17,16,17,16,17,17,17,16,17,16,16,16,17,16,17,17,17,17,16,17,16,17,17,17,16,17,17,16,17,16,17,17,17,16,17,17,16,16,17,17,17,17,17,17,17,16,16,17,16,17,17,17,16,17,17,17,17,17,17,17,16,17,17,16,17,17,17,16,17,17,16,17,17,16,17,16,17,17,17,17,17,16,17,16,17,17,17,17,17,16,17,17,17],"number_of_frames":120,"aperture_center_x":640,"aperture_center_y":400,"fixation_cross":true,"fixation_cross_width":15,"fixation_cross_height":15,"fixation_cross_color":"#111","fixation_cross_thickness":1,"border":true,"border_thickness":2,"border_color":"transparent","canvas_width":1280,"canvas_height":800,"trial_type":"rdk","trial_index":51,"plugin_version":"2.0.0","time_elapsed":155350,"target_direction":150,"distractor_direction":50},{"rt":2717,"stimulus":"\n        <div class=\"response-container\">\n          <div class=\"response-instruction\">\n            <p>rotate the bar by using the left and right arrow keys.</p>\n            <p>when you are determined, press the Enter key.</p>\n          </div>\n          <div class=\"response-circle\">\n            <div class=\"response-fixation\"></div>\n            <div id=\"bar\" class=\"rotating-bar\"></div>\n          </div>\n        </div>\n      ","response":"Enter","trial_type":"html-keyboard-response","trial_index":52,"plugin_version":"2.1.0","time_elapsed":158068,"random_initial_angle":323,"response_angle_css":290,"response_angle_rdk":160,"angular_error_target":10,"angular_error_distractor":110,"target_direction":150,"target_group":"black","reward_points":8},{"rt":null,"stimulus":"\n          <p style=\"color: #00FF00;\">Your reward: 8 points</p>\n        ","response":null,"trial_type":"html-keyboard-response","trial_index":53,"plugin_version":"2.1.0","time_elapsed":160074},{"rt":null,"stimulus":"<div class=\"fixation\" style=\"font-size: 60px;\">+</div>","response":null,"trial_type":"html-keyboard-response","trial_index":54,"plugin_version":"2.1.0","time_elapsed":161088},{"target_group":"white","target_index":0,"condition_label":"practice","rt":-1,"response":"","correct":false,"choices":"ALL_KEYS","correct_choice":["a"],"trial_duration":2000,"flip_timestamps":[],"response_ends_trial":false,"number_of_apertures":2,"number_of_dots":[100,100],"number_of_sets":1,"coherent_direction":[199,44],"coherence":1,"opposite_coherence":0,"dot_radius":2,"dot_side_length":1,"dot_life":-1,"move_distance":1,"aperture_width":300,"aperture_height":300,"dot_color":["white","black"],"dot_shape":"circle","background_color":"#AAA","RDK_type":3,"aperture_type":2,"reinsert_type":2,"frame_rate":16.683333333333334,"frame_rate_array":[8,17,16,17,17,16,17,17,17,17,17,17,17,17,16,16,17,17,17,17,17,17,17,17,17,16,17,17,16,17,17,17,16,17,17,17,16,16,17,17,17,16,17,17,17,17,17,17,17,16,17,16,17,16,17,16,17,18,16,16,17,17,17,17,17,17,16,17,16,17,17,17,16,17,17,16,17,17,17,16,17,17,16,17,17,17,17,17,17,16,17,17,17,16,17,16,17,17,17,17,16,17,16,17,16,17,17,16,17,17,17,16,17,17,17,17,17,17,17,17],"number_of_frames":120,"aperture_center_x":640,"aperture_center_y":400,"fixation_cross":true,"fixation_cross_width":15,"fixation_cross_height":15,"fixation_cross_color":"#111","fixation_cross_thickness":1,"border":true,"border_thickness":2,"border_color":"transparent","canvas_width":1280,"canvas_height":800,"trial_type":"rdk","trial_index":55,"plugin_version":"2.0.0","time_elapsed":163094,"target_direction":199,"distractor_direction":44},{"rt":6294,"stimulus":"\n        <div class=\"response-container\">\n          <div class=\"response-instruction\">\n            <p>rotate the bar by using the left and right arrow keys.</p>\n            <p>when you are determined, press the Enter key.</p>\n          </div>\n          <div class=\"response-circle\">\n            <div class=\"response-fixation\"></div>\n            <div id=\"bar\" class=\"rotating-bar\"></div>\n          </div>\n        </div>\n      ","response":"Enter","trial_type":"html-keyboard-response","trial_index":56,"plugin_version":"2.1.0","time_elapsed":169389,"random_initial_angle":139,"response_angle_css":49,"response_angle_rdk":41,"angular_error_target":-158,"angular_error_distractor":-3,"target_direction":199,"target_group":"white","reward_points":0},{"rt":null,"stimulus":"\n          <p style=\"color: #FF3333;\">Your reward: 0 points</p>\n        ","response":null,"trial_type":"html-keyboard-response","trial_index":57,"plugin_version":"2.1.0","time_elapsed":171395},{"rt":null,"stimulus":"<div class=\"fixation\" style=\"font-size: 60px;\">+</div>","response":null,"trial_type":"html-keyboard-response","trial_index":58,"plugin_version":"2.1.0","time_elapsed":172412},{"target_group":"white","target_index":0,"condition_label":"practice","rt":-1,"response":"","correct":false,"choices":"ALL_KEYS","correct_choice":["a"],"trial_duration":2000,"flip_timestamps":[],"response_ends_trial":false,"number_of_apertures":2,"number_of_dots":[100,73],"number_of_sets":1,"coherent_direction":[140,244],"coherence":1,"opposite_coherence":0,"dot_radius":2,"dot_side_length":1,"dot_life":-1,"move_distance":1,"aperture_width":300,"aperture_height":300,"dot_color":["white","black"],"dot_shape":"circle","background_color":"#AAA","RDK_type":3,"aperture_type":2,"reinsert_type":2,"frame_rate":16.611570247933884,"frame_rate_array":[2,17,17,17,16,17,17,16,17,16,17,16,17,17,17,16,16,17,17,17,16,18,17,17,17,17,17,17,16,16,17,17,16,16,17,17,17,17,17,16,17,17,17,16,17,17,17,16,17,17,16,17,16,17,16,16,17,17,17,16,18,16,17,17,17,17,17,16,17,17,17,16,16,17,18,17,16,17,17,17,17,17,17,17,16,17,17,17,16,17,17,16,17,16,17,16,17,17,17,17,17,16,17,17,17,16,17,17,16,17,17,16,17,17,16,17,17,17,17,17,16],"number_of_frames":121,"aperture_center_x":640,"aperture_center_y":400,"fixation_cross":true,"fixation_cross_width":15,"fixation_cross_height":15,"fixation_cross_color":"#111","fixation_cross_thickness":1,"border":true,"border_thickness":2,"border_color":"transparent","canvas_width":1280,"canvas_height":800,"trial_type":"rdk","trial_index":59,"plugin_version":"2.0.0","time_elapsed":174416,"target_direction":140,"distractor_direction":244},{"rt":4767,"stimulus":"\n        <div class=\"response-container\">\n          <div class=\"response-instruction\">\n            <p>rotate the bar by using the left and right arrow keys.</p>\n            <p>when you are determined, press the Enter key.</p>\n          </div>\n          <div class=\"response-circle\">\n            <div class=\"response-fixation\"></div>\n            <div id=\"bar\" class=\"rotating-bar\"></div>\n          </div>\n        </div>\n      ","response":"Enter","trial_type":"html-keyboard-response","trial_index":60,"plugin_version":"2.1.0","time_elapsed":179184,"random_initial_angle":295,"response_angle_css":541,"response_angle_rdk":269,"angular_error_target":129,"angular_error_distractor":25,"target_direction":140,"target_group":"white","reward_points":0},{"rt":null,"stimulus":"\n          <p style=\"color: #FF3333;\">Your reward: 0 points</p>\n        ","response":null,"trial_type":"html-keyboard-response","trial_index":61,"plugin_version":"2.1.0","time_elapsed":181186},{"rt":null,"stimulus":"<div class=\"fixation\" style=\"font-size: 60px;\">+</div>","response":null,"trial_type":"html-keyboard-response","trial_index":62,"plugin_version":"2.1.0","time_elapsed":182199},{"target_group":"white","target_index":0,"condition_label":"practice","rt":-1,"response":"","correct":false,"choices":"ALL_KEYS","correct_choice":["a"],"trial_duration":2000,"flip_timestamps":[],"response_ends_trial":false,"number_of_apertures":2,"number_of_dots":[100,85],"number_of_sets":1,"coherent_direction":[200,322],"coherence":1,"opposite_coherence":0,"dot_radius":2,"dot_side_length":1,"dot_life":-1,"move_distance":1,"aperture_width":300,"aperture_height":300,"dot_color":["white","black"],"dot_shape":"circle","background_color":"#AAA","RDK_type":3,"aperture_type":2,"reinsert_type":2,"frame_rate":16.791666666666668,"frame_rate_array":[15,16,17,17,17,16,17,17,17,17,16,17,17,17,17,17,17,17,16,16,17,16,17,17,17,17,17,17,17,17,16,17,17,17,17,17,17,17,16,17,16,17,16,17,17,17,17,17,17,17,16,17,17,17,17,16,17,17,17,17,17,17,17,16,17,17,17,17,17,16,17,17,17,16,16,17,17,17,17,17,16,16,17,17,17,17,17,17,17,17,17,16,17,17,17,17,17,17,16,17,17,17,17,16,16,17,17,17,17,17,17,16,17,17,17,17,17,17,17,17],"number_of_frames":120,"aperture_center_x":640,"aperture_center_y":400,"fixation_cross":true,"fixation_cross_width":15,"fixation_cross_height":15,"fixation_cross_color":"#111","fixation_cross_thickness":1,"border":true,"border_thickness":2,"border_color":"transparent","canvas_width":1280,"canvas_height":800,"trial_type":"rdk","trial_index":63,"plugin_version":"2.0.0","time_elapsed":184202,"target_direction":200,"distractor_direction":322},{"rt":4468,"stimulus":"\n        <div class=\"response-container\">\n          <div class=\"response-instruction\">\n            <p>rotate the bar by using the left and right arrow keys.</p>\n            <p>when you are determined, press the Enter key.</p>\n          </div>\n          <div class=\"response-circle\">\n            <div class=\"response-fixation\"></div>\n            <div id=\"bar\" class=\"rotating-bar\"></div>\n          </div>\n        </div>\n      ","response":"Enter","trial_type":"html-keyboard-response","trial_index":64,"plugin_version":"2.1.0","time_elapsed":188671,"random_initial_angle":307,"response_angle_css":484,"response_angle_rdk":326,"angular_error_target":126,"angular_error_distractor":4,"target_direction":200,"target_group":"white","reward_points":0},{"rt":null,"stimulus":"\n          <p style=\"color: #FF3333;\">Your reward: 0 points</p>\n        ","response":null,"trial_type":"html-keyboard-response","trial_index":65,"plugin_version":"2.1.0","time_elapsed":190672},{"rt":3453,"stimulus":"\n        <div class=\"instructions-container\">\n          <h2>End of Practice</h2>\n          <p>You have completed the practice trials.</p>\n          <p>Press <strong>Enter</strong> key to begin the main experiment.</p>\n        </div>\n      ","response":"Enter","trial_type":"html-keyboard-response","trial_index":66,"plugin_version":"2.1.0","time_elapsed":194126},{"rt":null,"stimulus":"<div class=\"fixation\" style=\"font-size: 60px;\">+</div>","response":null,"trial_type":"html-keyboard-response","trial_index":67,"plugin_version":"2.1.0","time_elapsed":195137},{"target_group":"white","condition_label":"W_H_vs_B_L_rep22","target_direction":12,"distractor_direction":280,"session_rotation":334,"rt":-1,"response":"","correct":false,"choices":"ALL_KEYS","correct_choice":["a"],"trial_duration":2000,"flip_timestamps":[],"response_ends_trial":false,"number_of_apertures":200,"number_of_dots":[1,1,1,1,1,1,1,1,1,1,1,1,1,1,1,1,1,1,1,1,1,1,1,1,1,1,1,1,1,1,1,1,1,1,1,1,1,1,1,1,1,1,1,1,1,1,1,1,1,1,1,1,1,1,1,1,1,1,1,1,1,1,1,1,1,1,1,1,1,1,1,1,1,1,1,1,1,1,1,1,1,1,1,1,1,1,1,1,1,1,1,1,1,1,1,1,1,1,1,1,1,1,1,1,1,1,1,1,1,1,1,1,1,1,1,1,1,1,1,1,1,1,1,1,1,1,1,1,1,1,1,1,1,1,1,1,1,1,1,1,1,1,1,1,1,1,1,1,1,1,1,1,1,1,1,1,1,1,1,1,1,1,1,1,1,1,1,1,1,1,1,1,1,1,1,1,1,1,1,1,1,1,1,1,1,1,1,1,1,1,1,1,1,1,1,1,1,1,1,1],"number_of_sets":1,"coherent_direction":[12,280,280,280,280,280,12,12,280,280,12,12,280,280,12,12,280,12,280,12,12,280,12,12,12,280,12,12,12,280,12,280,12,12,280,280,280,12,12,12,12,12,280,12,12,280,280,280,280,12,280,280,12,12,12,12,280,12,280,12,12,12,280,12,12,280,280,12,12,280,280,12,280,280,280,280,280,12,12,280,280,280,12,280,280,12,280,12,280,12,12,12,12,12,12,12,280,280,280,12,12,280,280,280,280,280,12,280,12,280,12,280,12,280,280,12,280,280,12,280,12,12,12,280,280,280,280,12,12,280,280,280,12,280,280,12,280,280,280,12,12,280,12,280,280,12,280,280,12,12,12,12,12,12,12,12,280,12,280,12,12,12,280,12,12,12,280,280,280,280,280,280,280,12,12,12,12,280,12,12,280,280,280,280,280,280,280,12,12,12,280,280,12,12,280,12,12,280,12,280],"coherence":1,"opposite_coherence":0,"dot_radius":2,"dot_side_length":1,"dot_life":-1,"move_distance":1,"aperture_width":300,"aperture_height":300,"dot_color":["white","black","black","black","black","black","white","white","black","black","white","white","black","black","white","white","black","white","black","white","white","black","white","white","white","black","white","white","white","black","white","black","white","white","black","black","black","white","white","white","white","white","black","white","white","black","black","black","black","white","black","black","white","white","white","white","black","white","black","white","white","white","black","white","white","black","black","white","white","black","black","white","black","black","black","black","black","white","white","black","black","black","white","black","black","white","black","white","black","white","white","white","white","white","white","white","black","black","black","white","white","black","black","black","black","black","white","black","white","black","white","black","white","black","black","white","black","black","white","black","white","white","white","black","black","black","black","white","white","black","black","black","white","black","black","white","black","black","black","white","white","black","white","black","black","white","black","black","white","white","white","white","white","white","white","white","black","white","black","white","white","white","black","white","white","white","black","black","black","black","black","black","black","white","white","white","white","black","white","white","black","black","black","black","black","black","black","white","white","white","black","black","white","white","black","white","white","black","white","black"],"dot_shape":"circle","background_color":"#AAA","RDK_type":3,"aperture_type":2,"reinsert_type":2,"frame_rate":16.702479338842974,"frame_rate_array":[9,19,14,17,18,16,17,17,17,16,17,16,18,16,16,17,16,17,16,17,17,17,17,16,18,17,15,16,17,17,17,16,17,18,16,17,16,16,17,17,17,17,17,16,17,17,17,17,17,18,15,17,17,16,17,19,15,17,16,17,16,17,16,18,17,17,17,16,17,16,18,16,17,16,17,18,15,17,16,18,17,16,18,17,16,17,17,17,17,17,17,17,22,12,16,17,17,17,17,16,17,17,17,17,17,17,16,17,16,17,17,17,17,17,16,16,17,17,17,17,17],"number_of_frames":121,"aperture_center_x":640,"aperture_center_y":400,"fixation_cross":true,"fixation_cross_width":15,"fixation_cross_height":15,"fixation_cross_color":"#111","fixation_cross_thickness":1,"border":true,"border_thickness":2,"border_color":"transparent","canvas_width":1280,"canvas_height":800,"trial_type":"rdk","trial_index":68,"plugin_version":"2.0.0","time_elapsed":197151},{"rt":3614,"stimulus":"\n        <div class=\"response-container\">\n          <div class=\"response-instruction\">\n            <p>rotate the bar by using the left and right arrow keys.</p>\n            <p>when you are determined, press the Enter key.</p>\n          </div>\n          <div class=\"response-circle\">\n            <div class=\"response-fixation\"></div>\n            <div id=\"bar\" class=\"rotating-bar\"></div>\n          </div>\n        </div>\n      ","response":"Enter","trial_type":"html-keyboard-response","trial_index":69,"plugin_version":"2.1.0","time_elapsed":200766,"random_initial_angle":116,"response_angle_css":197,"response_angle_rdk":253,"angular_error_target":-119,"angular_error_distractor":-27,"target_direction":12,"target_group":"white","reward_points":0},{"rt":null,"stimulus":"\n          <p style=\"color: #FF3333;\">Your reward: 0 points</p>\n        ","response":null,"trial_type":"html-keyboard-response","trial_index":70,"plugin_version":"2.1.0","time_elapsed":202769},{"rt":null,"stimulus":"<div class=\"fixation\" style=\"font-size: 60px;\">+</div>","response":null,"trial_type":"html-keyboard-response","trial_index":71,"plugin_version":"2.1.0","time_elapsed":203784},{"target_group":"white","condition_label":"W_H_vs_B_L_rep5","target_direction":346,"distractor_direction":254,"session_rotation":334,"rt":-1,"response":"","correct":false,"choices":"ALL_KEYS","correct_choice":["a"],"trial_duration":2000,"flip_timestamps":[],"response_ends_trial":false,"number_of_apertures":200,"number_of_dots":[1,1,1,1,1,1,1,1,1,1,1,1,1,1,1,1,1,1,1,1,1,1,1,1,1,1,1,1,1,1,1,1,1,1,1,1,1,1,1,1,1,1,1,1,1,1,1,1,1,1,1,1,1,1,1,1,1,1,1,1,1,1,1,1,1,1,1,1,1,1,1,1,1,1,1,1,1,1,1,1,1,1,1,1,1,1,1,1,1,1,1,1,1,1,1,1,1,1,1,1,1,1,1,1,1,1,1,1,1,1,1,1,1,1,1,1,1,1,1,1,1,1,1,1,1,1,1,1,1,1,1,1,1,1,1,1,1,1,1,1,1,1,1,1,1,1,1,1,1,1,1,1,1,1,1,1,1,1,1,1,1,1,1,1,1,1,1,1,1,1,1,1,1,1,1,1,1,1,1,1,1,1,1,1,1,1,1,1,1,1,1,1,1,1,1,1,1,1,1,1],"number_of_sets":1,"coherent_direction":[346,254,254,254,346,346,346,254,346,254,254,346,346,254,346,254,346,346,346,346,346,346,346,254,346,254,346,346,346,254,254,254,254,254,346,346,346,346,254,254,254,254,346,346,346,346,346,346,254,254,346,254,254,346,254,346,346,346,254,254,254,254,346,254,254,254,346,346,254,346,254,346,346,346,254,346,254,254,346,254,254,254,254,346,254,254,254,346,254,254,254,254,346,346,346,254,346,254,346,346,346,346,346,346,254,254,254,346,254,254,346,254,346,254,346,346,346,254,346,346,346,346,346,346,346,254,346,346,254,254,346,254,346,254,346,254,254,254,254,254,254,346,254,254,346,346,254,254,346,254,346,346,346,346,254,254,254,254,346,254,346,346,346,254,254,254,346,254,346,254,346,346,346,254,254,346,254,254,346,254,346,346,254,254,254,254,254,254,346,346,254,346,254,346,254,254,254,254,346,346],"coherence":1,"opposite_coherence":0,"dot_radius":2,"dot_side_length":1,"dot_life":-1,"move_distance":1,"aperture_width":300,"aperture_height":300,"dot_color":["white","black","black","black","white","white","white","black","white","black","black","white","white","black","white","black","white","white","white","white","white","white","white","black","white","black","white","white","white","black","black","black","black","black","white","white","white","white","black","black","black","black","white","white","white","white","white","white","black","black","white","black","black","white","black","white","white","white","black","black","black","black","white","black","black","black","white","white","black","white","black","white","white","white","black","white","black","black","white","black","black","black","black","white","black","black","black","white","black","black","black","black","white","white","white","black","white","black","white","white","white","white","white","white","black","black","black","white","black","black","white","black","white","black","white","white","white","black","white","white","white","white","white","white","white","black","white","white","black","black","white","black","white","black","white","black","black","black","black","black","black","white","black","black","white","white","black","black","white","black","white","white","white","white","black","black","black","black","white","black","white","white","white","black","black","black","white","black","white","black","white","white","white","black","black","white","black","black","white","black","white","white","black","black","black","black","black","black","white","white","black","white","black","white","black","black","black","black","white","white"],"dot_shape":"circle","background_color":"#AAA","RDK_type":3,"aperture_type":2,"reinsert_type":2,"frame_rate":16.65,"frame_rate_array":[12,16,17,17,17,17,17,17,16,17,17,17,16,17,17,17,16,16,17,16,17,17,17,16,17,18,16,17,16,17,17,16,18,16,17,16,16,17,17,17,17,16,18,16,17,17,17,17,16,18,16,16,17,16,17,17,17,16,17,16,17,16,17,17,16,17,17,16,17,16,17,16,16,17,19,15,17,17,16,16,17,17,17,17,17,16,17,16,16,17,17,16,17,17,18,16,16,17,17,17,16,17,16,17,16,17,16,17,17,17,16,17,16,16,17,17,17,17,17,17],"number_of_frames":120,"aperture_center_x":640,"aperture_center_y":400,"fixation_cross":true,"fixation_cross_width":15,"fixation_cross_height":15,"fixation_cross_color":"#111","fixation_cross_thickness":1,"border":true,"border_thickness":2,"border_color":"transparent","canvas_width":1280,"canvas_height":800,"trial_type":"rdk","trial_index":72,"plugin_version":"2.0.0","time_elapsed":205796},{"rt":3175,"stimulus":"\n        <div class=\"response-container\">\n          <div class=\"response-instruction\">\n            <p>rotate the bar by using the left and right arrow keys.</p>\n            <p>when you are determined, press the Enter key.</p>\n          </div>\n          <div class=\"response-circle\">\n            <div class=\"response-fixation\"></div>\n            <div id=\"bar\" class=\"rotating-bar\"></div>\n          </div>\n        </div>\n      ","response":"Enter","trial_type":"html-keyboard-response","trial_index":73,"plugin_version":"2.1.0","time_elapsed":208972,"random_initial_angle":237,"response_angle_css":215,"response_angle_rdk":235,"angular_error_target":-111,"angular_error_distractor":-19,"target_direction":346,"target_group":"white","reward_points":0},{"rt":null,"stimulus":"\n          <p style=\"color: #FF3333;\">Your reward: 0 points</p>\n        ","response":null,"trial_type":"html-keyboard-response","trial_index":74,"plugin_version":"2.1.0","time_elapsed":210985},{"rt":null,"stimulus":"<div class=\"fixation\" style=\"font-size: 60px;\">+</div>","response":null,"trial_type":"html-keyboard-response","trial_index":75,"plugin_version":"2.1.0","time_elapsed":211995},{"target_group":"white","condition_label":"W_H_vs_B_L_rep1","target_direction":346,"distractor_direction":256,"session_rotation":334,"rt":-1,"response":"","correct":false,"choices":"ALL_KEYS","correct_choice":["a"],"trial_duration":2000,"flip_timestamps":[],"response_ends_trial":false,"number_of_apertures":200,"number_of_dots":[1,1,1,1,1,1,1,1,1,1,1,1,1,1,1,1,1,1,1,1,1,1,1,1,1,1,1,1,1,1,1,1,1,1,1,1,1,1,1,1,1,1,1,1,1,1,1,1,1,1,1,1,1,1,1,1,1,1,1,1,1,1,1,1,1,1,1,1,1,1,1,1,1,1,1,1,1,1,1,1,1,1,1,1,1,1,1,1,1,1,1,1,1,1,1,1,1,1,1,1,1,1,1,1,1,1,1,1,1,1,1,1,1,1,1,1,1,1,1,1,1,1,1,1,1,1,1,1,1,1,1,1,1,1,1,1,1,1,1,1,1,1,1,1,1,1,1,1,1,1,1,1,1,1,1,1,1,1,1,1,1,1,1,1,1,1,1,1,1,1,1,1,1,1,1,1,1,1,1,1,1,1,1,1,1,1,1,1,1,1,1,1,1,1,1,1,1,1,1,1],"number_of_sets":1,"coherent_direction":[256,256,346,346,256,256,256,346,346,346,346,346,346,346,346,346,346,256,256,256,346,256,256,256,346,346,256,256,256,346,346,256,346,256,256,256,346,346,256,346,256,346,346,256,346,256,256,256,346,256,346,256,346,346,346,346,256,256,346,256,346,346,256,256,346,256,346,256,346,256,346,346,346,346,256,346,346,346,346,256,256,256,256,256,346,346,256,256,256,256,346,256,256,256,346,256,346,346,256,256,346,346,346,346,346,256,256,256,346,346,346,346,256,346,256,346,256,256,256,346,256,346,256,346,346,346,346,256,346,346,256,256,256,256,256,256,256,256,346,256,256,346,256,346,256,346,346,256,256,346,256,346,346,346,256,346,346,346,346,256,256,256,256,256,346,346,256,256,346,346,346,346,346,256,256,256,346,346,256,346,256,346,346,256,346,346,256,346,346,256,256,346,256,256,256,256,256,346,256,256],"coherence":1,"opposite_coherence":0,"dot_radius":2,"dot_side_length":1,"dot_life":-1,"move_distance":1,"aperture_width":300,"aperture_height":300,"dot_color":["black","black","white","white","black","black","black","white","white","white","white","white","white","white","white","white","white","black","black","black","white","black","black","black","white","white","black","black","black","white","white","black","white","black","black","black","white","white","black","white","black","white","white","black","white","black","black","black","white","black","white","black","white","white","white","white","black","black","white","black","white","white","black","black","white","black","white","black","white","black","white","white","white","white","black","white","white","white","white","black","black","black","black","black","white","white","black","black","black","black","white","black","black","black","white","black","white","white","black","black","white","white","white","white","white","black","black","black","white","white","white","white","black","white","black","white","black","black","black","white","black","white","black","white","white","white","white","black","white","white","black","black","black","black","black","black","black","black","white","black","black","white","black","white","black","white","white","black","black","white","black","white","white","white","black","white","white","white","white","black","black","black","black","black","white","white","black","black","white","white","white","white","white","black","black","black","white","white","black","white","black","white","white","black","white","white","black","white","white","black","black","white","black","black","black","black","black","white","black","black"],"dot_shape":"circle","background_color":"#AAA","RDK_type":3,"aperture_type":2,"reinsert_type":2,"frame_rate":16.633333333333333,"frame_rate_array":[2,15,17,17,17,17,16,17,17,16,17,16,17,17,16,17,16,17,17,17,17,17,16,17,16,18,16,17,16,18,17,16,17,17,17,17,16,16,18,16,17,17,16,17,17,16,18,16,17,17,16,18,16,17,17,17,17,17,17,16,17,17,17,16,17,17,18,16,16,17,17,16,17,16,17,18,16,16,17,17,17,17,17,17,17,17,17,17,16,17,16,19,15,17,17,17,17,17,17,17,17,16,17,17,17,16,17,17,17,17,16,16,17,16,17,17,17,17,17,16],"number_of_frames":120,"aperture_center_x":640,"aperture_center_y":400,"fixation_cross":true,"fixation_cross_width":15,"fixation_cross_height":15,"fixation_cross_color":"#111","fixation_cross_thickness":1,"border":true,"border_thickness":2,"border_color":"transparent","canvas_width":1280,"canvas_height":800,"trial_type":"rdk","trial_index":76,"plugin_version":"2.0.0","time_elapsed":213997},{"rt":2727,"stimulus":"\n        <div class=\"response-container\">\n          <div class=\"response-instruction\">\n            <p>rotate the bar by using the left and right arrow keys.</p>\n            <p>when you are determined, press the Enter key.</p>\n          </div>\n          <div class=\"response-circle\">\n            <div class=\"response-fixation\"></div>\n            <div id=\"bar\" class=\"rotating-bar\"></div>\n          </div>\n        </div>\n      ","response":"Enter","trial_type":"html-keyboard-response","trial_index":77,"plugin_version":"2.1.0","time_elapsed":216725,"random_initial_angle":246,"response_angle_css":206,"response_angle_rdk":244,"angular_error_target":-102,"angular_error_distractor":-12,"target_direction":346,"target_group":"white","reward_points":0},{"rt":null,"stimulus":"\n          <p style=\"color: #FF3333;\">Your reward: 0 points</p>\n        ","response":null,"trial_type":"html-keyboard-response","trial_index":78,"plugin_version":"2.1.0","time_elapsed":218731},{"rt":null,"stimulus":"<div class=\"fixation\" style=\"font-size: 60px;\">+</div>","response":null,"trial_type":"html-keyboard-response","trial_index":79,"plugin_version":"2.1.0","time_elapsed":219747},{"target_group":"white","condition_label":"W_H_vs_B_L_rep17","target_direction":1,"distractor_direction":264,"session_rotation":334,"rt":-1,"response":"","correct":false,"choices":"ALL_KEYS","correct_choice":["a"],"trial_duration":2000,"flip_timestamps":[],"response_ends_trial":false,"number_of_apertures":200,"number_of_dots":[1,1,1,1,1,1,1,1,1,1,1,1,1,1,1,1,1,1,1,1,1,1,1,1,1,1,1,1,1,1,1,1,1,1,1,1,1,1,1,1,1,1,1,1,1,1,1,1,1,1,1,1,1,1,1,1,1,1,1,1,1,1,1,1,1,1,1,1,1,1,1,1,1,1,1,1,1,1,1,1,1,1,1,1,1,1,1,1,1,1,1,1,1,1,1,1,1,1,1,1,1,1,1,1,1,1,1,1,1,1,1,1,1,1,1,1,1,1,1,1,1,1,1,1,1,1,1,1,1,1,1,1,1,1,1,1,1,1,1,1,1,1,1,1,1,1,1,1,1,1,1,1,1,1,1,1,1,1,1,1,1,1,1,1,1,1,1,1,1,1,1,1,1,1,1,1,1,1,1,1,1,1,1,1,1,1,1,1,1,1,1,1,1,1,1,1,1,1,1,1],"number_of_sets":1,"coherent_direction":[264,1,264,264,264,264,1,264,264,1,264,1,1,1,264,264,1,1,1,264,1,264,1,1,264,264,264,264,264,264,1,264,264,264,264,264,264,1,1,1,264,264,1,1,264,1,264,1,1,264,1,1,1,1,1,1,1,264,1,264,264,264,1,1,1,1,264,1,1,1,1,264,264,264,1,264,1,1,1,264,1,264,264,264,1,1,264,264,264,264,264,1,1,264,264,1,264,264,264,1,1,264,1,264,1,264,1,1,1,1,1,264,1,1,1,264,1,1,264,264,264,1,264,264,1,264,1,1,264,1,264,1,1,1,1,264,264,1,264,264,264,264,264,1,1,264,1,1,264,1,264,264,264,264,264,1,264,1,1,1,264,264,1,264,1,1,264,264,264,1,1,1,264,1,1,1,264,264,264,264,264,1,1,1,1,1,1,1,264,1,264,1,264,264,264,264,1,1,264,264],"coherence":1,"opposite_coherence":0,"dot_radius":2,"dot_side_length":1,"dot_life":-1,"move_distance":1,"aperture_width":300,"aperture_height":300,"dot_color":["black","white","black","black","black","black","white","black","black","white","black","white","white","white","black","black","white","white","white","black","white","black","white","white","black","black","black","black","black","black","white","black","black","black","black","black","black","white","white","white","black","black","white","white","black","white","black","white","white","black","white","white","white","white","white","white","white","black","white","black","black","black","white","white","white","white","black","white","white","white","white","black","black","black","white","black","white","white","white","black","white","black","black","black","white","white","black","black","black","black","black","white","white","black","black","white","black","black","black","white","white","black","white","black","white","black","white","white","white","white","white","black","white","white","white","black","white","white","black","black","black","white","black","black","white","black","white","white","black","white","black","white","white","white","white","black","black","white","black","black","black","black","black","white","white","black","white","white","black","white","black","black","black","black","black","white","black","white","white","white","black","black","white","black","white","white","black","black","black","white","white","white","black","white","white","white","black","black","black","black","black","white","white","white","white","white","white","white","black","white","black","white","black","black","black","black","white","white","black","black"],"dot_shape":"circle","background_color":"#AAA","RDK_type":3,"aperture_type":2,"reinsert_type":2,"frame_rate":16.675,"frame_rate_array":[8,17,17,16,17,17,17,17,17,16,17,17,16,17,17,17,16,16,17,17,18,16,17,16,17,16,17,16,17,17,17,18,15,17,16,17,16,17,17,17,17,17,17,16,17,17,17,17,17,17,17,16,17,16,17,17,18,16,16,17,16,17,17,16,17,17,16,17,17,17,16,17,16,17,17,17,17,18,16,17,17,17,17,17,17,17,17,17,16,17,16,17,17,17,17,17,16,18,16,17,16,17,17,16,16,18,17,16,17,16,17,17,16,17,16,17,16,17,17,17],"number_of_frames":120,"aperture_center_x":640,"aperture_center_y":400,"fixation_cross":true,"fixation_cross_width":15,"fixation_cross_height":15,"fixation_cross_color":"#111","fixation_cross_thickness":1,"border":true,"border_thickness":2,"border_color":"transparent","canvas_width":1280,"canvas_height":800,"trial_type":"rdk","trial_index":80,"plugin_version":"2.0.0","time_elapsed":221780},{"rt":5131,"stimulus":"\n        <div class=\"response-container\">\n          <div class=\"response-instruction\">\n            <p>rotate the bar by using the left and right arrow keys.</p>\n            <p>when you are determined, press the Enter key.</p>\n          </div>\n          <div class=\"response-circle\">\n            <div class=\"response-fixation\"></div>\n            <div id=\"bar\" class=\"rotating-bar\"></div>\n          </div>\n        </div>\n      ","response":"Enter","trial_type":"html-keyboard-response","trial_index":81,"plugin_version":"2.1.0","time_elapsed":226911,"random_initial_angle":205,"response_angle_css":196,"response_angle_rdk":254,"angular_error_target":-107,"angular_error_distractor":-10,"target_direction":1,"target_group":"white","reward_points":0},{"rt":null,"stimulus":"\n          <p style=\"color: #FF3333;\">Your reward: 0 points</p>\n        ","response":null,"trial_type":"html-keyboard-response","trial_index":82,"plugin_version":"2.1.0","time_elapsed":228922},{"rt":null,"stimulus":"<div class=\"fixation\" style=\"font-size: 60px;\">+</div>","response":null,"trial_type":"html-keyboard-response","trial_index":83,"plugin_version":"2.1.0","time_elapsed":229934},{"target_group":"white","condition_label":"W_H_vs_B_L_rep21","target_direction":11,"distractor_direction":244,"session_rotation":334,"rt":-1,"response":"","correct":false,"choices":"ALL_KEYS","correct_choice":["a"],"trial_duration":2000,"flip_timestamps":[],"response_ends_trial":false,"number_of_apertures":200,"number_of_dots":[1,1,1,1,1,1,1,1,1,1,1,1,1,1,1,1,1,1,1,1,1,1,1,1,1,1,1,1,1,1,1,1,1,1,1,1,1,1,1,1,1,1,1,1,1,1,1,1,1,1,1,1,1,1,1,1,1,1,1,1,1,1,1,1,1,1,1,1,1,1,1,1,1,1,1,1,1,1,1,1,1,1,1,1,1,1,1,1,1,1,1,1,1,1,1,1,1,1,1,1,1,1,1,1,1,1,1,1,1,1,1,1,1,1,1,1,1,1,1,1,1,1,1,1,1,1,1,1,1,1,1,1,1,1,1,1,1,1,1,1,1,1,1,1,1,1,1,1,1,1,1,1,1,1,1,1,1,1,1,1,1,1,1,1,1,1,1,1,1,1,1,1,1,1,1,1,1,1,1,1,1,1,1,1,1,1,1,1,1,1,1,1,1,1,1,1,1,1,1,1],"number_of_sets":1,"coherent_direction":[11,11,11,11,244,244,244,244,11,11,11,244,244,11,244,11,244,11,11,244,244,244,11,11,244,11,11,244,244,244,244,244,244,244,11,11,11,244,11,11,11,244,244,11,244,244,244,244,244,244,11,244,11,11,244,244,244,244,244,11,244,11,244,11,11,244,244,244,11,11,11,244,11,244,244,244,244,11,11,11,11,11,244,244,244,244,244,11,244,244,244,244,11,11,244,244,11,11,11,11,244,11,244,244,11,11,244,11,11,11,244,244,244,11,11,244,244,11,11,11,11,244,244,244,244,244,11,244,11,11,11,11,11,244,11,11,11,244,11,11,11,11,11,244,11,11,244,244,11,11,11,244,11,244,244,244,244,244,244,244,244,244,11,244,11,11,11,11,11,244,11,244,244,11,244,11,244,244,11,11,11,244,244,11,244,11,11,244,11,11,11,11,11,11,244,244,244,244,11,11],"coherence":1,"opposite_coherence":0,"dot_radius":2,"dot_side_length":1,"dot_life":-1,"move_distance":1,"aperture_width":300,"aperture_height":300,"dot_color":["white","white","white","white","black","black","black","black","white","white","white","black","black","white","black","white","black","white","white","black","black","black","white","white","black","white","white","black","black","black","black","black","black","black","white","white","white","black","white","white","white","black","black","white","black","black","black","black","black","black","white","black","white","white","black","black","black","black","black","white","black","white","black","white","white","black","black","black","white","white","white","black","white","black","black","black","black","white","white","white","white","white","black","black","black","black","black","white","black","black","black","black","white","white","black","black","white","white","white","white","black","white","black","black","white","white","black","white","white","white","black","black","black","white","white","black","black","white","white","white","white","black","black","black","black","black","white","black","white","white","white","white","white","black","white","white","white","black","white","white","white","white","white","black","white","white","black","black","white","white","white","black","white","black","black","black","black","black","black","black","black","black","white","black","white","white","white","white","white","black","white","black","black","white","black","white","black","black","white","white","white","black","black","white","black","white","white","black","white","white","white","white","white","white","black","black","black","black","white","white"],"dot_shape":"circle","background_color":"#AAA","RDK_type":3,"aperture_type":2,"reinsert_type":2,"frame_rate":16.675,"frame_rate_array":[13,16,17,16,17,17,17,16,17,17,16,16,17,17,17,16,17,17,16,17,17,17,17,17,16,17,17,16,16,18,16,17,16,17,16,17,17,16,17,17,17,15,17,17,17,16,17,17,16,17,16,17,17,17,16,18,17,16,16,17,17,17,16,17,17,16,16,17,17,17,17,17,17,17,16,17,17,16,17,17,17,17,16,17,16,17,17,17,16,16,17,17,16,17,17,18,16,16,17,16,18,18,16,17,16,17,17,17,16,17,17,17,16,17,17,16,18,17,17,16],"number_of_frames":120,"aperture_center_x":640,"aperture_center_y":400,"fixation_cross":true,"fixation_cross_width":15,"fixation_cross_height":15,"fixation_cross_color":"#111","fixation_cross_thickness":1,"border":true,"border_thickness":2,"border_color":"transparent","canvas_width":1280,"canvas_height":800,"trial_type":"rdk","trial_index":84,"plugin_version":"2.0.0","time_elapsed":231946},{"rt":4922,"stimulus":"\n        <div class=\"response-container\">\n          <div class=\"response-instruction\">\n            <p>rotate the bar by using the left and right arrow keys.</p>\n            <p>when you are determined, press the Enter key.</p>\n          </div>\n          <div class=\"response-circle\">\n            <div class=\"response-fixation\"></div>\n            <div id=\"bar\" class=\"rotating-bar\"></div>\n          </div>\n        </div>\n      ","response":"Enter","trial_type":"html-keyboard-response","trial_index":85,"plugin_version":"2.1.0","time_elapsed":236868,"random_initial_angle":87,"response_angle_css":-123,"response_angle_rdk":213,"angular_error_target":-158,"angular_error_distractor":-31,"target_direction":11,"target_group":"white","reward_points":0},{"rt":null,"stimulus":"\n          <p style=\"color: #FF3333;\">Your reward: 0 points</p>\n        ","response":null,"trial_type":"html-keyboard-response","trial_index":86,"plugin_version":"2.1.0","time_elapsed":238871},{"rt":null,"stimulus":"<div class=\"fixation\" style=\"font-size: 60px;\">+</div>","response":null,"trial_type":"html-keyboard-response","trial_index":87,"plugin_version":"2.1.0","time_elapsed":239879},{"target_group":"black","condition_label":"B_H_vs_W_L_rep8","target_direction":74,"distractor_direction":168,"session_rotation":334,"rt":-1,"response":"","correct":false,"choices":"ALL_KEYS","correct_choice":["a"],"trial_duration":2000,"flip_timestamps":[],"response_ends_trial":false,"number_of_apertures":200,"number_of_dots":[1,1,1,1,1,1,1,1,1,1,1,1,1,1,1,1,1,1,1,1,1,1,1,1,1,1,1,1,1,1,1,1,1,1,1,1,1,1,1,1,1,1,1,1,1,1,1,1,1,1,1,1,1,1,1,1,1,1,1,1,1,1,1,1,1,1,1,1,1,1,1,1,1,1,1,1,1,1,1,1,1,1,1,1,1,1,1,1,1,1,1,1,1,1,1,1,1,1,1,1,1,1,1,1,1,1,1,1,1,1,1,1,1,1,1,1,1,1,1,1,1,1,1,1,1,1,1,1,1,1,1,1,1,1,1,1,1,1,1,1,1,1,1,1,1,1,1,1,1,1,1,1,1,1,1,1,1,1,1,1,1,1,1,1,1,1,1,1,1,1,1,1,1,1,1,1,1,1,1,1,1,1,1,1,1,1,1,1,1,1,1,1,1,1,1,1,1,1,1,1],"number_of_sets":1,"coherent_direction":[74,168,74,74,74,74,168,74,74,74,74,168,168,74,74,168,168,168,168,74,74,74,168,168,74,74,168,74,168,74,74,74,74,168,168,168,168,168,168,74,74,168,168,74,74,168,74,168,168,74,74,74,168,168,168,168,74,168,74,168,74,74,168,168,168,74,74,74,168,168,168,168,74,74,168,74,168,168,74,74,74,168,168,74,168,74,168,168,74,168,74,74,168,168,74,168,168,168,168,74,74,74,168,74,74,74,168,168,74,168,168,74,74,74,168,74,74,168,168,74,168,74,74,168,168,168,168,74,168,74,74,74,74,168,168,168,168,168,74,74,168,168,74,168,74,74,74,74,168,74,74,74,74,168,168,74,168,74,74,74,168,74,168,74,74,74,74,168,168,168,74,168,74,168,168,74,168,168,168,74,168,168,168,168,168,74,168,74,168,168,168,74,74,74,74,74,168,168,74,168],"coherence":1,"opposite_coherence":0,"dot_radius":2,"dot_side_length":1,"dot_life":-1,"move_distance":1,"aperture_width":300,"aperture_height":300,"dot_color":["black","white","black","black","black","black","white","black","black","black","black","white","white","black","black","white","white","white","white","black","black","black","white","white","black","black","white","black","white","black","black","black","black","white","white","white","white","white","white","black","black","white","white","black","black","white","black","white","white","black","black","black","white","white","white","white","black","white","black","white","black","black","white","white","white","black","black","black","white","white","white","white","black","black","white","black","white","white","black","black","black","white","white","black","white","black","white","white","black","white","black","black","white","white","black","white","white","white","white","black","black","black","white","black","black","black","white","white","black","white","white","black","black","black","white","black","black","white","white","black","white","black","black","white","white","white","white","black","white","black","black","black","black","white","white","white","white","white","black","black","white","white","black","white","black","black","black","black","white","black","black","black","black","white","white","black","white","black","black","black","white","black","white","black","black","black","black","white","white","white","black","white","black","white","white","black","white","white","white","black","white","white","white","white","white","black","white","black","white","white","white","black","black","black","black","black","white","white","black","white"],"dot_shape":"circle","background_color":"#AAA","RDK_type":3,"aperture_type":2,"reinsert_type":2,"frame_rate":16.60330578512397,"frame_rate_array":[2,15,18,15,17,17,16,17,17,16,17,17,17,16,17,18,16,16,17,17,17,16,17,17,17,17,16,17,17,16,16,17,17,16,17,17,16,17,17,17,17,17,16,17,17,16,17,18,16,17,16,17,17,17,16,18,16,17,17,17,16,16,18,16,17,17,16,17,16,16,17,17,17,17,17,16,17,18,16,16,17,17,16,17,17,16,18,17,17,18,16,16,17,16,16,17,17,17,17,17,16,17,17,17,16,16,17,17,18,17,15,18,17,16,16,17,17,16,17,17,18],"number_of_frames":121,"aperture_center_x":640,"aperture_center_y":400,"fixation_cross":true,"fixation_cross_width":15,"fixation_cross_height":15,"fixation_cross_color":"#111","fixation_cross_thickness":1,"border":true,"border_thickness":2,"border_color":"transparent","canvas_width":1280,"canvas_height":800,"trial_type":"rdk","trial_index":88,"plugin_version":"2.0.0","time_elapsed":241884},{"rt":2943,"stimulus":"\n        <div class=\"response-container\">\n          <div class=\"response-instruction\">\n            <p>rotate the bar by using the left and right arrow keys.</p>\n            <p>when you are determined, press the Enter key.</p>\n          </div>\n          <div class=\"response-circle\">\n            <div class=\"response-fixation\"></div>\n            <div id=\"bar\" class=\"rotating-bar\"></div>\n          </div>\n        </div>\n      ","response":"Enter","trial_type":"html-keyboard-response","trial_index":89,"plugin_version":"2.1.0","time_elapsed":244828,"random_initial_angle":72,"response_angle_css":24,"response_angle_rdk":66,"angular_error_target":-8,"angular_error_distractor":-102,"target_direction":74,"target_group":"black","reward_points":8},{"rt":null,"stimulus":"\n          <p style=\"color: #00FF00;\">Your reward: 8 points</p>\n        ","response":null,"trial_type":"html-keyboard-response","trial_index":90,"plugin_version":"2.1.0","time_elapsed":246831},{"rt":null,"stimulus":"<div class=\"fixation\" style=\"font-size: 60px;\">+</div>","response":null,"trial_type":"html-keyboard-response","trial_index":91,"plugin_version":"2.1.0","time_elapsed":247834},{"target_group":"white","condition_label":"W_H_vs_B_L_rep8","target_direction":12,"distractor_direction":277,"session_rotation":334,"rt":-1,"response":"","correct":false,"choices":"ALL_KEYS","correct_choice":["a"],"trial_duration":2000,"flip_timestamps":[],"response_ends_trial":false,"number_of_apertures":200,"number_of_dots":[1,1,1,1,1,1,1,1,1,1,1,1,1,1,1,1,1,1,1,1,1,1,1,1,1,1,1,1,1,1,1,1,1,1,1,1,1,1,1,1,1,1,1,1,1,1,1,1,1,1,1,1,1,1,1,1,1,1,1,1,1,1,1,1,1,1,1,1,1,1,1,1,1,1,1,1,1,1,1,1,1,1,1,1,1,1,1,1,1,1,1,1,1,1,1,1,1,1,1,1,1,1,1,1,1,1,1,1,1,1,1,1,1,1,1,1,1,1,1,1,1,1,1,1,1,1,1,1,1,1,1,1,1,1,1,1,1,1,1,1,1,1,1,1,1,1,1,1,1,1,1,1,1,1,1,1,1,1,1,1,1,1,1,1,1,1,1,1,1,1,1,1,1,1,1,1,1,1,1,1,1,1,1,1,1,1,1,1,1,1,1,1,1,1,1,1,1,1,1,1],"number_of_sets":1,"coherent_direction":[12,12,277,12,12,12,12,277,277,12,12,12,12,277,277,277,277,277,12,277,277,277,12,277,12,277,12,12,277,12,12,277,12,12,12,12,12,12,12,277,12,12,277,12,277,277,277,12,277,277,277,12,277,277,12,12,12,277,12,12,277,12,12,277,277,277,12,12,12,277,12,12,277,12,12,277,277,12,12,12,277,277,12,277,277,277,277,277,12,277,277,277,277,277,12,12,277,277,12,277,12,277,12,12,12,12,12,277,12,12,277,277,277,277,277,12,277,277,277,277,12,12,12,277,277,277,12,12,277,12,277,12,12,12,277,12,12,12,12,12,12,277,12,277,12,12,12,277,277,277,277,12,12,12,12,277,277,12,277,12,277,12,277,12,277,277,277,277,277,12,277,277,277,277,277,277,277,12,12,277,12,12,12,277,12,12,277,277,277,12,277,12,277,277,12,277,12,277,277,12],"coherence":1,"opposite_coherence":0,"dot_radius":2,"dot_side_length":1,"dot_life":-1,"move_distance":1,"aperture_width":300,"aperture_height":300,"dot_color":["white","white","black","white","white","white","white","black","black","white","white","white","white","black","black","black","black","black","white","black","black","black","white","black","white","black","white","white","black","white","white","black","white","white","white","white","white","white","white","black","white","white","black","white","black","black","black","white","black","black","black","white","black","black","white","white","white","black","white","white","black","white","white","black","black","black","white","white","white","black","white","white","black","white","white","black","black","white","white","white","black","black","white","black","black","black","black","black","white","black","black","black","black","black","white","white","black","black","white","black","white","black","white","white","white","white","white","black","white","white","black","black","black","black","black","white","black","black","black","black","white","white","white","black","black","black","white","white","black","white","black","white","white","white","black","white","white","white","white","white","white","black","white","black","white","white","white","black","black","black","black","white","white","white","white","black","black","white","black","white","black","white","black","white","black","black","black","black","black","white","black","black","black","black","black","black","black","white","white","black","white","white","white","black","white","white","black","black","black","white","black","white","black","black","white","black","white","black","black","white"],"dot_shape":"circle","background_color":"#AAA","RDK_type":3,"aperture_type":2,"reinsert_type":2,"frame_rate":16.658333333333335,"frame_rate_array":[13,17,17,16,17,16,17,16,17,17,17,16,18,16,17,17,16,17,17,17,17,17,16,22,11,17,16,17,17,16,18,15,18,18,16,16,16,16,16,17,17,17,17,17,16,17,17,16,17,17,16,18,17,17,16,17,17,16,18,17,17,17,16,17,16,16,17,16,17,17,17,17,17,16,16,17,17,16,17,17,17,17,17,17,16,16,18,16,16,16,18,17,16,16,16,17,16,17,17,17,17,16,17,17,16,17,17,17,17,16,16,17,17,16,17,16,17,17,17,16],"number_of_frames":120,"aperture_center_x":640,"aperture_center_y":400,"fixation_cross":true,"fixation_cross_width":15,"fixation_cross_height":15,"fixation_cross_color":"#111","fixation_cross_thickness":1,"border":true,"border_thickness":2,"border_color":"transparent","canvas_width":1280,"canvas_height":800,"trial_type":"rdk","trial_index":92,"plugin_version":"2.0.0","time_elapsed":249846},{"rt":3404,"stimulus":"\n        <div class=\"response-container\">\n          <div class=\"response-instruction\">\n            <p>rotate the bar by using the left and right arrow keys.</p>\n            <p>when you are determined, press the Enter key.</p>\n          </div>\n          <div class=\"response-circle\">\n            <div class=\"response-fixation\"></div>\n            <div id=\"bar\" class=\"rotating-bar\"></div>\n          </div>\n        </div>\n      ","response":"Enter","trial_type":"html-keyboard-response","trial_index":93,"plugin_version":"2.1.0","time_elapsed":253252,"random_initial_angle":192,"response_angle_css":179,"response_angle_rdk":271,"angular_error_target":-101,"angular_error_distractor":-6,"target_direction":12,"target_group":"white","reward_points":0},{"rt":null,"stimulus":"\n          <p style=\"color: #FF3333;\">Your reward: 0 points</p>\n        ","response":null,"trial_type":"html-keyboard-response","trial_index":94,"plugin_version":"2.1.0","time_elapsed":255253},{"rt":null,"stimulus":"<div class=\"fixation\" style=\"font-size: 60px;\">+</div>","response":null,"trial_type":"html-keyboard-response","trial_index":95,"plugin_version":"2.1.0","time_elapsed":256269},{"target_group":"white","condition_label":"W_H_vs_B_L_rep19","target_direction":11,"distractor_direction":265,"session_rotation":334,"rt":-1,"response":"","correct":false,"choices":"ALL_KEYS","correct_choice":["a"],"trial_duration":2000,"flip_timestamps":[],"response_ends_trial":false,"number_of_apertures":200,"number_of_dots":[1,1,1,1,1,1,1,1,1,1,1,1,1,1,1,1,1,1,1,1,1,1,1,1,1,1,1,1,1,1,1,1,1,1,1,1,1,1,1,1,1,1,1,1,1,1,1,1,1,1,1,1,1,1,1,1,1,1,1,1,1,1,1,1,1,1,1,1,1,1,1,1,1,1,1,1,1,1,1,1,1,1,1,1,1,1,1,1,1,1,1,1,1,1,1,1,1,1,1,1,1,1,1,1,1,1,1,1,1,1,1,1,1,1,1,1,1,1,1,1,1,1,1,1,1,1,1,1,1,1,1,1,1,1,1,1,1,1,1,1,1,1,1,1,1,1,1,1,1,1,1,1,1,1,1,1,1,1,1,1,1,1,1,1,1,1,1,1,1,1,1,1,1,1,1,1,1,1,1,1,1,1,1,1,1,1,1,1,1,1,1,1,1,1,1,1,1,1,1,1],"number_of_sets":1,"coherent_direction":[11,11,265,11,265,265,265,265,11,11,11,265,265,11,265,11,265,11,265,11,265,11,11,265,11,265,11,265,265,11,11,11,265,265,265,265,11,265,11,265,11,265,11,265,265,265,11,11,265,11,11,265,265,265,11,265,265,11,11,11,265,11,265,11,11,265,265,265,265,11,265,265,265,265,11,11,11,265,265,265,11,11,11,11,11,11,265,265,11,11,11,11,265,11,11,11,11,11,265,11,11,265,265,11,265,11,11,11,265,265,11,265,11,11,265,265,265,11,11,11,11,265,265,265,11,265,11,265,265,11,265,265,265,11,11,265,265,265,265,11,11,265,11,265,11,265,265,11,265,11,265,265,11,265,11,11,11,265,11,11,11,265,265,11,265,265,265,265,265,265,11,265,265,265,265,265,265,11,11,265,265,11,11,265,265,11,11,11,11,11,265,265,11,265,11,11,11,11,11,11],"coherence":1,"opposite_coherence":0,"dot_radius":2,"dot_side_length":1,"dot_life":-1,"move_distance":1,"aperture_width":300,"aperture_height":300,"dot_color":["white","white","black","white","black","black","black","black","white","white","white","black","black","white","black","white","black","white","black","white","black","white","white","black","white","black","white","black","black","white","white","white","black","black","black","black","white","black","white","black","white","black","white","black","black","black","white","white","black","white","white","black","black","black","white","black","black","white","white","white","black","white","black","white","white","black","black","black","black","white","black","black","black","black","white","white","white","black","black","black","white","white","white","white","white","white","black","black","white","white","white","white","black","white","white","white","white","white","black","white","white","black","black","white","black","white","white","white","black","black","white","black","white","white","black","black","black","white","white","white","white","black","black","black","white","black","white","black","black","white","black","black","black","white","white","black","black","black","black","white","white","black","white","black","white","black","black","white","black","white","black","black","white","black","white","white","white","black","white","white","white","black","black","white","black","black","black","black","black","black","white","black","black","black","black","black","black","white","white","black","black","white","white","black","black","white","white","white","white","white","black","black","white","black","white","white","white","white","white","white"],"dot_shape":"circle","background_color":"#AAA","RDK_type":3,"aperture_type":2,"reinsert_type":2,"frame_rate":16.691666666666666,"frame_rate_array":[9,17,17,17,17,17,16,17,17,17,16,17,17,16,16,17,17,17,17,17,16,17,17,16,17,16,17,17,17,17,16,17,17,17,16,17,18,16,17,17,17,17,17,17,17,16,17,17,16,17,17,17,17,18,17,17,15,17,17,17,17,17,16,17,16,17,17,17,17,16,17,16,16,17,17,17,17,17,16,17,17,17,15,16,17,17,17,17,18,17,17,15,17,17,17,17,16,17,17,16,17,17,16,17,17,16,17,17,17,17,16,17,18,17,16,17,15,17,17,17],"number_of_frames":120,"aperture_center_x":640,"aperture_center_y":400,"fixation_cross":true,"fixation_cross_width":15,"fixation_cross_height":15,"fixation_cross_color":"#111","fixation_cross_thickness":1,"border":true,"border_thickness":2,"border_color":"transparent","canvas_width":1280,"canvas_height":800,"trial_type":"rdk","trial_index":96,"plugin_version":"2.0.0","time_elapsed":258281},{"rt":1475,"stimulus":"\n        <div class=\"response-container\">\n          <div class=\"response-instruction\">\n            <p>rotate the bar by using the left and right arrow keys.</p>\n            <p>when you are determined, press the Enter key.</p>\n          </div>\n          <div class=\"response-circle\">\n            <div class=\"response-fixation\"></div>\n            <div id=\"bar\" class=\"rotating-bar\"></div>\n          </div>\n        </div>\n      ","response":"Enter","trial_type":"html-keyboard-response","trial_index":97,"plugin_version":"2.1.0","time_elapsed":259757,"random_initial_angle":44,"response_angle_css":44,"response_angle_rdk":46,"angular_error_target":35,"angular_error_distractor":141,"target_direction":11,"target_group":"white","reward_points":3},{"rt":null,"stimulus":"\n          <p style=\"color: #00FF00;\">Your reward: 3 points</p>\n        ","response":null,"trial_type":"html-keyboard-response","trial_index":98,"plugin_version":"2.1.0","time_elapsed":261770},{"rt":null,"stimulus":"<div class=\"fixation\" style=\"font-size: 60px;\">+</div>","response":null,"trial_type":"html-keyboard-response","trial_index":99,"plugin_version":"2.1.0","time_elapsed":262783},{"target_group":"black","condition_label":"B_H_vs_W_L_rep23","target_direction":90,"distractor_direction":195,"session_rotation":334,"rt":-1,"response":"","correct":false,"choices":"ALL_KEYS","correct_choice":["a"],"trial_duration":2000,"flip_timestamps":[],"response_ends_trial":false,"number_of_apertures":200,"number_of_dots":[1,1,1,1,1,1,1,1,1,1,1,1,1,1,1,1,1,1,1,1,1,1,1,1,1,1,1,1,1,1,1,1,1,1,1,1,1,1,1,1,1,1,1,1,1,1,1,1,1,1,1,1,1,1,1,1,1,1,1,1,1,1,1,1,1,1,1,1,1,1,1,1,1,1,1,1,1,1,1,1,1,1,1,1,1,1,1,1,1,1,1,1,1,1,1,1,1,1,1,1,1,1,1,1,1,1,1,1,1,1,1,1,1,1,1,1,1,1,1,1,1,1,1,1,1,1,1,1,1,1,1,1,1,1,1,1,1,1,1,1,1,1,1,1,1,1,1,1,1,1,1,1,1,1,1,1,1,1,1,1,1,1,1,1,1,1,1,1,1,1,1,1,1,1,1,1,1,1,1,1,1,1,1,1,1,1,1,1,1,1,1,1,1,1,1,1,1,1,1,1],"number_of_sets":1,"coherent_direction":[90,195,195,195,90,90,90,195,195,90,90,195,195,195,195,90,195,90,90,90,195,90,195,90,90,90,90,195,90,90,90,195,195,90,195,195,90,90,195,195,90,195,195,90,90,90,90,90,90,195,195,90,195,90,90,90,90,195,90,90,90,90,195,195,90,195,195,90,195,195,195,195,90,195,195,90,195,195,195,195,195,90,195,90,195,195,195,90,195,195,195,90,90,90,90,90,90,195,90,195,195,90,90,195,195,195,195,90,195,90,90,195,195,195,195,195,90,90,195,90,90,90,90,195,195,90,195,90,195,90,90,90,90,195,90,90,90,195,90,195,90,90,195,195,90,195,195,90,90,195,195,90,90,195,195,195,90,90,90,195,195,90,195,195,195,195,195,90,90,195,90,90,195,90,90,195,195,90,195,195,90,195,195,195,195,195,90,90,90,90,90,195,195,90,195,195,90,195,90,90],"coherence":1,"opposite_coherence":0,"dot_radius":2,"dot_side_length":1,"dot_life":-1,"move_distance":1,"aperture_width":300,"aperture_height":300,"dot_color":["black","white","white","white","black","black","black","white","white","black","black","white","white","white","white","black","white","black","black","black","white","black","white","black","black","black","black","white","black","black","black","white","white","black","white","white","black","black","white","white","black","white","white","black","black","black","black","black","black","white","white","black","white","black","black","black","black","white","black","black","black","black","white","white","black","white","white","black","white","white","white","white","black","white","white","black","white","white","white","white","white","black","white","black","white","white","white","black","white","white","white","black","black","black","black","black","black","white","black","white","white","black","black","white","white","white","white","black","white","black","black","white","white","white","white","white","black","black","white","black","black","black","black","white","white","black","white","black","white","black","black","black","black","white","black","black","black","white","black","white","black","black","white","white","black","white","white","black","black","white","white","black","black","white","white","white","black","black","black","white","white","black","white","white","white","white","white","black","black","white","black","black","white","black","black","white","white","black","white","white","black","white","white","white","white","white","black","black","black","black","black","white","white","black","white","white","black","white","black","black"],"dot_shape":"circle","background_color":"#AAA","RDK_type":3,"aperture_type":2,"reinsert_type":2,"frame_rate":16.691666666666666,"frame_rate_array":[14,15,17,17,17,17,16,17,17,18,16,17,17,16,16,17,17,18,16,18,15,17,17,17,17,17,16,17,17,17,17,16,17,18,16,17,17,17,17,17,16,17,17,16,16,17,17,16,18,16,16,17,17,17,17,16,17,17,16,17,17,18,17,17,16,16,17,16,17,17,17,17,16,17,17,16,17,16,16,17,16,18,16,17,17,16,17,17,16,16,17,17,16,16,17,16,16,17,16,17,17,17,16,17,17,17,16,18,16,17,17,17,17,16,17,17,17,17,17,16],"number_of_frames":120,"aperture_center_x":640,"aperture_center_y":400,"fixation_cross":true,"fixation_cross_width":15,"fixation_cross_height":15,"fixation_cross_color":"#111","fixation_cross_thickness":1,"border":true,"border_thickness":2,"border_color":"transparent","canvas_width":1280,"canvas_height":800,"trial_type":"rdk","trial_index":100,"plugin_version":"2.0.0","time_elapsed":264792},{"rt":3530,"stimulus":"\n        <div class=\"response-container\">\n          <div class=\"response-instruction\">\n            <p>rotate the bar by using the left and right arrow keys.</p>\n            <p>when you are determined, press the Enter key.</p>\n          </div>\n          <div class=\"response-circle\">\n            <div class=\"response-fixation\"></div>\n            <div id=\"bar\" class=\"rotating-bar\"></div>\n          </div>\n        </div>\n      ","response":"Enter","trial_type":"html-keyboard-response","trial_index":101,"plugin_version":"2.1.0","time_elapsed":268323,"random_initial_angle":341,"response_angle_css":241,"response_angle_rdk":209,"angular_error_target":119,"angular_error_distractor":14,"target_direction":90,"target_group":"black","reward_points":0},{"rt":null,"stimulus":"\n          <p style=\"color: #FF3333;\">Your reward: 0 points</p>\n        ","response":null,"trial_type":"html-keyboard-response","trial_index":102,"plugin_version":"2.1.0","time_elapsed":270335},{"rt":null,"stimulus":"<div class=\"fixation\" style=\"font-size: 60px;\">+</div>","response":null,"trial_type":"html-keyboard-response","trial_index":103,"plugin_version":"2.1.0","time_elapsed":271338},{"target_group":"black","condition_label":"B_H_vs_W_L_rep7","target_direction":68,"distractor_direction":177,"session_rotation":334,"rt":-1,"response":"","correct":false,"choices":"ALL_KEYS","correct_choice":["a"],"trial_duration":2000,"flip_timestamps":[],"response_ends_trial":false,"number_of_apertures":200,"number_of_dots":[1,1,1,1,1,1,1,1,1,1,1,1,1,1,1,1,1,1,1,1,1,1,1,1,1,1,1,1,1,1,1,1,1,1,1,1,1,1,1,1,1,1,1,1,1,1,1,1,1,1,1,1,1,1,1,1,1,1,1,1,1,1,1,1,1,1,1,1,1,1,1,1,1,1,1,1,1,1,1,1,1,1,1,1,1,1,1,1,1,1,1,1,1,1,1,1,1,1,1,1,1,1,1,1,1,1,1,1,1,1,1,1,1,1,1,1,1,1,1,1,1,1,1,1,1,1,1,1,1,1,1,1,1,1,1,1,1,1,1,1,1,1,1,1,1,1,1,1,1,1,1,1,1,1,1,1,1,1,1,1,1,1,1,1,1,1,1,1,1,1,1,1,1,1,1,1,1,1,1,1,1,1,1,1,1,1,1,1,1,1,1,1,1,1,1,1,1,1,1,1],"number_of_sets":1,"coherent_direction":[68,177,68,177,68,68,177,68,68,177,68,68,68,177,68,68,68,177,177,68,68,68,177,68,68,68,68,177,177,177,177,68,68,177,177,68,68,177,177,68,68,68,177,177,68,177,177,68,68,68,68,177,177,177,68,177,177,68,68,68,177,68,68,177,68,177,177,68,177,68,177,177,68,177,68,177,177,177,177,68,68,68,68,68,68,177,68,68,68,177,68,177,177,177,177,68,177,68,68,177,68,177,68,177,177,177,177,177,68,68,177,177,177,177,177,177,68,177,68,68,68,68,177,68,68,177,68,68,68,177,177,177,68,177,68,68,177,68,177,177,177,68,68,68,177,177,177,177,68,177,68,68,68,68,177,68,177,177,177,68,177,177,177,177,177,177,68,177,68,177,177,68,68,68,177,68,177,177,68,68,68,177,68,68,68,177,177,68,177,177,177,177,68,177,68,177,177,177,68,68],"coherence":1,"opposite_coherence":0,"dot_radius":2,"dot_side_length":1,"dot_life":-1,"move_distance":1,"aperture_width":300,"aperture_height":300,"dot_color":["black","white","black","white","black","black","white","black","black","white","black","black","black","white","black","black","black","white","white","black","black","black","white","black","black","black","black","white","white","white","white","black","black","white","white","black","black","white","white","black","black","black","white","white","black","white","white","black","black","black","black","white","white","white","black","white","white","black","black","black","white","black","black","white","black","white","white","black","white","black","white","white","black","white","black","white","white","white","white","black","black","black","black","black","black","white","black","black","black","white","black","white","white","white","white","black","white","black","black","white","black","white","black","white","white","white","white","white","black","black","white","white","white","white","white","white","black","white","black","black","black","black","white","black","black","white","black","black","black","white","white","white","black","white","black","black","white","black","white","white","white","black","black","black","white","white","white","white","black","white","black","black","black","black","white","black","white","white","white","black","white","white","white","white","white","white","black","white","black","white","white","black","black","black","white","black","white","white","black","black","black","white","black","black","black","white","white","black","white","white","white","white","black","white","black","white","white","white","black","black"],"dot_shape":"circle","background_color":"#AAA","RDK_type":3,"aperture_type":2,"reinsert_type":2,"frame_rate":16.691666666666666,"frame_rate_array":[7,17,17,16,18,16,16,17,17,17,17,17,17,17,16,17,18,16,16,17,17,16,17,17,17,16,16,18,18,16,17,16,17,17,17,17,17,15,17,17,17,17,17,17,17,17,16,16,17,16,16,17,17,18,16,17,16,17,17,17,17,16,17,17,16,16,18,17,16,17,18,17,17,18,16,17,16,17,17,16,18,16,17,17,17,16,16,17,17,17,16,17,17,16,17,17,16,17,17,17,17,17,16,17,17,16,17,17,17,17,17,17,16,16,17,17,17,17,17,17],"number_of_frames":120,"aperture_center_x":640,"aperture_center_y":400,"fixation_cross":true,"fixation_cross_width":15,"fixation_cross_height":15,"fixation_cross_color":"#111","fixation_cross_thickness":1,"border":true,"border_thickness":2,"border_color":"transparent","canvas_width":1280,"canvas_height":800,"trial_type":"rdk","trial_index":104,"plugin_version":"2.0.0","time_elapsed":273347},{"rt":5132,"stimulus":"\n        <div class=\"response-container\">\n          <div class=\"response-instruction\">\n            <p>rotate the bar by using the left and right arrow keys.</p>\n            <p>when you are determined, press the Enter key.</p>\n          </div>\n          <div class=\"response-circle\">\n            <div class=\"response-fixation\"></div>\n            <div id=\"bar\" class=\"rotating-bar\"></div>\n          </div>\n        </div>\n      ","response":"Enter","trial_type":"html-keyboard-response","trial_index":105,"plugin_version":"2.1.0","time_elapsed":278481,"random_initial_angle":201,"response_angle_css":23,"response_angle_rdk":67,"angular_error_target":-1,"angular_error_distractor":-110,"target_direction":68,"target_group":"black","reward_points":9},{"rt":null,"stimulus":"\n          <p style=\"color: #00FF00;\">Your reward: 9 points</p>\n        ","response":null,"trial_type":"html-keyboard-response","trial_index":106,"plugin_version":"2.1.0","time_elapsed":280495},{"rt":null,"stimulus":"<div class=\"fixation\" style=\"font-size: 60px;\">+</div>","response":null,"trial_type":"html-keyboard-response","trial_index":107,"plugin_version":"2.1.0","time_elapsed":281504},{"target_group":"black","condition_label":"B_H_vs_W_L_rep18","target_direction":95,"distractor_direction":188,"session_rotation":334,"rt":-1,"response":"","correct":false,"choices":"ALL_KEYS","correct_choice":["a"],"trial_duration":2000,"flip_timestamps":[],"response_ends_trial":false,"number_of_apertures":200,"number_of_dots":[1,1,1,1,1,1,1,1,1,1,1,1,1,1,1,1,1,1,1,1,1,1,1,1,1,1,1,1,1,1,1,1,1,1,1,1,1,1,1,1,1,1,1,1,1,1,1,1,1,1,1,1,1,1,1,1,1,1,1,1,1,1,1,1,1,1,1,1,1,1,1,1,1,1,1,1,1,1,1,1,1,1,1,1,1,1,1,1,1,1,1,1,1,1,1,1,1,1,1,1,1,1,1,1,1,1,1,1,1,1,1,1,1,1,1,1,1,1,1,1,1,1,1,1,1,1,1,1,1,1,1,1,1,1,1,1,1,1,1,1,1,1,1,1,1,1,1,1,1,1,1,1,1,1,1,1,1,1,1,1,1,1,1,1,1,1,1,1,1,1,1,1,1,1,1,1,1,1,1,1,1,1,1,1,1,1,1,1,1,1,1,1,1,1,1,1,1,1,1,1],"number_of_sets":1,"coherent_direction":[95,95,188,95,188,188,188,188,188,188,95,188,95,188,95,95,95,95,188,188,188,188,95,95,188,188,95,95,188,95,95,188,188,95,95,188,188,188,188,188,188,188,95,95,188,188,188,188,1