[{"rt":15126,"stimulus":"Welcome to the experiment. Press any key to begin.","response":"Enter","trial_type":"html-keyboard-response","trial_index":0,"plugin_version":"2.1.0","time_elapsed":15130},{"rt":31497,"stimulus":"\n        <div class=\"instructions-container\">\n          <h2>Instructions</h2>\n\n          <p>\n          In this experiment, you will see <strong>two Random Dot Kinematograms (RDKs)</strong> displayed simultaneously.\n          </p>\n\n          <p>\n          An RDK is a visual stimulus consisting of many small dots that move coherently in a single direction. \n          In this experiment, the dots will be either <strong>white</strong> or <strong>black</strong> \n          (see the short demo below for an example of an RDK stimulus).\n          </p>\n\n          <p>\n          On each trial, the two RDKs will move in different directions. \n          Your task is to decide <strong>which RDK appears to contain more dots</strong>.\n          </p>\n\n          <p>\n          The RDK that you judge to have more dots is called the <strong>target RDK</strong>. \n          For example, if the white RDK appears to have more dots than the black RDK, \n          you should report the motion direction of the white RDK.\n          </p>\n\n          <p>\n          After viewing the RDKs, you will rotate a bar to indicate the perceived direction of the target RDK \n          using the <strong>left</strong> and <strong>right arrow keys</strong>. \n          Press <strong>Enter</strong> when you are satisfied with your response.\n          When the bar is held down, the rotation speed increases.\n          </p>\n\n          <p>\n          You will receive points based on the <strong>accuracy of your response</strong>, \n          and your final <strong>bonus reward</strong> may depend on your overall performance. \n          Please try to respond as accurately as possible.\n          </p>\n\n          <p>\n          You will first complete <strong>16 practice trials</strong>. \n          Press the <strong>Enter</strong> key to start the practice phase.\n          </p>\n\n          <canvas id=\"instruction-demo-rdk\" width=\"200\" height=\"200\"style=\"display:block;margin:12px auto; border-radius: 50%;\"></canvas>\n        </div>\n      ","response":"Enter","trial_type":"html-keyboard-response","trial_index":1,"plugin_version":"2.1.0","time_elapsed":46631},{"rt":null,"stimulus":"<div class=\"fixation\" style=\"font-size: 60px;\">+</div>","response":null,"trial_type":"html-keyboard-response","trial_index":2,"plugin_version":"2.1.0","time_elapsed":47638},{"target_group":"white","target_index":0,"condition_label":"practice","rt":-1,"response":"","correct":false,"choices":"ALL_KEYS","correct_choice":["a"],"trial_duration":2000,"flip_timestamps":[],"response_ends_trial":false,"number_of_apertures":2,"number_of_dots":[100,62],"number_of_sets":1,"coherent_direction":[232,112],"coherence":1,"opposite_coherence":0,"dot_radius":2,"dot_side_length":1,"dot_life":-1,"move_distance":1,"aperture_width":300,"aperture_height":300,"dot_color":["white","black"],"dot_shape":"circle","background_color":"#AAA","RDK_type":3,"aperture_type":2,"reinsert_type":2,"frame_rate":13.166666666666666,"frame_rate_array":[9,11,13,14,13,13,14,13,13,14,13,14,13,14,13,14,14,13,13,14,13,14,13,13,13,14,13,13,13,13,13,13,13,13,13,13,14,14,13,13,13,13,13,13,14,13,14,13,13,13,13,13,13,13,13,12,14,13,14,14,13,13,13,13,13,14,13,13,13,13,14,13,13,13,13,13,14,13,13,13,13,13,14,13,13,14,13,13,14,13,13,13,13,13,13,13,14,13,13,13,13,13,13,13,14,13,13,13,13,13,14,13,13,13,13,13,13,13,13,13,13,13,13,13,13,13,14,13,13,13,14,12,13,14,15,13,13,13,13,14,13,13,13,13,13,13,14,13,13,13],"number_of_frames":150,"aperture_center_x":960,"aperture_center_y":540,"fixation_cross":true,"fixation_cross_width":15,"fixation_cross_height":15,"fixation_cross_color":"#111","fixation_cross_thickness":1,"border":true,"border_thickness":2,"border_color":"transparent","canvas_width":1920,"canvas_height":1080,"trial_type":"rdk","trial_index":3,"plugin_version":"2.0.0","time_elapsed":49642,"phase":"practice","target_direction":232,"distractor_direction":112},{"rt":22995,"stimulus":"\n        <div class=\"response-container\">\n          <div class=\"response-instruction\">\n            <p>rotate the bar by using the left and right arrow keys.</p>\n            <p>when you are determined, press the Enter key.</p>\n          </div>\n          <div class=\"response-circle\">\n            <div class=\"response-fixation\"></div>\n            <div id=\"bar\" class=\"rotating-bar\"></div>\n          </div>\n        </div>\n      ","response":"Enter","trial_type":"html-keyboard-response","trial_index":4,"plugin_version":"2.1.0","time_elapsed":72638,"random_initial_angle":139,"response_angle_css":-1,"response_angle_rdk":91,"angular_error_target":-141,"angular_error_distractor":-21,"target_direction":232,"target_group":"white","reward_points":0},{"rt":null,"stimulus":"\n          <p style=\"color: #FF3333;\">Your reward: 0 points</p>\n        ","response":null,"trial_type":"html-keyboard-response","trial_index":5,"plugin_version":"2.1.0","time_elapsed":74646},{"rt":null,"stimulus":"<div class=\"fixation\" style=\"font-size: 60px;\">+</div>","response":null,"trial_type":"html-keyboard-response","trial_index":6,"plugin_version":"2.1.0","time_elapsed":75649},{"target_group":"black","target_index":1,"condition_label":"practice","rt":-1,"response":"","correct":false,"choices":"ALL_KEYS","correct_choice":["a"],"trial_duration":2000,"flip_timestamps":[],"response_ends_trial":false,"number_of_apertures":2,"number_of_dots":[86,100],"number_of_sets":1,"coherent_direction":[291,110],"coherence":1,"opposite_coherence":0,"dot_radius":2,"dot_side_length":1,"dot_life":-1,"move_distance":1,"aperture_width":300,"aperture_height":300,"dot_color":["white","black"],"dot_shape":"circle","background_color":"#AAA","RDK_type":3,"aperture_type":2,"reinsert_type":2,"frame_rate":14.613138686131387,"frame_rate_array":[5,14,15,14,13,14,13,14,12,14,14,14,13,14,13,13,13,13,13,14,13,14,17,11,14,13,13,13,13,12,15,13,13,13,14,13,13,13,14,13,14,13,13,12,15,14,15,13,12,13,12,17,11,14,14,15,11,12,15,18,8,13,17,13,11,18,8,16,16,15,14,21,17,17,20,17,14,17,19,13,14,17,12,13,12,12,18,13,10,13,15,17,15,16,18,16,18,22,21,17,16,114,4,15,12,14,12,14,15,12,14,15,15,8,14,13,15,14,12,14,13,14,13,14,12,14,12,14,13,12,14,14,16,9,15,14,12],"number_of_frames":137,"aperture_center_x":960,"aperture_center_y":540,"fixation_cross":true,"fixation_cross_width":15,"fixation_cross_height":15,"fixation_cross_color":"#111","fixation_cross_thickness":1,"border":true,"border_thickness":2,"border_color":"transparent","canvas_width":1920,"canvas_height":1080,"trial_type":"rdk","trial_index":7,"plugin_version":"2.0.0","time_elapsed":77652,"phase":"practice","target_direction":110,"distractor_direction":291},{"rt":8256,"stimulus":"\n        <div class=\"response-container\">\n          <div class=\"response-instruction\">\n            <p>rotate the bar by using the left and right arrow keys.</p>\n            <p>when you are determined, press the Enter key.</p>\n          </div>\n          <div class=\"response-circle\">\n            <div class=\"response-fixation\"></div>\n            <div id=\"bar\" class=\"rotating-bar\"></div>\n          </div>\n        </div>\n      ","response":"Enter","trial_type":"html-keyboard-response","trial_index":8,"plugin_version":"2.1.0","time_elapsed":85909,"random_initial_angle":28,"response_angle_css":-25,"response_angle_rdk":115,"angular_error_target":5,"angular_error_distractor":-176,"target_direction":110,"target_group":"black","reward_points":9},{"rt":null,"stimulus":"\n          <p style=\"color: #00FF00;\">Your reward: 9 points</p>\n        ","response":null,"trial_type":"html-keyboard-response","trial_index":9,"plugin_version":"2.1.0","time_elapsed":87920},{"rt":null,"stimulus":"<div class=\"fixation\" style=\"font-size: 60px;\">+</div>","response":null,"trial_type":"html-keyboard-response","trial_index":10,"plugin_version":"2.1.0","time_elapsed":88921},{"target_group":"white","target_index":0,"condition_label":"practice","rt":-1,"response":"","correct":false,"choices":"ALL_KEYS","correct_choice":["a"],"trial_duration":2000,"flip_timestamps":[],"response_ends_trial":false,"number_of_apertures":2,"number_of_dots":[100,97],"number_of_sets":1,"coherent_direction":[6,179],"coherence":1,"opposite_coherence":0,"dot_radius":2,"dot_side_length":1,"dot_life":-1,"move_distance":1,"aperture_width":300,"aperture_height":300,"dot_color":["white","black"],"dot_shape":"circle","background_color":"#AAA","RDK_type":3,"aperture_type":2,"reinsert_type":2,"frame_rate":13.306666666666667,"frame_rate_array":[5,12,16,14,13,13,13,14,14,13,13,12,14,13,15,13,13,14,14,13,13,13,14,13,13,13,13,14,13,13,14,13,13,13,14,13,14,12,15,13,13,12,15,13,13,14,12,14,14,14,14,13,13,14,13,11,14,14,13,12,13,14,12,13,14,14,13,13,14,14,14,12,14,13,13,13,13,15,11,14,14,13,15,13,14,13,12,15,14,13,14,11,15,12,15,13,12,15,14,13,13,12,13,13,12,16,12,13,13,14,14,13,14,13,14,12,13,15,14,13,13,13,14,12,15,12,13,14,15,13,14,12,14,13,14,13,13,14,12,13,14,13,14,13,13,14,13,14,13,15],"number_of_frames":150,"aperture_center_x":960,"aperture_center_y":540,"fixation_cross":true,"fixation_cross_width":15,"fixation_cross_height":15,"fixation_cross_color":"#111","fixation_cross_thickness":1,"border":true,"border_thickness":2,"border_color":"transparent","canvas_width":1920,"canvas_height":1080,"trial_type":"rdk","trial_index":11,"plugin_version":"2.0.0","time_elapsed":90924,"phase":"practice","target_direction":6,"distractor_direction":179},{"rt":5025,"stimulus":"\n        <div class=\"response-container\">\n          <div class=\"response-instruction\">\n            <p>rotate the bar by using the left and right arrow keys.</p>\n            <p>when you are determined, press the Enter key.</p>\n          </div>\n          <div class=\"response-circle\">\n            <div class=\"response-fixation\"></div>\n            <div id=\"bar\" class=\"rotating-bar\"></div>\n          </div>\n        </div>\n      ","response":"Enter","trial_type":"html-keyboard-response","trial_index":12,"plugin_version":"2.1.0","time_elapsed":95949,"random_initial_angle":281,"response_angle_css":451,"response_angle_rdk":359,"angular_error_target":-7,"angular_error_distractor":180,"target_direction":6,"target_group":"white","reward_points":8},{"rt":null,"stimulus":"\n          <p style=\"color: #00FF00;\">Your reward: 8 points</p>\n        ","response":null,"trial_type":"html-keyboard-response","trial_index":13,"plugin_version":"2.1.0","time_elapsed":97963},{"rt":null,"stimulus":"<div class=\"fixation\" style=\"font-size: 60px;\">+</div>","response":null,"trial_type":"html-keyboard-response","trial_index":14,"plugin_version":"2.1.0","time_elapsed":98978},{"target_group":"black","target_index":1,"condition_label":"practice","rt":-1,"response":"","correct":false,"choices":"ALL_KEYS","correct_choice":["a"],"trial_duration":2000,"flip_timestamps":[],"response_ends_trial":false,"number_of_apertures":2,"number_of_dots":[87,100],"number_of_sets":1,"coherent_direction":[91,356],"coherence":1,"opposite_coherence":0,"dot_radius":2,"dot_side_length":1,"dot_life":-1,"move_distance":1,"aperture_width":300,"aperture_height":300,"dot_color":["white","black"],"dot_shape":"circle","background_color":"#AAA","RDK_type":3,"aperture_type":2,"reinsert_type":2,"frame_rate":13.2317880794702,"frame_rate_array":[4,14,14,14,14,13,14,13,13,14,13,13,13,14,12,14,13,13,14,13,13,13,14,13,14,13,13,13,14,12,15,13,14,14,13,12,13,14,13,14,13,13,14,13,14,13,12,14,14,13,12,13,14,13,13,14,13,14,14,15,13,12,14,13,13,14,13,13,13,14,13,13,14,13,13,14,14,13,13,12,13,14,13,13,13,13,14,12,14,14,14,14,13,14,13,13,13,13,13,13,15,12,13,13,14,13,13,13,12,13,13,13,14,13,13,12,13,13,14,13,14,14,13,13,14,13,13,14,13,14,13,13,13,14,13,12,13,13,13,14,13,14,14,13,13,13,14,13,13,13,13],"number_of_frames":151,"aperture_center_x":960,"aperture_center_y":540,"fixation_cross":true,"fixation_cross_width":15,"fixation_cross_height":15,"fixation_cross_color":"#111","fixation_cross_thickness":1,"border":true,"border_thickness":2,"border_color":"transparent","canvas_width":1920,"canvas_height":1080,"trial_type":"rdk","trial_index":15,"plugin_version":"2.0.0","time_elapsed":100991,"phase":"practice","target_direction":356,"distractor_direction":91},{"rt":4574,"stimulus":"\n        <div class=\"response-container\">\n          <div class=\"response-instruction\">\n            <p>rotate the bar by using the left and right arrow keys.</p>\n            <p>when you are determined, press the Enter key.</p>\n          </div>\n          <div class=\"response-circle\">\n            <div class=\"response-fixation\"></div>\n            <div id=\"bar\" class=\"rotating-bar\"></div>\n          </div>\n        </div>\n      ","response":"Enter","trial_type":"html-keyboard-response","trial_index":16,"plugin_version":"2.1.0","time_elapsed":105566,"random_initial_angle":38,"response_angle_css":89,"response_angle_rdk":1,"angular_error_target":5,"angular_error_distractor":-90,"target_direction":356,"target_group":"black","reward_points":9},{"rt":null,"stimulus":"\n          <p style=\"color: #00FF00;\">Your reward: 9 points</p>\n        ","response":null,"trial_type":"html-keyboard-response","trial_index":17,"plugin_version":"2.1.0","time_elapsed":107576},{"rt":null,"stimulus":"<div class=\"fixation\" style=\"font-size: 60px;\">+</div>","response":null,"trial_type":"html-keyboard-response","trial_index":18,"plugin_version":"2.1.0","time_elapsed":108578},{"target_group":"black","target_index":1,"condition_label":"practice","rt":-1,"response":"","correct":false,"choices":"ALL_KEYS","correct_choice":["a"],"trial_duration":2000,"flip_timestamps":[],"response_ends_trial":false,"number_of_apertures":2,"number_of_dots":[57,100],"number_of_sets":1,"coherent_direction":[105,304],"coherence":1,"opposite_coherence":0,"dot_radius":2,"dot_side_length":1,"dot_life":-1,"move_distance":1,"aperture_width":300,"aperture_height":300,"dot_color":["white","black"],"dot_shape":"circle","background_color":"#AAA","RDK_type":3,"aperture_type":2,"reinsert_type":2,"frame_rate":13.226666666666667,"frame_rate_array":[9,13,14,15,14,13,14,13,14,13,13,13,13,13,13,13,14,13,13,13,13,14,13,13,13,14,14,13,13,13,13,14,14,13,14,13,13,13,13,13,14,13,14,13,13,13,13,13,13,14,13,13,13,13,13,13,14,14,13,13,13,13,14,12,14,12,13,14,14,13,13,13,13,14,13,14,14,12,13,15,13,13,13,14,13,13,14,13,14,13,13,14,13,13,14,13,13,14,13,14,13,13,14,13,13,14,12,13,13,13,13,13,13,13,13,13,13,14,14,13,13,13,13,15,12,13,13,13,13,13,13,14,13,13,14,14,12,14,13,12,14,14,12,13,13,13,14,13,13,12],"number_of_frames":150,"aperture_center_x":960,"aperture_center_y":540,"fixation_cross":true,"fixation_cross_width":15,"fixation_cross_height":15,"fixation_cross_color":"#111","fixation_cross_thickness":1,"border":true,"border_thickness":2,"border_color":"transparent","canvas_width":1920,"canvas_height":1080,"trial_type":"rdk","trial_index":19,"plugin_version":"2.0.0","time_elapsed":110580,"phase":"practice","target_direction":304,"distractor_direction":105},{"rt":3609,"stimulus":"\n        <div class=\"response-container\">\n          <div class=\"response-instruction\">\n            <p>rotate the bar by using the left and right arrow keys.</p>\n            <p>when you are determined, press the Enter key.</p>\n          </div>\n          <div class=\"response-circle\">\n            <div class=\"response-fixation\"></div>\n            <div id=\"bar\" class=\"rotating-bar\"></div>\n          </div>\n        </div>\n      ","response":"Enter","trial_type":"html-keyboard-response","trial_index":20,"plugin_version":"2.1.0","time_elapsed":114190,"random_initial_angle":259,"response_angle_css":140,"response_angle_rdk":310,"angular_error_target":6,"angular_error_distractor":-155,"target_direction":304,"target_group":"black","reward_points":8},{"rt":null,"stimulus":"\n          <p style=\"color: #00FF00;\">Your reward: 8 points</p>\n        ","response":null,"trial_type":"html-keyboard-response","trial_index":21,"plugin_version":"2.1.0","time_elapsed":116193},{"rt":null,"stimulus":"<div class=\"fixation\" style=\"font-size: 60px;\">+</div>","response":null,"trial_type":"html-keyboard-response","trial_index":22,"plugin_version":"2.1.0","time_elapsed":117196},{"target_group":"white","target_index":0,"condition_label":"practice","rt":-1,"response":"","correct":false,"choices":"ALL_KEYS","correct_choice":["a"],"trial_duration":2000,"flip_timestamps":[],"response_ends_trial":false,"number_of_apertures":2,"number_of_dots":[100,72],"number_of_sets":1,"coherent_direction":[202,14],"coherence":1,"opposite_coherence":0,"dot_radius":2,"dot_side_length":1,"dot_life":-1,"move_distance":1,"aperture_width":300,"aperture_height":300,"dot_color":["white","black"],"dot_shape":"circle","background_color":"#AAA","RDK_type":3,"aperture_type":2,"reinsert_type":2,"frame_rate":13.233333333333333,"frame_rate_array":[9,11,16,12,14,14,13,13,13,13,14,14,13,14,13,14,13,14,13,14,13,13,13,13,14,13,14,12,14,12,14,12,14,13,13,14,13,13,13,14,13,14,14,14,12,13,14,13,13,13,15,13,12,13,14,13,13,13,14,13,13,13,14,12,13,13,13,13,14,13,14,13,12,14,14,13,13,14,12,14,13,13,13,13,13,13,13,13,13,13,14,12,13,13,13,14,13,13,15,13,13,13,13,13,13,14,13,15,12,14,13,13,13,13,14,12,14,13,14,13,13,14,14,12,15,13,13,13,13,13,14,12,13,14,14,12,14,13,14,13,13,14,14,14,13,13,13,14,13,12],"number_of_frames":150,"aperture_center_x":960,"aperture_center_y":540,"fixation_cross":true,"fixation_cross_width":15,"fixation_cross_height":15,"fixation_cross_color":"#111","fixation_cross_thickness":1,"border":true,"border_thickness":2,"border_color":"transparent","canvas_width":1920,"canvas_height":1080,"trial_type":"rdk","trial_index":23,"plugin_version":"2.0.0","time_elapsed":119200,"phase":"practice","target_direction":202,"distractor_direction":14},{"rt":3695,"stimulus":"\n        <div class=\"response-container\">\n          <div class=\"response-instruction\">\n            <p>rotate the bar by using the left and right arrow keys.</p>\n            <p>when you are determined, press the Enter key.</p>\n          </div>\n          <div class=\"response-circle\">\n            <div class=\"response-fixation\"></div>\n            <div id=\"bar\" class=\"rotating-bar\"></div>\n          </div>\n        </div>\n      ","response":"Enter","trial_type":"html-keyboard-response","trial_index":24,"plugin_version":"2.1.0","time_elapsed":122895,"random_initial_angle":190,"response_angle_css":59,"response_angle_rdk":31,"angular_error_target":-171,"angular_error_distractor":17,"target_direction":202,"target_group":"white","reward_points":0},{"rt":null,"stimulus":"\n          <p style=\"color: #FF3333;\">Your reward: 0 points</p>\n        ","response":null,"trial_type":"html-keyboard-response","trial_index":25,"plugin_version":"2.1.0","time_elapsed":124901},{"rt":null,"stimulus":"<div class=\"fixation\" style=\"font-size: 60px;\">+</div>","response":null,"trial_type":"html-keyboard-response","trial_index":26,"plugin_version":"2.1.0","time_elapsed":125907},{"target_group":"black","target_index":1,"condition_label":"practice","rt":-1,"response":"","correct":false,"choices":"ALL_KEYS","correct_choice":["a"],"trial_duration":2000,"flip_timestamps":[],"response_ends_trial":false,"number_of_apertures":2,"number_of_dots":[71,100],"number_of_sets":1,"coherent_direction":[262,167],"coherence":1,"opposite_coherence":0,"dot_radius":2,"dot_side_length":1,"dot_life":-1,"move_distance":1,"aperture_width":300,"aperture_height":300,"dot_color":["white","black"],"dot_shape":"circle","background_color":"#AAA","RDK_type":3,"aperture_type":2,"reinsert_type":2,"frame_rate":13.193333333333333,"frame_rate_array":[9,10,14,14,13,14,13,14,13,13,14,13,13,14,13,13,13,13,13,13,13,13,14,14,13,14,13,13,14,14,13,13,13,14,14,12,14,13,13,14,13,13,13,13,14,13,13,13,13,13,14,13,13,13,13,13,13,13,14,13,14,12,13,13,14,13,13,13,14,13,13,13,13,13,14,13,13,13,13,13,14,12,13,13,14,13,14,13,13,13,14,12,14,13,13,13,13,14,13,13,13,14,13,14,13,13,13,12,13,13,13,13,13,15,14,12,13,13,13,13,14,13,12,14,13,13,13,13,14,13,13,13,14,13,13,13,13,14,14,13,13,13,15,12,13,14,13,14,13,14],"number_of_frames":150,"aperture_center_x":960,"aperture_center_y":540,"fixation_cross":true,"fixation_cross_width":15,"fixation_cross_height":15,"fixation_cross_color":"#111","fixation_cross_thickness":1,"border":true,"border_thickness":2,"border_color":"transparent","canvas_width":1920,"canvas_height":1080,"trial_type":"rdk","trial_index":27,"plugin_version":"2.0.0","time_elapsed":127910,"phase":"practice","target_direction":167,"distractor_direction":262},{"rt":4271,"stimulus":"\n        <div class=\"response-container\">\n          <div class=\"response-instruction\">\n            <p>rotate the bar by using the left and right arrow keys.</p>\n            <p>when you are determined, press the Enter key.</p>\n          </div>\n          <div class=\"response-circle\">\n            <div class=\"response-fixation\"></div>\n            <div id=\"bar\" class=\"rotating-bar\"></div>\n          </div>\n        </div>\n      ","response":"Enter","trial_type":"html-keyboard-response","trial_index":28,"plugin_version":"2.1.0","time_elapsed":132182,"random_initial_angle":282,"response_angle_css":285,"response_angle_rdk":165,"angular_error_target":-2,"angular_error_distractor":-97,"target_direction":167,"target_group":"black","reward_points":9},{"rt":null,"stimulus":"\n          <p style=\"color: #00FF00;\">Your reward: 9 points</p>\n        ","response":null,"trial_type":"html-keyboard-response","trial_index":29,"plugin_version":"2.1.0","time_elapsed":134190},{"rt":null,"stimulus":"<div class=\"fixation\" style=\"font-size: 60px;\">+</div>","response":null,"trial_type":"html-keyboard-response","trial_index":30,"plugin_version":"2.1.0","time_elapsed":135204},{"target_group":"white","target_index":0,"condition_label":"practice","rt":-1,"response":"","correct":false,"choices":"ALL_KEYS","correct_choice":["a"],"trial_duration":2000,"flip_timestamps":[],"response_ends_trial":false,"number_of_apertures":2,"number_of_dots":[100,61],"number_of_sets":1,"coherent_direction":[269,20],"coherence":1,"opposite_coherence":0,"dot_radius":2,"dot_side_length":1,"dot_life":-1,"move_distance":1,"aperture_width":300,"aperture_height":300,"dot_color":["white","black"],"dot_shape":"circle","background_color":"#AAA","RDK_type":3,"aperture_type":2,"reinsert_type":2,"frame_rate":13.18,"frame_rate_array":[9,11,13,14,14,13,13,13,14,13,13,14,14,12,13,13,14,13,13,13,14,13,13,14,13,14,13,14,13,14,13,13,13,13,13,14,13,14,13,13,13,13,13,15,12,13,13,14,13,13,14,13,12,15,12,14,12,14,12,13,13,13,13,13,13,13,13,13,14,12,14,13,14,14,13,13,14,12,14,12,14,13,13,13,13,13,13,14,11,16,12,13,14,13,13,13,13,15,12,13,14,13,14,13,13,13,13,13,13,13,13,13,13,13,13,13,13,13,14,14,13,13,13,14,13,13,13,13,13,14,13,13,14,13,13,14,12,13,13,14,12,15,12,15,12,13,13,15,13,13],"number_of_frames":150,"aperture_center_x":960,"aperture_center_y":540,"fixation_cross":true,"fixation_cross_width":15,"fixation_cross_height":15,"fixation_cross_color":"#111","fixation_cross_thickness":1,"border":true,"border_thickness":2,"border_color":"transparent","canvas_width":1920,"canvas_height":1080,"trial_type":"rdk","trial_index":31,"plugin_version":"2.0.0","time_elapsed":137209,"phase":"practice","target_direction":269,"distractor_direction":20},{"rt":3061,"stimulus":"\n        <div class=\"response-container\">\n          <div class=\"response-instruction\">\n            <p>rotate the bar by using the left and right arrow keys.</p>\n            <p>when you are determined, press the Enter key.</p>\n          </div>\n          <div class=\"response-circle\">\n            <div class=\"response-fixation\"></div>\n            <div id=\"bar\" class=\"rotating-bar\"></div>\n          </div>\n        </div>\n      ","response":"Enter","trial_type":"html-keyboard-response","trial_index":32,"plugin_version":"2.1.0","time_elapsed":140270,"random_initial_angle":187,"response_angle_css":55,"response_angle_rdk":35,"angular_error_target":126,"angular_error_distractor":15,"target_direction":269,"target_group":"white","reward_points":0},{"rt":null,"stimulus":"\n          <p style=\"color: #FF3333;\">Your reward: 0 points</p>\n        ","response":null,"trial_type":"html-keyboard-response","trial_index":33,"plugin_version":"2.1.0","time_elapsed":142283},{"rt":null,"stimulus":"<div class=\"fixation\" style=\"font-size: 60px;\">+</div>","response":null,"trial_type":"html-keyboard-response","trial_index":34,"plugin_version":"2.1.0","time_elapsed":143285},{"target_group":"black","target_index":1,"condition_label":"practice","rt":-1,"response":"","correct":false,"choices":"ALL_KEYS","correct_choice":["a"],"trial_duration":2000,"flip_timestamps":[],"response_ends_trial":false,"number_of_apertures":2,"number_of_dots":[99,100],"number_of_sets":1,"coherent_direction":[291,177],"coherence":1,"opposite_coherence":0,"dot_radius":2,"dot_side_length":1,"dot_life":-1,"move_distance":1,"aperture_width":300,"aperture_height":300,"dot_color":["white","black"],"dot_shape":"circle","background_color":"#AAA","RDK_type":3,"aperture_type":2,"reinsert_type":2,"frame_rate":13.16,"frame_rate_array":[10,12,13,15,13,13,14,13,13,14,13,13,14,13,13,14,13,13,13,14,13,14,13,13,13,13,13,13,13,13,13,13,14,13,13,14,13,13,13,13,13,13,13,13,13,13,13,13,13,14,13,13,13,13,13,13,13,13,13,13,13,13,13,15,13,13,13,14,13,14,13,13,14,13,13,14,13,13,13,13,13,13,13,14,14,12,13,14,13,13,13,13,13,14,13,13,13,13,14,13,13,13,13,14,14,13,13,13,13,13,14,14,12,13,13,14,13,13,13,13,13,13,13,13,13,13,13,13,13,14,13,13,13,13,13,13,13,14,13,13,13,13,13,13,13,13,13,14,13,13],"number_of_frames":150,"aperture_center_x":960,"aperture_center_y":540,"fixation_cross":true,"fixation_cross_width":15,"fixation_cross_height":15,"fixation_cross_color":"#111","fixation_cross_thickness":1,"border":true,"border_thickness":2,"border_color":"transparent","canvas_width":1920,"canvas_height":1080,"trial_type":"rdk","trial_index":35,"plugin_version":"2.0.0","time_elapsed":145287,"phase":"practice","target_direction":177,"distractor_direction":291},{"rt":2567,"stimulus":"\n        <div class=\"response-container\">\n          <div class=\"response-instruction\">\n            <p>rotate the bar by using the left and right arrow keys.</p>\n            <p>when you are determined, press the Enter key.</p>\n          </div>\n          <div class=\"response-circle\">\n            <div class=\"response-fixation\"></div>\n            <div id=\"bar\" class=\"rotating-bar\"></div>\n          </div>\n        </div>\n      ","response":"Enter","trial_type":"html-keyboard-response","trial_index":36,"plugin_version":"2.1.0","time_elapsed":147854,"random_initial_angle":32,"response_angle_css":-90,"response_angle_rdk":180,"angular_error_target":3,"angular_error_distractor":-111,"target_direction":177,"target_group":"black","reward_points":9},{"rt":null,"stimulus":"\n          <p style=\"color: #00FF00;\">Your reward: 9 points</p>\n        ","response":null,"trial_type":"html-keyboard-response","trial_index":37,"plugin_version":"2.1.0","time_elapsed":149858},{"rt":null,"stimulus":"<div class=\"fixation\" style=\"font-size: 60px;\">+</div>","response":null,"trial_type":"html-keyboard-response","trial_index":38,"plugin_version":"2.1.0","time_elapsed":150865},{"target_group":"black","target_index":1,"condition_label":"practice","rt":-1,"response":"","correct":false,"choices":"ALL_KEYS","correct_choice":["a"],"trial_duration":2000,"flip_timestamps":[],"response_ends_trial":false,"number_of_apertures":2,"number_of_dots":[52,100],"number_of_sets":1,"coherent_direction":[14,239],"coherence":1,"opposite_coherence":0,"dot_radius":2,"dot_side_length":1,"dot_life":-1,"move_distance":1,"aperture_width":300,"aperture_height":300,"dot_color":["white","black"],"dot_shape":"circle","background_color":"#AAA","RDK_type":3,"aperture_type":2,"reinsert_type":2,"frame_rate":13.233333333333333,"frame_rate_array":[4,13,15,14,13,14,13,13,13,13,13,14,13,13,13,14,14,13,13,13,14,14,13,14,13,13,12,13,13,14,13,12,13,13,13,15,14,13,12,13,13,13,14,14,13,13,13,12,14,14,12,14,14,13,13,12,13,14,14,13,13,13,13,13,14,13,14,13,13,13,14,13,13,13,13,14,14,14,13,13,13,13,13,13,14,13,15,13,13,13,14,13,13,12,13,13,14,14,13,13,13,13,13,13,13,13,13,14,13,14,13,14,13,13,14,14,14,13,13,13,12,14,14,13,14,13,13,13,13,14,14,14,13,13,12,15,13,14,11,13,15,13,13,13,14,13,14,13,14,14],"number_of_frames":150,"aperture_center_x":960,"aperture_center_y":540,"fixation_cross":true,"fixation_cross_width":15,"fixation_cross_height":15,"fixation_cross_color":"#111","fixation_cross_thickness":1,"border":true,"border_thickness":2,"border_color":"transparent","canvas_width":1920,"canvas_height":1080,"trial_type":"rdk","trial_index":39,"plugin_version":"2.0.0","time_elapsed":152866,"phase":"practice","target_direction":239,"distractor_direction":14},{"rt":2467,"stimulus":"\n        <div class=\"response-container\">\n          <div class=\"response-instruction\">\n            <p>rotate the bar by using the left and right arrow keys.</p>\n            <p>when you are determined, press the Enter key.</p>\n          </div>\n          <div class=\"response-circle\">\n            <div class=\"response-fixation\"></div>\n            <div id=\"bar\" class=\"rotating-bar\"></div>\n          </div>\n        </div>\n      ","response":"Enter","trial_type":"html-keyboard-response","trial_index":40,"plugin_version":"2.1.0","time_elapsed":155334,"random_initial_angle":331,"response_angle_css":228,"response_angle_rdk":222,"angular_error_target":-17,"angular_error_distractor":-152,"target_direction":239,"target_group":"black","reward_points":6},{"rt":null,"stimulus":"\n          <p style=\"color: #00FF00;\">Your reward: 6 points</p>\n        ","response":null,"trial_type":"html-keyboard-response","trial_index":41,"plugin_version":"2.1.0","time_elapsed":157338},{"rt":null,"stimulus":"<div class=\"fixation\" style=\"font-size: 60px;\">+</div>","response":null,"trial_type":"html-keyboard-response","trial_index":42,"plugin_version":"2.1.0","time_elapsed":158350},{"target_group":"white","target_index":0,"condition_label":"practice","rt":-1,"response":"","correct":false,"choices":"ALL_KEYS","correct_choice":["a"],"trial_duration":2000,"flip_timestamps":[],"response_ends_trial":false,"number_of_apertures":2,"number_of_dots":[100,54],"number_of_sets":1,"coherent_direction":[111,293],"coherence":1,"opposite_coherence":0,"dot_radius":2,"dot_side_length":1,"dot_life":-1,"move_distance":1,"aperture_width":300,"aperture_height":300,"dot_color":["white","black"],"dot_shape":"circle","background_color":"#AAA","RDK_type":3,"aperture_type":2,"reinsert_type":2,"frame_rate":13.22,"frame_rate_array":[4,10,14,14,14,14,14,12,14,13,14,13,14,13,13,13,14,13,14,14,12,13,14,14,14,13,12,13,13,14,13,14,13,13,13,13,13,14,13,13,14,13,14,13,13,15,12,13,14,13,13,13,14,12,15,13,13,14,13,14,11,14,14,13,14,14,13,13,12,13,13,13,15,13,13,13,12,13,13,14,13,13,13,13,14,13,13,14,13,13,13,13,13,14,14,13,13,13,13,13,14,13,13,13,13,14,13,13,13,13,14,13,13,12,13,14,13,13,13,14,13,13,14,13,13,13,14,13,12,13,15,12,13,14,13,15,13,13,14,13,13,15,13,13,12,14,14,13,15,14],"number_of_frames":150,"aperture_center_x":960,"aperture_center_y":540,"fixation_cross":true,"fixation_cross_width":15,"fixation_cross_height":15,"fixation_cross_color":"#111","fixation_cross_thickness":1,"border":true,"border_thickness":2,"border_color":"transparent","canvas_width":1920,"canvas_height":1080,"trial_type":"rdk","trial_index":43,"plugin_version":"2.0.0","time_elapsed":160357,"phase":"practice","target_direction":111,"distractor_direction":293},{"rt":3792,"stimulus":"\n        <div class=\"response-container\">\n          <div class=\"response-instruction\">\n            <p>rotate the bar by using the left and right arrow keys.</p>\n            <p>when you are determined, press the Enter key.</p>\n          </div>\n          <div class=\"response-circle\">\n            <div class=\"response-fixation\"></div>\n            <div id=\"bar\" class=\"rotating-bar\"></div>\n          </div>\n        </div>\n      ","response":"Enter","trial_type":"html-keyboard-response","trial_index":44,"plugin_version":"2.1.0","time_elapsed":164150,"random_initial_angle":284,"response_angle_css":169,"response_angle_rdk":281,"angular_error_target":170,"angular_error_distractor":-12,"target_direction":111,"target_group":"white","reward_points":0},{"rt":null,"stimulus":"\n          <p style=\"color: #FF3333;\">Your reward: 0 points</p>\n        ","response":null,"trial_type":"html-keyboard-response","trial_index":45,"plugin_version":"2.1.0","time_elapsed":166156},{"rt":null,"stimulus":"<div class=\"fixation\" style=\"font-size: 60px;\">+</div>","response":null,"trial_type":"html-keyboard-response","trial_index":46,"plugin_version":"2.1.0","time_elapsed":167161},{"target_group":"white","target_index":0,"condition_label":"practice","rt":-1,"response":"","correct":false,"choices":"ALL_KEYS","correct_choice":["a"],"trial_duration":2000,"flip_timestamps":[],"response_ends_trial":false,"number_of_apertures":2,"number_of_dots":[100,96],"number_of_sets":1,"coherent_direction":[84,303],"coherence":1,"opposite_coherence":0,"dot_radius":2,"dot_side_length":1,"dot_life":-1,"move_distance":1,"aperture_width":300,"aperture_height":300,"dot_color":["white","black"],"dot_shape":"circle","background_color":"#AAA","RDK_type":3,"aperture_type":2,"reinsert_type":2,"frame_rate":13.854166666666666,"frame_rate_array":[11,13,14,14,13,14,14,12,13,14,13,15,11,15,13,13,14,13,14,13,13,13,13,13,13,13,14,13,13,13,14,14,13,13,13,14,13,14,13,13,13,14,14,13,13,14,13,13,13,14,13,13,13,14,14,13,15,13,13,13,13,13,13,13,13,13,13,14,14,13,14,13,13,13,13,14,13,13,13,13,13,13,13,14,13,13,13,14,15,13,13,13,13,13,13,13,13,13,13,13,14,14,13,13,14,13,14,13,14,13,17,17,16,7,12,17,17,19,17,11,13,13,12,13,13,14,14,13,14,18,9,12,15,13,13,17,88,2,13,13,11,14,13,13],"number_of_frames":144,"aperture_center_x":960,"aperture_center_y":540,"fixation_cross":true,"fixation_cross_width":15,"fixation_cross_height":15,"fixation_cross_color":"#111","fixation_cross_thickness":1,"border":true,"border_thickness":2,"border_color":"transparent","canvas_width":1920,"canvas_height":1080,"trial_type":"rdk","trial_index":47,"plugin_version":"2.0.0","time_elapsed":169163,"phase":"practice","target_direction":84,"distractor_direction":303},{"rt":1546,"stimulus":"\n        <div class=\"response-container\">\n          <div class=\"response-instruction\">\n            <p>rotate the bar by using the left and right arrow keys.</p>\n            <p>when you are determined, press the Enter key.</p>\n          </div>\n          <div class=\"response-circle\">\n            <div class=\"response-fixation\"></div>\n            <div id=\"bar\" class=\"rotating-bar\"></div>\n          </div>\n        </div>\n      ","response":"Enter","trial_type":"html-keyboard-response","trial_index":48,"plugin_version":"2.1.0","time_elapsed":170710,"random_initial_angle":141,"response_angle_css":150,"response_angle_rdk":300,"angular_error_target":-144,"angular_error_distractor":-3,"target_direction":84,"target_group":"white","reward_points":0},{"rt":null,"stimulus":"\n          <p style=\"color: #FF3333;\">Your reward: 0 points</p>\n        ","response":null,"trial_type":"html-keyboard-response","trial_index":49,"plugin_version":"2.1.0","time_elapsed":172726},{"rt":null,"stimulus":"<div class=\"fixation\" style=\"font-size: 60px;\">+</div>","response":null,"trial_type":"html-keyboard-response","trial_index":50,"plugin_version":"2.1.0","time_elapsed":173742},{"target_group":"black","target_index":1,"condition_label":"practice","rt":-1,"response":"","correct":false,"choices":"ALL_KEYS","correct_choice":["a"],"trial_duration":2000,"flip_timestamps":[],"response_ends_trial":false,"number_of_apertures":2,"number_of_dots":[70,100],"number_of_sets":1,"coherent_direction":[145,16],"coherence":1,"opposite_coherence":0,"dot_radius":2,"dot_side_length":1,"dot_life":-1,"move_distance":1,"aperture_width":300,"aperture_height":300,"dot_color":["white","black"],"dot_shape":"circle","background_color":"#AAA","RDK_type":3,"aperture_type":2,"reinsert_type":2,"frame_rate":13.258278145695364,"frame_rate_array":[4,11,15,13,13,15,12,14,14,13,14,13,14,13,13,14,14,14,13,14,13,15,14,13,14,12,13,13,13,14,12,14,13,13,13,14,13,13,14,13,14,13,13,13,13,14,12,14,13,13,14,13,13,13,13,14,13,14,14,13,13,13,14,14,14,12,14,13,13,13,14,13,13,14,14,13,13,13,14,13,13,13,13,14,13,13,13,14,14,12,14,13,13,14,14,13,14,13,13,14,13,14,11,15,13,14,12,13,13,14,13,14,12,15,12,14,14,13,13,14,11,13,16,13,11,15,13,14,14,11,13,16,13,13,13,13,12,14,13,13,13,13,14,13,12,14,13,13,14,14,13],"number_of_frames":151,"aperture_center_x":960,"aperture_center_y":540,"fixation_cross":true,"fixation_cross_width":15,"fixation_cross_height":15,"fixation_cross_color":"#111","fixation_cross_thickness":1,"border":true,"border_thickness":2,"border_color":"transparent","canvas_width":1920,"canvas_height":1080,"trial_type":"rdk","trial_index":51,"plugin_version":"2.0.0","time_elapsed":175752,"phase":"practice","target_direction":16,"distractor_direction":145},{"rt":3877,"stimulus":"\n        <div class=\"response-container\">\n          <div class=\"response-instruction\">\n            <p>rotate the bar by using the left and right arrow keys.</p>\n            <p>when you are determined, press the Enter key.</p>\n          </div>\n          <div class=\"response-circle\">\n            <div class=\"response-fixation\"></div>\n            <div id=\"bar\" class=\"rotating-bar\"></div>\n          </div>\n        </div>\n      ","response":"Enter","trial_type":"html-keyboard-response","trial_index":52,"plugin_version":"2.1.0","time_elapsed":179630,"random_initial_angle":257,"response_angle_css":79,"response_angle_rdk":11,"angular_error_target":-5,"angular_error_distractor":-134,"target_direction":16,"target_group":"black","reward_points":9},{"rt":null,"stimulus":"\n          <p style=\"color: #00FF00;\">Your reward: 9 points</p>\n        ","response":null,"trial_type":"html-keyboard-response","trial_index":53,"plugin_version":"2.1.0","time_elapsed":181643},{"rt":null,"stimulus":"<div class=\"fixation\" style=\"font-size: 60px;\">+</div>","response":null,"trial_type":"html-keyboard-response","trial_index":54,"plugin_version":"2.1.0","time_elapsed":182649},{"target_group":"white","target_index":0,"condition_label":"practice","rt":-1,"response":"","correct":false,"choices":"ALL_KEYS","correct_choice":["a"],"trial_duration":2000,"flip_timestamps":[],"response_ends_trial":false,"number_of_apertures":2,"number_of_dots":[100,80],"number_of_sets":1,"coherent_direction":[57,248],"coherence":1,"opposite_coherence":0,"dot_radius":2,"dot_side_length":1,"dot_life":-1,"move_distance":1,"aperture_width":300,"aperture_height":300,"dot_color":["white","black"],"dot_shape":"circle","background_color":"#AAA","RDK_type":3,"aperture_type":2,"reinsert_type":2,"frame_rate":13.63013698630137,"frame_rate_array":[9,11,13,15,13,13,13,14,13,13,13,14,13,14,14,12,14,13,13,13,13,13,14,13,13,14,14,13,13,13,13,13,14,13,15,13,13,14,12,13,14,13,13,14,13,14,14,13,13,15,12,13,15,12,13,14,12,13,13,14,14,13,13,13,13,13,13,14,12,13,13,13,13,13,13,14,14,13,13,13,14,13,13,13,13,13,14,13,14,12,14,12,14,13,14,14,13,12,15,11,14,13,13,13,13,18,15,15,17,7,12,15,18,18,13,14,12,16,12,15,11,14,14,16,13,10,18,11,12,14,12,77,2,13,6,9,13,15,13,13,14,13,14,12,14,14],"number_of_frames":146,"aperture_center_x":960,"aperture_center_y":540,"fixation_cross":true,"fixation_cross_width":15,"fixation_cross_height":15,"fixation_cross_color":"#111","fixation_cross_thickness":1,"border":true,"border_thickness":2,"border_color":"transparent","canvas_width":1920,"canvas_height":1080,"trial_type":"rdk","trial_index":55,"plugin_version":"2.0.0","time_elapsed":184651,"phase":"practice","target_direction":57,"distractor_direction":248},{"rt":1690,"stimulus":"\n        <div class=\"response-container\">\n          <div class=\"response-instruction\">\n            <p>rotate the bar by using the left and right arrow keys.</p>\n            <p>when you are determined, press the Enter key.</p>\n          </div>\n          <div class=\"response-circle\">\n            <div class=\"response-fixation\"></div>\n            <div id=\"bar\" class=\"rotating-bar\"></div>\n          </div>\n        </div>\n      ","response":"Enter","trial_type":"html-keyboard-response","trial_index":56,"plugin_version":"2.1.0","time_elapsed":186342,"random_initial_angle":251,"response_angle_css":225,"response_angle_rdk":225,"angular_error_target":168,"angular_error_distractor":-23,"target_direction":57,"target_group":"white","reward_points":0},{"rt":null,"stimulus":"\n          <p style=\"color: #FF3333;\">Your reward: 0 points</p>\n        ","response":null,"trial_type":"html-keyboard-response","trial_index":57,"plugin_version":"2.1.0","time_elapsed":188356},{"rt":null,"stimulus":"<div class=\"fixation\" style=\"font-size: 60px;\">+</div>","response":null,"trial_type":"html-keyboard-response","trial_index":58,"plugin_version":"2.1.0","time_elapsed":189356},{"target_group":"black","target_index":1,"condition_label":"practice","rt":-1,"response":"","correct":false,"choices":"ALL_KEYS","correct_choice":["a"],"trial_duration":2000,"flip_timestamps":[],"response_ends_trial":false,"number_of_apertures":2,"number_of_dots":[62,100],"number_of_sets":1,"coherent_direction":[289,140],"coherence":1,"opposite_coherence":0,"dot_radius":2,"dot_side_length":1,"dot_life":-1,"move_distance":1,"aperture_width":300,"aperture_height":300,"dot_color":["white","black"],"dot_shape":"circle","background_color":"#AAA","RDK_type":3,"aperture_type":2,"reinsert_type":2,"frame_rate":13.16,"frame_rate_array":[9,12,14,14,13,14,13,14,13,13,13,13,15,13,13,13,13,14,14,13,14,13,14,13,13,13,14,14,13,13,14,14,13,13,13,13,14,13,13,14,12,13,13,13,13,13,13,14,12,13,14,13,13,13,13,14,13,14,13,13,13,13,14,13,13,14,13,14,13,13,13,13,14,12,14,13,12,13,14,12,13,13,13,13,15,12,13,13,14,13,13,13,15,13,13,13,13,13,14,12,13,13,13,13,13,14,13,13,13,14,13,13,13,13,14,12,13,13,13,13,13,13,14,12,13,13,13,13,14,13,12,13,14,13,13,13,13,13,13,13,13,13,13,13,13,14,13,13,13,13],"number_of_frames":150,"aperture_center_x":960,"aperture_center_y":540,"fixation_cross":true,"fixation_cross_width":15,"fixation_cross_height":15,"fixation_cross_color":"#111","fixation_cross_thickness":1,"border":true,"border_thickness":2,"border_color":"transparent","canvas_width":1920,"canvas_height":1080,"trial_type":"rdk","trial_index":59,"plugin_version":"2.0.0","time_elapsed":191360,"phase":"practice","target_direction":140,"distractor_direction":289},{"rt":3205,"stimulus":"\n        <div class=\"response-container\">\n          <div class=\"response-instruction\">\n            <p>rotate the bar by using the left and right arrow keys.</p>\n            <p>when you are determined, press the Enter key.</p>\n          </div>\n          <div class=\"response-circle\">\n            <div class=\"response-fixation\"></div>\n            <div id=\"bar\" class=\"rotating-bar\"></div>\n          </div>\n        </div>\n      ","response":"Enter","trial_type":"html-keyboard-response","trial_index":60,"plugin_version":"2.1.0","time_elapsed":194566,"random_initial_angle":217,"response_angle_css":311,"response_angle_rdk":139,"angular_error_target":-1,"angular_error_distractor":-150,"target_direction":140,"target_group":"black","reward_points":9},{"rt":null,"stimulus":"\n          <p style=\"color: #00FF00;\">Your reward: 9 points</p>\n        ","response":null,"trial_type":"html-keyboard-response","trial_index":61,"plugin_version":"2.1.0","time_elapsed":196570},{"rt":null,"stimulus":"<div class=\"fixation\" style=\"font-size: 60px;\">+</div>","response":null,"trial_type":"html-keyboard-response","trial_index":62,"plugin_version":"2.1.0","time_elapsed":197575},{"target_group":"white","target_index":0,"condition_label":"practice","rt":-1,"response":"","correct":false,"choices":"ALL_KEYS","correct_choice":["a"],"trial_duration":2000,"flip_timestamps":[],"response_ends_trial":false,"number_of_apertures":2,"number_of_dots":[100,74],"number_of_sets":1,"coherent_direction":[83,201],"coherence":1,"opposite_coherence":0,"dot_radius":2,"dot_side_length":1,"dot_life":-1,"move_distance":1,"aperture_width":300,"aperture_height":300,"dot_color":["white","black"],"dot_shape":"circle","background_color":"#AAA","RDK_type":3,"aperture_type":2,"reinsert_type":2,"frame_rate":13.268456375838927,"frame_rate_array":[5,13,14,14,14,13,13,13,13,14,13,13,13,13,14,13,13,13,14,13,13,13,13,14,13,13,13,13,13,13,14,13,13,14,13,13,13,13,13,13,13,13,13,13,13,13,14,13,13,13,13,13,13,14,13,14,13,13,13,13,14,14,13,14,13,13,14,12,14,14,12,13,13,14,13,13,14,12,14,12,15,12,15,12,13,13,14,13,13,14,13,13,15,14,12,14,13,15,13,11,15,13,13,13,13,14,13,13,14,14,13,13,13,13,13,13,13,14,13,13,12,13,13,13,13,12,14,14,13,13,14,13,14,13,14,12,15,13,13,14,14,13,15,14,11,15,14,14,20],"number_of_frames":149,"aperture_center_x":960,"aperture_center_y":540,"fixation_cross":true,"fixation_cross_width":15,"fixation_cross_height":15,"fixation_cross_color":"#111","fixation_cross_thickness":1,"border":true,"border_thickness":2,"border_color":"transparent","canvas_width":1920,"canvas_height":1080,"trial_type":"rdk","trial_index":63,"plugin_version":"2.0.0","time_elapsed":199582,"phase":"practice","target_direction":83,"distractor_direction":201},{"rt":2864,"stimulus":"\n        <div class=\"response-container\">\n          <div class=\"response-instruction\">\n            <p>rotate the bar by using the left and right arrow keys.</p>\n            <p>when you are determined, press the Enter key.</p>\n          </div>\n          <div class=\"response-circle\">\n            <div class=\"response-fixation\"></div>\n            <div id=\"bar\" class=\"rotating-bar\"></div>\n          </div>\n        </div>\n      ","response":"Enter","trial_type":"html-keyboard-response","trial_index":64,"plugin_version":"2.1.0","time_elapsed":202446,"random_initial_angle":165,"response_angle_css":43,"response_angle_rdk":47,"angular_error_target":-36,"angular_error_distractor":-154,"target_direction":83,"target_group":"white","reward_points":2},{"rt":null,"stimulus":"\n          <p style=\"color: #FF3333;\">Your reward: 2 points</p>\n        ","response":null,"trial_type":"html-keyboard-response","trial_index":65,"plugin_version":"2.1.0","time_elapsed":204456},{"rt":1965,"stimulus":"\n        <div class=\"instructions-container\">\n          <h2>End of Practice</h2>\n          <p>You have completed the practice trials.</p>\n          <p>Press <strong>Enter</strong> key to begin the main experiment.</p>\n        </div>\n      ","response":"Enter","trial_type":"html-keyboard-response","trial_index":66,"plugin_version":"2.1.0","time_elapsed":206422},{"rt":null,"stimulus":"<div class=\"fixation\" style=\"font-size: 60px;\">+</div>","response":null,"trial_type":"html-keyboard-response","trial_index":67,"plugin_version":"2.1.0","time_elapsed":207433},{"phase":"learning-awareness","target_group":"black","condition_label":"B_H_vs_W_L_rep20","target_direction":213,"distractor_direction":325,"session_rotation":108,"rt":-1,"response":"","correct":false,"choices":"ALL_KEYS","correct_choice":["a"],"trial_duration":2000,"flip_timestamps":[],"response_ends_trial":false,"number_of_apertures":200,"number_of_dots":[1,1,1,1,1,1,1,1,1,1,1,1,1,1,1,1,1,1,1,1,1,1,1,1,1,1,1,1,1,1,1,1,1,1,1,1,1,1,1,1,1,1,1,1,1,1,1,1,1,1,1,1,1,1,1,1,1,1,1,1,1,1,1,1,1,1,1,1,1,1,1,1,1,1,1,1,1,1,1,1,1,1,1,1,1,1,1,1,1,1,1,1,1,1,1,1,1,1,1,1,1,1,1,1,1,1,1,1,1,1,1,1,1,1,1,1,1,1,1,1,1,1,1,1,1,1,1,1,1,1,1,1,1,1,1,1,1,1,1,1,1,1,1,1,1,1,1,1,1,1,1,1,1,1,1,1,1,1,1,1,1,1,1,1,1,1,1,1,1,1,1,1,1,1,1,1,1,1,1,1,1,1,1,1,1,1,1,1,1,1,1,1,1,1,1,1,1,1,1,1],"number_of_sets":1,"coherent_direction":[213,213,325,213,325,325,213,213,325,325,325,213,213,213,213,213,325,325,213,213,325,213,325,325,325,325,325,325,213,213,325,325,325,325,213,213,325,213,325,325,213,325,325,213,325,213,325,325,213,213,213,325,213,213,325,213,213,325,325,213,213,325,325,213,213,325,213,213,213,325,213,325,325,213,213,213,213,325,213,325,213,213,213,325,213,213,213,213,213,325,213,213,325,325,325,325,325,325,213,325,213,213,213,325,213,213,325,325,325,325,213,213,325,213,325,325,213,213,325,213,213,213,213,213,325,213,213,325,325,325,213,325,213,213,325,213,213,213,325,325,325,213,325,325,325,325,325,213,213,213,213,325,213,213,325,325,325,325,213,213,213,325,325,325,213,213,325,325,325,213,213,213,325,325,213,325,325,325,325,213,213,213,213,325,325,325,325,213,213,325,325,213,325,325,325,213,325,325,325,213],"coherence":1,"opposite_coherence":0,"dot_radius":2,"dot_side_length":1,"dot_life":-1,"move_distance":1,"aperture_width":300,"aperture_height":300,"dot_color":["black","black","white","black","white","white","black","black","white","white","white","black","black","black","black","black","white","white","black","black","white","black","white","white","white","white","white","white","black","black","white","white","white","white","black","black","white","black","white","white","black","white","white","black","white","black","white","white","black","black","black","white","black","black","white","black","black","white","white","black","black","white","white","black","black","white","black","black","black","white","black","white","white","black","black","black","black","white","black","white","black","black","black","white","black","black","black","black","black","white","black","black","white","white","white","white","white","white","black","white","black","black","black","white","black","black","white","white","white","white","black","black","white","black","white","white","black","black","white","black","black","black","black","black","white","black","black","white","white","white","black","white","black","black","white","black","black","black","white","white","white","black","white","white","white","white","white","black","black","black","black","white","black","black","white","white","white","white","black","black","black","white","white","white","black","black","white","white","white","black","black","black","white","white","black","white","white","white","white","black","black","black","black","white","white","white","white","black","black","white","white","black","white","white","white","black","white","white","white","black"],"dot_shape":"circle","background_color":"#AAA","RDK_type":3,"aperture_type":2,"reinsert_type":2,"frame_rate":13.298013245033113,"frame_rate_array":[5,12,14,13,14,13,14,13,14,14,13,14,13,14,14,13,14,13,13,14,14,13,13,14,14,13,14,13,14,12,13,13,13,14,15,11,15,13,13,14,13,13,13,13,14,13,14,13,14,12,14,13,13,13,14,13,14,13,12,14,14,14,13,13,13,14,13,13,14,13,12,14,13,13,13,13,15,12,14,13,16,12,13,13,14,13,13,15,13,12,14,14,13,14,13,13,15,13,14,12,13,14,13,14,13,13,14,13,13,14,13,13,13,14,14,13,12,14,13,13,13,14,14,13,14,12,13,14,13,14,13,13,15,12,12,14,13,13,14,14,14,13,13,14,12,14,13,13,13,14,13],"number_of_frames":151,"aperture_center_x":960,"aperture_center_y":540,"fixation_cross":true,"fixation_cross_width":15,"fixation_cross_height":15,"fixation_cross_color":"#111","fixation_cross_thickness":1,"border":true,"border_thickness":2,"border_color":"transparent","canvas_width":1920,"canvas_height":1080,"trial_type":"rdk","trial_index":68,"plugin_version":"2.0.0","time_elapsed":209445},{"rt":5009,"stimulus":"\n        <div class=\"response-container\">\n          <div class=\"response-instruction\">\n            <p>rotate the bar by using the left and right arrow keys.</p>\n            <p>when you are determined, press the Enter key.</p>\n          </div>\n          <div class=\"response-circle\">\n            <div class=\"response-fixation\"></div>\n            <div id=\"bar\" class=\"rotating-bar\"></div>\n          </div>\n        </div>\n      ","response":"Enter","trial_type":"html-keyboard-response","trial_index":69,"plugin_version":"2.1.0","time_elapsed":214454,"random_initial_angle":203,"response_angle_css":272,"response_angle_rdk":178,"angular_error_target":-35,"angular_error_distractor":-147,"target_direction":213,"target_group":"black","reward_points":3},{"rt":null,"stimulus":"\n          <p style=\"color: #00FF00;\">Your reward: 3 points</p>\n        ","response":null,"trial_type":"html-keyboard-response","trial_index":70,"plugin_version":"2.1.0","time_elapsed":216464},{"rt":null,"stimulus":"<div class=\"fixation\" style=\"font-size: 60px;\">+</div>","response":null,"trial_type":"html-keyboard-response","trial_index":71,"plugin_version":"2.1.0","time_elapsed":217476},{"phase":"learning-awareness","target_group":"black","condition_label":"B_H_vs_W_L_rep4","target_direction":225,"distractor_direction":323,"session_rotation":108,"rt":-1,"response":"","correct":false,"choices":"ALL_KEYS","correct_choice":["a"],"trial_duration":2000,"flip_timestamps":[],"response_ends_trial":false,"number_of_apertures":200,"number_of_dots":[1,1,1,1,1,1,1,1,1,1,1,1,1,1,1,1,1,1,1,1,1,1,1,1,1,1,1,1,1,1,1,1,1,1,1,1,1,1,1,1,1,1,1,1,1,1,1,1,1,1,1,1,1,1,1,1,1,1,1,1,1,1,1,1,1,1,1,1,1,1,1,1,1,1,1,1,1,1,1,1,1,1,1,1,1,1,1,1,1,1,1,1,1,1,1,1,1,1,1,1,1,1,1,1,1,1,1,1,1,1,1,1,1,1,1,1,1,1,1,1,1,1,1,1,1,1,1,1,1,1,1,1,1,1,1,1,1,1,1,1,1,1,1,1,1,1,1,1,1,1,1,1,1,1,1,1,1,1,1,1,1,1,1,1,1,1,1,1,1,1,1,1,1,1,1,1,1,1,1,1,1,1,1,1,1,1,1,1,1,1,1,1,1,1,1,1,1,1,1,1],"number_of_sets":1,"coherent_direction":[323,323,225,323,323,323,225,323,225,225,225,225,225,225,225,225,225,225,323,323,225,225,225,225,323,323,225,225,225,323,323,323,323,323,323,225,225,323,323,225,225,323,225,225,225,225,323,225,225,323,225,225,323,323,323,225,323,225,323,225,323,225,225,225,225,323,323,225,225,323,323,323,323,323,323,323,323,225,323,225,323,225,225,225,323,225,225,225,323,323,225,323,323,225,323,323,323,323,225,225,323,225,323,225,323,323,323,225,225,323,323,225,225,323,323,225,323,323,323,323,225,225,323,323,225,225,225,323,323,323,225,323,225,323,323,323,323,225,323,225,225,323,323,225,225,225,225,323,323,323,323,323,225,323,323,225,323,225,225,225,323,225,323,225,225,225,225,225,225,323,323,323,225,225,323,225,323,323,225,225,225,225,323,323,323,323,225,323,225,225,225,323,225,323,225,225,323,225,323,323],"coherence":1,"opposite_coherence":0,"dot_radius":2,"dot_side_length":1,"dot_life":-1,"move_distance":1,"aperture_width":300,"aperture_height":300,"dot_color":["white","white","black","white","white","white","black","white","black","black","black","black","black","black","black","black","black","black","white","white","black","black","black","black","white","white","black","black","black","white","white","white","white","white","white","black","black","white","white","black","black","white","black","black","black","black","white","black","black","white","black","black","white","white","white","black","white","black","white","black","white","black","black","black","black","white","white","black","black","white","white","white","white","white","white","white","white","black","white","black","white","black","black","black","white","black","black","black","white","white","black","white","white","black","white","white","white","white","black","black","white","black","white","black","white","white","white","black","black","white","white","black","black","white","white","black","white","white","white","white","black","black","white","white","black","black","black","white","white","white","black","white","black","white","white","white","white","black","white","black","black","white","white","black","black","black","black","white","white","white","white","white","black","white","white","black","white","black","black","black","white","black","white","black","black","black","black","black","black","white","white","white","black","black","white","black","white","white","black","black","black","black","white","white","white","white","black","white","black","black","black","white","black","white","black","black","white","black","white","white"],"dot_shape":"circle","background_color":"#AAA","RDK_type":3,"aperture_type":2,"reinsert_type":2,"frame_rate":13.28,"frame_rate_array":[5,12,14,13,14,15,13,13,13,13,13,14,13,14,13,14,14,13,13,13,14,14,13,13,15,13,12,14,13,13,13,14,14,14,13,13,13,13,14,14,12,14,14,14,13,13,14,13,14,14,14,13,15,13,13,12,13,14,14,13,12,13,13,13,14,13,13,13,14,13,13,13,14,13,13,13,13,14,12,14,13,12,14,14,14,14,13,13,14,13,13,13,14,13,12,14,13,13,14,13,14,13,13,13,14,13,13,13,13,14,13,13,14,12,14,14,13,13,12,13,15,13,12,15,13,14,14,14,12,14,14,13,13,14,13,14,14,13,13,14,13,14,12,14,13,14,12,13,13,13],"number_of_frames":150,"aperture_center_x":960,"aperture_center_y":540,"fixation_cross":true,"fixation_cross_width":15,"fixation_cross_height":15,"fixation_cross_color":"#111","fixation_cross_thickness":1,"border":true,"border_thickness":2,"border_color":"transparent","canvas_width":1920,"canvas_height":1080,"trial_type":"rdk","trial_index":72,"plugin_version":"2.0.0","time_elapsed":219482},{"rt":1331,"stimulus":"\n        <div class=\"response-container\">\n          <div class=\"response-instruction\">\n            <p>rotate the bar by using the left and right arrow keys.</p>\n            <p>when you are determined, press the Enter key.</p>\n          </div>\n          <div class=\"response-circle\">\n            <div class=\"response-fixation\"></div>\n            <div id=\"bar\" class=\"rotating-bar\"></div>\n          </div>\n        </div>\n      ","response":"Enter","trial_type":"html-keyboard-response","trial_index":73,"plugin_version":"2.1.0","time_elapsed":220814,"random_initial_angle":262,"response_angle_css":247,"response_angle_rdk":203,"angular_error_target":-22,"angular_error_distractor":-120,"target_direction":225,"target_group":"black","reward_points":5},{"rt":null,"stimulus":"\n          <p style=\"color: #00FF00;\">Your reward: 5 points</p>\n        ","response":null,"trial_type":"html-keyboard-response","trial_index":74,"plugin_version":"2.1.0","time_elapsed":222823},{"rt":null,"stimulus":"<div class=\"fixation\" style=\"font-size: 60px;\">+</div>","response":null,"trial_type":"html-keyboard-response","trial_index":75,"plugin_version":"2.1.0","time_elapsed":223837},{"phase":"learning-awareness","target_group":"white","condition_label":"W_H_vs_B_L_rep14","target_direction":133,"distractor_direction":19,"session_rotation":108,"rt":-1,"response":"","correct":false,"choices":"ALL_KEYS","correct_choice":["a"],"trial_duration":2000,"flip_timestamps":[],"response_ends_trial":false,"number_of_apertures":200,"number_of_dots":[1,1,1,1,1,1,1,1,1,1,1,1,1,1,1,1,1,1,1,1,1,1,1,1,1,1,1,1,1,1,1,1,1,1,1,1,1,1,1,1,1,1,1,1,1,1,1,1,1,1,1,1,1,1,1,1,1,1,1,1,1,1,1,1,1,1,1,1,1,1,1,1,1,1,1,1,1,1,1,1,1,1,1,1,1,1,1,1,1,1,1,1,1,1,1,1,1,1,1,1,1,1,1,1,1,1,1,1,1,1,1,1,1,1,1,1,1,1,1,1,1,1,1,1,1,1,1,1,1,1,1,1,1,1,1,1,1,1,1,1,1,1,1,1,1,1,1,1,1,1,1,1,1,1,1,1,1,1,1,1,1,1,1,1,1,1,1,1,1,1,1,1,1,1,1,1,1,1,1,1,1,1,1,1,1,1,1,1,1,1,1,1,1,1,1,1,1,1,1,1],"number_of_sets":1,"coherent_direction":[133,133,19,19,133,19,19,133,133,19,133,19,19,133,19,19,133,19,133,133,19,133,19,133,19,19,19,133,19,133,133,133,133,133,19,133,133,133,133,133,133,133,133,133,133,133,133,133,19,133,133,133,19,19,19,133,133,19,19,19,133,133,133,19,19,19,19,19,19,19,19,133,133,19,133,19,19,133,19,19,19,19,19,19,19,19,19,19,19,133,133,133,133,133,133,19,133,133,19,133,19,133,133,19,133,19,19,19,133,19,19,19,19,133,133,133,133,19,19,19,19,133,133,19,133,133,133,19,19,133,133,19,133,19,133,133,133,19,133,19,19,19,19,19,133,133,133,133,133,19,133,19,133,19,19,133,133,19,19,133,133,19,133,133,19,19,133,19,133,133,19,19,19,19,133,19,133,133,19,133,133,19,133,19,19,133,19,19,19,19,19,19,133,133,133,19,19,19,133,133],"coherence":1,"opposite_coherence":0,"dot_radius":2,"dot_side_length":1,"dot_life":-1,"move_distance":1,"aperture_width":300,"aperture_height":300,"dot_color":["white","white","black","black","white","black","black","white","white","black","white","black","black","white","black","black","white","black","white","white","black","white","black","white","black","black","black","white","black","white","white","white","white","white","black","white","white","white","white","white","white","white","white","white","white","white","white","white","black","white","white","white","black","black","black","white","white","black","black","black","white","white","white","black","black","black","black","black","black","black","black","white","white","black","white","black","black","white","black","black","black","black","black","black","black","black","black","black","black","white","white","white","white","white","white","black","white","white","black","white","black","white","white","black","white","black","black","black","white","black","black","black","black","white","white","white","white","black","black","black","black","white","white","black","white","white","white","black","black","white","white","black","white","black","white","white","white","black","white","black","black","black","black","black","white","white","white","white","white","black","white","black","white","black","black","white","white","black","black","white","white","black","white","white","black","black","white","black","white","white","black","black","black","black","white","black","white","white","black","white","white","black","white","black","black","white","black","black","black","black","black","black","white","white","white","black","black","black","white","white"],"dot_shape":"circle","background_color":"#AAA","RDK_type":3,"aperture_type":2,"reinsert_type":2,"frame_rate":13.24,"frame_rate_array":[5,14,15,13,13,14,13,13,14,13,14,13,14,13,13,13,14,13,14,13,13,14,13,13,14,13,14,13,13,14,12,13,14,13,13,12,14,13,13,13,13,13,13,13,13,13,13,14,13,13,14,12,14,13,13,14,14,12,13,13,13,14,14,13,14,13,14,13,13,13,14,13,13,14,13,13,14,14,13,13,13,13,14,13,13,14,14,13,13,14,14,13,14,14,13,13,13,14,13,13,13,13,13,13,13,13,14,13,13,13,14,13,13,14,13,14,13,13,13,13,14,13,13,13,14,13,12,13,13,13,13,13,14,14,13,13,14,13,14,13,13,13,14,13,13,14,13,13,14,13],"number_of_frames":150,"aperture_center_x":960,"aperture_center_y":540,"fixation_cross":true,"fixation_cross_width":15,"fixation_cross_height":15,"fixation_cross_color":"#111","fixation_cross_thickness":1,"border":true,"border_thickness":2,"border_color":"transparent","canvas_width":1920,"canvas_height":1080,"trial_type":"rdk","trial_index":76,"plugin_version":"2.0.0","time_elapsed":225839},{"rt":3303,"stimulus":"\n        <div class=\"response-container\">\n          <div class=\"response-instruction\">\n            <p>rotate the bar by using the left and right arrow keys.</p>\n            <p>when you are determined, press the Enter key.</p>\n          </div>\n          <div class=\"response-circle\">\n            <div class=\"response-fixation\"></div>\n            <div id=\"bar\" class=\"rotating-bar\"></div>\n          </div>\n        </div>\n      ","response":"Enter","trial_type":"html-keyboard-response","trial_index":77,"plugin_version":"2.1.0","time_elapsed":229142,"random_initial_angle":306,"response_angle_css":440,"response_angle_rdk":10,"angular_error_target":-123,"angular_error_distractor":-9,"target_direction":133,"target_group":"white","reward_points":0},{"rt":null,"stimulus":"\n          <p style=\"color: #FF3333;\">Your reward: 0 points</p>\n        ","response":null,"trial_type":"html-keyboard-response","trial_index":78,"plugin_version":"2.1.0","time_elapsed":231149},{"rt":null,"stimulus":"<div class=\"fixation\" style=\"font-size: 60px;\">+</div>","response":null,"trial_type":"html-keyboard-response","trial_index":79,"plugin_version":"2.1.0","time_elapsed":232163},{"phase":"learning-awareness","target_group":"white","condition_label":"W_H_vs_B_L_rep2","target_direction":151,"distractor_direction":47,"session_rotation":108,"rt":-1,"response":"","correct":false,"choices":"ALL_KEYS","correct_choice":["a"],"trial_duration":2000,"flip_timestamps":[],"response_ends_trial":false,"number_of_apertures":200,"number_of_dots":[1,1,1,1,1,1,1,1,1,1,1,1,1,1,1,1,1,1,1,1,1,1,1,1,1,1,1,1,1,1,1,1,1,1,1,1,1,1,1,1,1,1,1,1,1,1,1,1,1,1,1,1,1,1,1,1,1,1,1,1,1,1,1,1,1,1,1,1,1,1,1,1,1,1,1,1,1,1,1,1,1,1,1,1,1,1,1,1,1,1,1,1,1,1,1,1,1,1,1,1,1,1,1,1,1,1,1,1,1,1,1,1,1,1,1,1,1,1,1,1,1,1,1,1,1,1,1,1,1,1,1,1,1,1,1,1,1,1,1,1,1,1,1,1,1,1,1,1,1,1,1,1,1,1,1,1,1,1,1,1,1,1,1,1,1,1,1,1,1,1,1,1,1,1,1,1,1,1,1,1,1,1,1,1,1,1,1,1,1,1,1,1,1,1,1,1,1,1,1,1],"number_of_sets":1,"coherent_direction":[151,151,47,151,47,151,151,47,47,47,47,151,151,47,151,151,151,47,151,47,47,47,151,47,47,47,151,47,47,151,151,151,47,47,151,151,47,47,151,151,151,151,151,47,47,151,47,151,151,151,151,151,151,151,47,47,47,47,47,151,47,151,47,47,151,47,47,47,151,47,151,151,151,47,47,47,47,47,151,151,151,47,47,151,47,47,47,47,47,47,47,47,47,151,151,47,47,151,47,47,151,47,47,47,151,151,151,151,47,151,151,47,47,151,151,47,47,47,151,151,47,47,47,151,151,151,151,151,151,47,47,151,47,151,151,151,151,151,151,47,47,47,151,151,151,151,47,151,47,47,151,151,47,47,151,47,47,151,47,151,47,151,47,151,47,151,151,151,47,151,47,151,47,151,47,151,47,47,47,151,151,47,47,47,151,151,151,47,47,151,47,151,47,151,151,47,151,151,47,151],"coherence":1,"opposite_coherence":0,"dot_radius":2,"dot_side_length":1,"dot_life":-1,"move_distance":1,"aperture_width":300,"aperture_height":300,"dot_color":["white","white","black","white","black","white","white","black","black","black","black","white","white","black","white","white","white","black","white","black","black","black","white","black","black","black","white","black","black","white","white","white","black","black","white","white","black","black","white","white","white","white","white","black","black","white","black","white","white","white","white","white","white","white","black","black","black","black","black","white","black","white","black","black","white","black","black","black","white","black","white","white","white","black","black","black","black","black","white","white","white","black","black","white","black","black","black","black","black","black","black","black","black","white","white","black","black","white","black","black","white","black","black","black","white","white","white","white","black","white","white","black","black","white","white","black","black","black","white","white","black","black","black","white","white","white","white","white","white","black","black","white","black","white","white","white","white","white","white","black","black","black","white","white","white","white","black","white","black","black","white","white","black","black","white","black","black","white","black","white","black","white","black","white","black","white","white","white","black","white","black","white","black","white","black","white","black","black","black","white","white","black","black","black","white","white","white","black","black","white","black","white","black","white","white","black","white","white","black","white"],"dot_shape":"circle","background_color":"#AAA","RDK_type":3,"aperture_type":2,"reinsert_type":2,"frame_rate":13.28,"frame_rate_array":[5,10,14,14,14,14,14,13,14,14,14,13,14,15,12,14,13,14,13,14,13,14,13,13,13,15,13,13,13,14,13,12,13,13,15,13,13,13,13,15,13,13,12,13,15,11,15,14,12,13,15,11,15,13,12,13,14,13,14,13,13,13,13,14,14,13,13,13,13,13,14,14,12,14,14,14,13,13,14,13,13,14,13,13,13,14,14,13,13,12,17,10,13,14,14,12,14,13,14,13,14,13,13,14,13,13,13,13,13,13,13,14,13,14,13,13,14,13,13,14,14,13,14,13,13,12,13,14,13,13,13,13,14,14,14,13,16,10,14,13,13,13,13,14,13,13,14,13,13,15],"number_of_frames":150,"aperture_center_x":960,"aperture_center_y":540,"fixation_cross":true,"fixation_cross_width":15,"fixation_cross_height":15,"fixation_cross_color":"#111","fixation_cross_thickness":1,"border":true,"border_thickness":2,"border_color":"transparent","canvas_width":1920,"canvas_height":1080,"trial_type":"rdk","trial_index":80,"plugin_version":"2.0.0","time_elapsed":234171},{"rt":1218,"stimulus":"\n        <div class=\"response-container\">\n          <div class=\"response-instruction\">\n            <p>rotate the bar by using the left and right arrow keys.</p>\n            <p>when you are determined, press the Enter key.</p>\n          </div>\n          <div class=\"response-circle\">\n            <div class=\"response-fixation\"></div>\n            <div id=\"bar\" class=\"rotating-bar\"></div>\n          </div>\n        </div>\n      ","response":"Enter","trial_type":"html-keyboard-response","trial_index":81,"plugin_version":"2.1.0","time_elapsed":235390,"random_initial_angle":50,"response_angle_css":50,"response_angle_rdk":40,"angular_error_target":-111,"angular_error_distractor":-7,"target_direction":151,"target_group":"white","reward_points":0},{"rt":null,"stimulus":"\n          <p style=\"color: #FF3333;\">Your reward: 0 points</p>\n        ","response":null,"trial_type":"html-keyboard-response","trial_index":82,"plugin_version":"2.1.0","time_elapsed":237401},{"rt":null,"stimulus":"<div class=\"fixation\" style=\"font-size: 60px;\">+</div>","response":null,"trial_type":"html-keyboard-response","trial_index":83,"plugin_version":"2.1.0","time_elapsed":238406},{"phase":"learning-awareness","target_group":"white","condition_label":"W_H_vs_B_L_rep21","target_direction":138,"distractor_direction":29,"session_rotation":108,"rt":-1,"response":"","correct":false,"choices":"ALL_KEYS","correct_choice":["a"],"trial_duration":2000,"flip_timestamps":[],"response_ends_trial":false,"number_of_apertures":200,"number_of_dots":[1,1,1,1,1,1,1,1,1,1,1,1,1,1,1,1,1,1,1,1,1,1,1,1,1,1,1,1,1,1,1,1,1,1,1,1,1,1,1,1,1,1,1,1,1,1,1,1,1,1,1,1,1,1,1,1,1,1,1,1,1,1,1,1,1,1,1,1,1,1,1,1,1,1,1,1,1,1,1,1,1,1,1,1,1,1,1,1,1,1,1,1,1,1,1,1,1,1,1,1,1,1,1,1,1,1,1,1,1,1,1,1,1,1,1,1,1,1,1,1,1,1,1,1,1,1,1,1,1,1,1,1,1,1,1,1,1,1,1,1,1,1,1,1,1,1,1,1,1,1,1,1,1,1,1,1,1,1,1,1,1,1,1,1,1,1,1,1,1,1,1,1,1,1,1,1,1,1,1,1,1,1,1,1,1,1,1,1,1,1,1,1,1,1,1,1,1,1,1,1],"number_of_sets":1,"coherent_direction":[29,29,29,29,138,29,138,29,138,29,138,138,138,138,29,29,138,138,29,29,29,29,138,138,138,29,138,138,29,29,29,138,29,29,29,29,138,29,29,29,138,29,138,138,138,138,29,29,138,29,138,29,29,138,138,138,138,138,29,138,29,29,29,138,29,138,29,138,29,138,138,138,29,29,29,138,29,29,29,138,138,138,29,138,29,29,29,138,138,29,138,29,138,138,29,138,29,138,138,29,138,138,29,29,29,29,29,29,29,138,138,138,29,138,138,29,29,138,29,29,29,29,138,29,29,138,29,138,29,29,29,138,29,29,29,138,29,29,138,138,29,138,138,138,29,29,138,138,138,29,138,138,29,138,29,138,138,138,138,138,138,29,138,29,29,138,138,138,29,138,138,29,138,138,29,29,138,138,138,29,29,29,138,29,29,138,138,138,29,138,138,29,29,29,138,138,138,29,138,138],"coherence":1,"opposite_coherence":0,"dot_radius":2,"dot_side_length":1,"dot_life":-1,"move_distance":1,"aperture_width":300,"aperture_height":300,"dot_color":["black","black","black","black","white","black","white","black","white","black","white","white","white","white","black","black","white","white","black","black","black","black","white","white","white","black","white","white","black","black","black","white","black","black","black","black","white","black","black","black","white","black","white","white","white","white","black","black","white","black","white","black","black","white","white","white","white","white","black","white","black","black","black","white","black","white","black","white","black","white","white","white","black","black","black","white","black","black","black","white","white","white","black","white","black","black","black","white","white","black","white","black","white","white","black","white","black","white","white","black","white","white","black","black","black","black","black","black","black","white","white","white","black","white","white","black","black","white","black","black","black","black","white","black","black","white","black","white","black","black","black","white","black","black","black","white","black","black","white","white","black","white","white","white","black","black","white","white","white","black","white","white","black","white","black","white","white","white","white","white","white","black","white","black","black","white","white","white","black","white","white","black","white","white","black","black","white","white","white","black","black","black","white","black","black","white","white","white","black","white","white","black","black","black","white","white","white","black","white","white"],"dot_shape":"circle","background_color":"#AAA","RDK_type":3,"aperture_type":2,"reinsert_type":2,"frame_rate":13.23841059602649,"frame_rate_array":[5,17,7,15,13,13,14,13,13,13,14,12,14,13,14,14,13,14,12,13,14,14,13,14,13,13,13,14,13,13,13,14,13,14,13,13,13,14,12,14,13,14,13,13,14,13,15,13,13,13,13,14,14,13,13,14,13,13,14,12,14,14,14,12,14,14,14,12,14,13,14,13,13,13,14,16,10,14,13,14,13,13,13,14,13,12,13,14,13,13,14,13,13,13,13,13,14,13,14,13,14,13,13,13,15,12,13,14,13,14,13,14,13,13,13,13,12,13,13,15,13,13,13,13,13,14,13,13,13,13,14,13,13,13,12,14,14,14,13,13,13,13,15,13,13,14,13,13,13,13,13],"number_of_frames":151,"aperture_center_x":960,"aperture_center_y":540,"fixation_cross":true,"fixation_cross_width":15,"fixation_cross_height":15,"fixation_cross_color":"#111","fixation_cross_thickness":1,"border":true,"border_thickness":2,"border_color":"transparent","canvas_width":1920,"canvas_height":1080,"trial_type":"rdk","trial_index":84,"plugin_version":"2.0.0","time_elapsed":240417},{"rt":2844,"stimulus":"\n        <div class=\"response-container\">\n          <div class=\"response-instruction\">\n            <p>rotate the bar by using the left and right arrow keys.</p>\n            <p>when you are determined, press the Enter key.</p>\n          </div>\n          <div class=\"response-circle\">\n            <div class=\"response-fixation\"></div>\n            <div id=\"bar\" class=\"rotating-bar\"></div>\n          </div>\n        </div>\n      ","response":"Enter","trial_type":"html-keyboard-response","trial_index":85,"plugin_version":"2.1.0","time_elapsed":243262,"random_initial_angle":309,"response_angle_css":427,"response_angle_rdk":23,"angular_error_target":-115,"angular_error_distractor":-6,"target_direction":138,"target_group":"white","reward_points":0},{"rt":null,"stimulus":"\n          <p style=\"color: #FF3333;\">Your reward: 0 points</p>\n        ","response":null,"trial_type":"html-keyboard-response","trial_index":86,"plugin_version":"2.1.0","time_elapsed":245270},{"rt":null,"stimulus":"<div class=\"fixation\" style=\"font-size: 60px;\">+</div>","response":null,"trial_type":"html-keyboard-response","trial_index":87,"plugin_version":"2.1.0","time_elapsed":246282},{"phase":"learning-awareness","target_group":"black","condition_label":"B_H_vs_W_L_rep5","target_direction":227,"distractor_direction":330,"session_rotation":108,"rt":-1,"response":"","correct":false,"choices":"ALL_KEYS","correct_choice":["a"],"trial_duration":2000,"flip_timestamps":[],"response_ends_trial":false,"number_of_apertures":200,"number_of_dots":[1,1,1,1,1,1,1,1,1,1,1,1,1,1,1,1,1,1,1,1,1,1,1,1,1,1,1,1,1,1,1,1,1,1,1,1,1,1,1,1,1,1,1,1,1,1,1,1,1,1,1,1,1,1,1,1,1,1,1,1,1,1,1,1,1,1,1,1,1,1,1,1,1,1,1,1,1,1,1,1,1,1,1,1,1,1,1,1,1,1,1,1,1,1,1,1,1,1,1,1,1,1,1,1,1,1,1,1,1,1,1,1,1,1,1,1,1,1,1,1,1,1,1,1,1,1,1,1,1,1,1,1,1,1,1,1,1,1,1,1,1,1,1,1,1,1,1,1,1,1,1,1,1,1,1,1,1,1,1,1,1,1,1,1,1,1,1,1,1,1,1,1,1,1,1,1,1,1,1,1,1,1,1,1,1,1,1,1,1,1,1,1,1,1,1,1,1,1,1,1],"number_of_sets":1,"coherent_direction":[227,227,330,330,330,330,330,227,330,330,330,227,227,227,330,227,330,330,227,330,227,330,227,330,330,227,227,227,227,330,227,330,227,330,227,227,227,330,227,330,227,227,227,330,227,330,227,227,330,227,227,330,330,330,330,330,330,227,227,330,227,227,227,330,227,330,330,227,330,227,330,227,330,227,330,330,227,227,330,330,330,227,227,227,227,227,227,227,227,227,330,330,227,227,330,227,227,227,330,330,330,330,330,330,330,330,330,227,227,330,330,227,330,227,227,330,227,330,330,227,227,330,227,330,330,227,227,227,330,227,330,227,227,227,330,330,330,330,227,330,227,227,330,227,330,330,330,330,227,330,227,330,330,227,330,227,227,330,330,227,227,227,330,227,227,227,227,227,330,227,330,330,227,227,227,227,227,330,330,330,330,330,330,330,330,330,330,330,330,227,227,330,227,330,330,227,227,330,227,227],"coherence":1,"opposite_coherence":0,"dot_radius":2,"dot_side_length":1,"dot_life":-1,"move_distance":1,"aperture_width":300,"aperture_height":300,"dot_color":["black","black","white","white","white","white","white","black","white","white","white","black","black","black","white","black","white","white","black","white","black","white","black","white","white","black","black","black","black","white","black","white","black","white","black","black","black","white","black","white","black","black","black","white","black","white","black","black","white","black","black","white","white","white","white","white","white","black","black","white","black","black","black","white","black","white","white","black","white","black","white","black","white","black","white","white","black","black","white","white","white","black","black","black","black","black","black","black","black","black","white","white","black","black","white","black","black","black","white","white","white","white","white","white","white","white","white","black","black","white","white","black","white","black","black","white","black","white","white","black","black","white","black","white","white","black","black","black","white","black","white","black","black","black","white","white","white","white","black","white","black","black","white","black","white","white","white","white","black","white","black","white","white","black","white","black","black","white","white","black","black","black","white","black","black","black","black","black","white","black","white","white","black","black","black","black","black","white","white","white","white","white","white","white","white","white","white","white","white","black","black","white","black","white","white","black","black","white","black","black"],"dot_shape":"circle","background_color":"#AAA","RDK_type":3,"aperture_type":2,"reinsert_type":2,"frame_rate":13.186666666666667,"frame_rate_array":[10,11,15,13,13,14,13,13,14,14,13,14,13,13,14,14,13,13,13,14,13,13,13,14,13,13,13,13,13,14,13,13,13,13,14,13,14,13,13,13,13,14,13,13,14,14,12,13,13,15,13,13,13,13,14,11,14,14,14,13,13,13,13,15,12,13,14,13,14,13,13,14,12,13,13,13,13,13,13,13,13,14,13,14,13,14,13,13,14,14,13,14,13,12,13,13,14,13,13,13,13,12,13,14,13,13,13,13,13,13,13,14,13,13,15,13,13,13,12,13,13,13,13,13,13,13,14,13,13,13,13,13,13,13,13,13,13,13,13,14,13,13,13,13,13,13,13,14,13,13],"number_of_frames":150,"aperture_center_x":960,"aperture_center_y":540,"fixation_cross":true,"fixation_cross_width":15,"fixation_cross_height":15,"fixation_cross_color":"#111","fixation_cross_thickness":1,"border":true,"border_thickness":2,"border_color":"transparent","canvas_width":1920,"canvas_height":1080,"trial_type":"rdk","trial_index":88,"plugin_version":"2.0.0","time_elapsed":248285},{"rt":3041,"stimulus":"\n        <div class=\"response-container\">\n          <div class=\"response-instruction\">\n            <p>rotate the bar by using the left and right arrow keys.</p>\n            <p>when you are determined, press the Enter key.</p>\n          </div>\n          <div class=\"response-circle\">\n            <div class=\"response-fixation\"></div>\n            <div id=\"bar\" class=\"rotating-bar\"></div>\n          </div>\n        </div>\n      ","response":"Enter","trial_type":"html-keyboard-response","trial_index":89,"plugin_version":"2.1.0","time_elapsed":251326,"random_initial_angle":101,"response_angle_css":234,"response_angle_rdk":216,"angular_error_target":-11,"angular_error_distractor":-114,"target_direction":227,"target_group":"black","reward_points":7},{"rt":null,"stimulus":"\n          <p style=\"color: #00FF00;\">Your reward: 7 points</p>\n        ","response":null,"trial_type":"html-keyboard-response","trial_index":90,"plugin_version":"2.1.0","time_elapsed":253327},{"rt":null,"stimulus":"<div class=\"fixation\" style=\"font-size: 60px;\">+</div>","response":null,"trial_type":"html-keyboard-response","trial_index":91,"plugin_version":"2.1.0","time_elapsed":254342},{"phase":"learning-awareness","target_group":"white","condition_label":"W_H_vs_B_L_rep5","target_direction":141,"distractor_direction":36,"session_rotation":108,"rt":-1,"response":"","correct":false,"choices":"ALL_KEYS","correct_choice":["a"],"trial_duration":2000,"flip_timestamps":[],"response_ends_trial":false,"number_of_apertures":200,"number_of_dots":[1,1,1,1,1,1,1,1,1,1,1,1,1,1,1,1,1,1,1,1,1,1,1,1,1,1,1,1,1,1,1,1,1,1,1,1,1,1,1,1,1,1,1,1,1,1,1,1,1,1,1,1,1,1,1,1,1,1,1,1,1,1,1,1,1,1,1,1,1,1,1,1,1,1,1,1,1,1,1,1,1,1,1,1,1,1,1,1,1,1,1,1,1,1,1,1,1,1,1,1,1,1,1,1,1,1,1,1,1,1,1,1,1,1,1,1,1,1,1,1,1,1,1,1,1,1,1,1,1,1,1,1,1,1,1,1,1,1,1,1,1,1,1,1,1,1,1,1,1,1,1,1,1,1,1,1,1,1,1,1,1,1,1,1,1,1,1,1,1,1,1,1,1,1,1,1,1,1,1,1,1,1,1,1,1,1,1,1,1,1,1,1,1,1,1,1,1,1,1,1],"number_of_sets":1,"coherent_direction":[36,36,36,36,36,141,36,36,36,36,36,141,36,36,36,141,36,141,141,36,141,36,141,141,141,141,141,36,141,141,36,141,141,141,36,141,36,141,36,141,36,36,141,36,141,36,141,36,141,141,141,36,141,36,36,141,36,141,141,141,141,36,36,36,141,141,141,36,36,141,141,141,141,141,141,141,141,36,36,36,141,141,141,36,141,141,36,36,36,36,141,141,141,141,36,141,141,141,141,36,36,141,141,141,36,36,36,141,36,141,36,36,36,36,36,141,141,141,36,36,141,36,141,36,36,141,141,141,36,36,36,36,36,36,36,141,141,36,36,141,141,141,141,36,141,36,141,36,36,36,36,36,36,36,141,36,36,36,36,141,36,36,36,36,141,141,141,36,141,141,141,141,141,36,141,36,141,36,36,36,36,36,141,141,36,141,141,36,141,36,36,141,36,141,36,141,141,141,141,141],"coherence":1,"opposite_coherence":0,"dot_radius":2,"dot_side_length":1,"dot_life":-1,"move_distance":1,"aperture_width":300,"aperture_height":300,"dot_color":["black","black","black","black","black","white","black","black","black","black","black","white","black","black","black","white","black","white","white","black","white","black","white","white","white","white","white","black","white","white","black","white","white","white","black","white","black","white","black","white","black","black","white","black","white","black","white","black","white","white","white","black","white","black","black","white","black","white","white","white","white","black","black","black","white","white","white","black","black","white","white","white","white","white","white","white","white","black","black","black","white","white","white","black","white","white","black","black","black","black","white","white","white","white","black","white","white","white","white","black","black","white","white","white","black","black","black","white","black","white","black","black","black","black","black","white","white","white","black","black","white","black","white","black","black","white","white","white","black","black","black","black","black","black","black","white","white","black","black","white","white","white","white","black","white","black","white","black","black","black","black","black","black","black","white","black","black","black","black","white","black","black","black","black","white","white","white","black","white","white","white","white","white","black","white","black","white","black","black","black","black","black","white","white","black","white","white","black","white","black","black","white","black","white","black","white","white","white","white","white"],"dot_shape":"circle","background_color":"#AAA","RDK_type":3,"aperture_type":2,"reinsert_type":2,"frame_rate":13.313333333333333,"frame_rate_array":[5,14,13,15,14,13,13,14,14,13,13,17,10,13,13,13,14,12,14,13,14,14,13,13,13,15,13,13,15,13,13,13,13,13,15,13,13,13,13,13,14,14,13,13,14,13,13,15,13,13,13,15,14,13,13,13,13,14,13,14,13,14,13,13,13,14,13,13,13,13,14,14,13,13,13,13,15,13,13,13,13,14,13,13,12,14,14,13,13,14,13,15,13,13,13,15,13,13,13,13,14,12,14,13,13,13,13,14,13,15,12,13,13,15,14,12,14,13,13,14,13,14,13,13,15,13,13,13,13,12,14,13,14,12,14,13,14,13,13,13,14,13,14,13,13,13,14,13,13,14],"number_of_frames":150,"aperture_center_x":960,"aperture_center_y":540,"fixation_cross":true,"fixation_cross_width":15,"fixation_cross_height":15,"fixation_cross_color":"#111","fixation_cross_thickness":1,"border":true,"border_thickness":2,"border_color":"transparent","canvas_width":1920,"canvas_height":1080,"trial_type":"rdk","trial_index":92,"plugin_version":"2.0.0","time_elapsed":256350},{"rt":1862,"stimulus":"\n        <div class=\"response-container\">\n          <div class=\"response-instruction\">\n            <p>rotate the bar by using the left and right arrow keys.</p>\n            <p>when you are determined, press the Enter key.</p>\n          </div>\n          <div class=\"response-circle\">\n            <div class=\"response-fixation\"></div>\n            <div id=\"bar\" class=\"rotating-bar\"></div>\n          </div>\n        </div>\n      ","response":"Enter","trial_type":"html-keyboard-response","trial_index":93,"plugin_version":"2.1.0","time_elapsed":258213,"random_initial_angle":42,"response_angle_css":61,"response_angle_rdk":29,"angular_error_target":-112,"angular_error_distractor":-7,"target_direction":141,"target_group":"white","reward_points":0},{"rt":null,"stimulus":"\n          <p style=\"color: #FF3333;\">Your reward: 0 points</p>\n        ","response":null,"trial_type":"html-keyboard-response","trial_index":94,"plugin_version":"2.1.0","time_elapsed":260222},{"rt":null,"stimulus":"<div class=\"fixation\" style=\"font-size: 60px;\">+</div>","response":null,"trial_type":"html-keyboard-response","trial_index":95,"plugin_version":"2.1.0","time_elapsed":261224},{"phase":"learning-awareness","target_group":"white","condition_label":"W_H_vs_B_L_rep20","target_direction":120,"distractor_direction":21,"session_rotation":108,"rt":-1,"response":"","correct":false,"choices":"ALL_KEYS","correct_choice":["a"],"trial_duration":2000,"flip_timestamps":[],"response_ends_trial":false,"number_of_apertures":200,"number_of_dots":[1,1,1,1,1,1,1,1,1,1,1,1,1,1,1,1,1,1,1,1,1,1,1,1,1,1,1,1,1,1,1,1,1,1,1,1,1,1,1,1,1,1,1,1,1,1,1,1,1,1,1,1,1,1,1,1,1,1,1,1,1,1,1,1,1,1,1,1,1,1,1,1,1,1,1,1,1,1,1,1,1,1,1,1,1,1,1,1,1,1,1,1,1,1,1,1,1,1,1,1,1,1,1,1,1,1,1,1,1,1,1,1,1,1,1,1,1,1,1,1,1,1,1,1,1,1,1,1,1,1,1,1,1,1,1,1,1,1,1,1,1,1,1,1,1,1,1,1,1,1,1,1,1,1,1,1,1,1,1,1,1,1,1,1,1,1,1,1,1,1,1,1,1,1,1,1,1,1,1,1,1,1,1,1,1,1,1,1,1,1,1,1,1,1,1,1,1,1,1,1],"number_of_sets":1,"coherent_direction":[21,21,120,120,120,21,120,120,120,21,120,120,120,21,21,120,21,21,120,21,120,21,120,21,120,120,120,21,21,21,120,120,120,21,120,21,21,21,21,120,120,120,120,120,21,21,21,120,120,120,120,120,21,120,120,21,21,21,21,21,21,120,21,21,120,120,120,21,21,120,21,120,120,120,120,120,21,21,21,21,21,120,120,120,21,21,120,120,21,120,21,21,120,120,120,120,21,120,120,21,120,120,21,21,120,21,120,120,21,21,21,120,120,120,120,21,21,21,21,120,21,120,120,120,21,21,21,120,21,21,120,120,21,120,21,21,120,120,21,120,21,120,120,21,21,21,21,120,21,21,21,21,21,21,21,21,21,120,21,120,21,21,120,21,21,21,120,21,21,120,120,21,21,21,21,120,21,21,120,120,120,120,120,120,21,120,120,21,21,120,21,120,120,120,21,120,120,120,120,21],"coherence":1,"opposite_coherence":0,"dot_radius":2,"dot_side_length":1,"dot_life":-1,"move_distance":1,"aperture_width":300,"aperture_height":300,"dot_color":["black","black","white","white","white","black","white","white","white","black","white","white","white","black","black","white","black","black","white","black","white","black","white","black","white","white","white","black","black","black","white","white","white","black","white","black","black","black","black","white","white","white","white","white","black","black","black","white","white","white","white","white","black","white","white","black","black","black","black","black","black","white","black","black","white","white","white","black","black","white","black","white","white","white","white","white","black","black","black","black","black","white","white","white","black","black","white","white","black","white","black","black","white","white","white","white","black","white","white","black","white","white","black","black","white","black","white","white","black","black","black","white","white","white","white","black","black","black","black","white","black","white","white","white","black","black","black","white","black","black","white","white","black","white","black","black","white","white","black","white","black","white","white","black","black","black","black","white","black","black","black","black","black","black","black","black","black","white","black","white","black","black","white","black","black","black","white","black","black","white","white","black","black","black","black","white","black","black","white","white","white","white","white","white","black","white","white","black","black","white","black","white","white","white","black","white","white","white","white","black"],"dot_shape":"circle","background_color":"#AAA","RDK_type":3,"aperture_type":2,"reinsert_type":2,"frame_rate":17.654867256637168,"frame_rate_array":[5,12,13,15,14,14,13,14,13,13,14,13,14,12,15,13,13,14,13,13,15,14,14,12,13,13,13,13,14,13,13,12,14,12,14,14,12,14,13,14,14,14,14,13,13,14,12,14,13,13,13,13,15,14,12,14,13,14,12,14,14,13,13,13,14,13,13,14,13,14,13,13,14,13,13,13,13,14,13,14,14,13,13,14,13,13,14,13,13,14,13,13,14,14,13,13,13,506,14,14,12,14,13,15,12,13,14,15,12,14,14,13,12],"number_of_frames":113,"aperture_center_x":960,"aperture_center_y":540,"fixation_cross":true,"fixation_cross_width":15,"fixation_cross_height":15,"fixation_cross_color":"#111","fixation_cross_thickness":1,"border":true,"border_thickness":2,"border_color":"transparent","canvas_width":1920,"canvas_height":1080,"trial_type":"rdk","trial_index":96,"plugin_version":"2.0.0","time_elapsed":263229},{"rt":2448,"stimulus":"\n        <div class=\"response-container\">\n          <div class=\"response-instruction\">\n            <p>rotate the bar by using the left and right arrow keys.</p>\n            <p>when you are determined, press the Enter key.</p>\n          </div>\n          <div class=\"response-circle\">\n            <div class=\"response-fixation\"></div>\n            <div id=\"bar\" class=\"rotating-bar\"></div>\n          </div>\n        </div>\n      ","response":"Enter","trial_type":"html-keyboard-response","trial_index":97,"plugin_version":"2.1.0","time_elapsed":265678,"random_initial_angle":355,"response_angle_css":437,"response_angle_rdk":13,"angular_error_target":-107,"angular_error_distractor":-8,"target_direction":120,"target_group":"white","reward_points":0},{"rt":null,"stimulus":"\n          <p style=\"color: #FF3333;\">Your reward: 0 points</p>\n        ","response":null,"trial_type":"html-keyboard-response","trial_index":98,"plugin_version":"2.1.0","time_elapsed":267693},{"rt":null,"stimulus":"<div class=\"fixation\" style=\"font-size: 60px;\">+</div>","response":null,"trial_type":"html-keyboard-response","trial_index":99,"plugin_version":"2.1.0","time_elapsed":268708},{"phase":"learning-awareness","target_group":"white","condition_label":"W_H_vs_B_L_rep3","target_direction":144,"distractor_direction":39,"session_rotation":108,"rt":-1,"response":"","correct":false,"choices":"ALL_KEYS","correct_choice":["a"],"trial_duration":2000,"flip_timestamps":[],"response_ends_trial":false,"number_of_apertures":200,"number_of_dots":[1,1,1,1,1,1,1,1,1,1,1,1,1,1,1,1,1,1,1,1,1,1,1,1,1,1,1,1,1,1,1,1,1,1,1,1,1,1,1,1,1,1,1,1,1,1,1,1,1,1,1,1,1,1,1,1,1,1,1,1,1,1,1,1,1,1,1,1,1,1,1,1,1,1,1,1,1,1,1,1,1,1,1,1,1,1,1,1,1,1,1,1,1,1,1,1,1,1,1,1,1,1,1,1,1,1,1,1,1,1,1,1,1,1,1,1,1,1,1,1,1,1,1,1,1,1,1,1,1,1,1,1,1,1,1,1,1,1,1,1,1,1,1,1,1,1,1,1,1,1,1,1,1,1,1,1,1,1,1,1,1,1,1,1,1,1,1,1,1,1,1,1,1,1,1,1,1,1,1,1,1,1,1,1,1,1,1,1,1,1,1,1,1,1,1,1,1,1,1,1],"number_of_sets":1,"coherent_direction":[144,39,144,144,39,144,39,39,144,39,144,144,144,144,144,39,39,144,39,144,39,144,144,39,144,39,39,144,144,39,144,39,39,39,144,144,144,39,39,39,39,144,144,144,144,144,144,39,144,39,39,144,39,39,144,39,144,39,144,39,144,144,144,144,39,39,144,144,144,39,39,144,144,39,39,39,39,39,144,39,144,39,144,144,39,39,144,144,144,39,39,39,144,144,39,144,144,144,39,39,144,144,39,39,39,39,144,39,144,144,39,144,39,144,144,39,39,144,144,39,144,39,39,144,144,144,39,144,144,39,39,39,144,39,39,144,39,39,144,144,144,39,144,39,144,144,144,39,144,39,144,39,144,39,39,39,144,39,144,39,144,39,144,39,144,144,39,39,39,144,39,39,144,144,39,39,39,39,39,144,144,39,39,39,39,39,144,144,144,39,39,39,144,39,39,39,144,144,144,144],"coherence":1,"opposite_coherence":0,"dot_radius":2,"dot_side_length":1,"dot_life":-1,"move_distance":1,"aperture_width":300,"aperture_height":300,"dot_color":["white","black","white","white","black","white","black","black","white","black","white","white","white","white","white","black","black","white","black","white","black","white","white","black","white","black","black","white","white","black","white","black","black","black","white","white","white","black","black","black","black","white","white","white","white","white","white","black","white","black","black","white","black","black","white","black","white","black","white","black","white","white","white","white","black","black","white","white","white","black","black","white","white","black","black","black","black","black","white","black","white","black","white","white","black","black","white","white","white","black","black","black","white","white","black","white","white","white","black","black","white","white","black","black","black","black","white","black","white","white","black","white","black","white","white","black","black","white","white","black","white","black","black","white","white","white","black","white","white","black","black","black","white","black","black","white","black","black","white","white","white","black","white","black","white","white","white","black","white","black","white","black","white","black","black","black","white","black","white","black","white","black","white","black","white","white","black","black","black","white","black","black","white","white","black","black","black","black","black","white","white","black","black","black","black","black","white","white","white","black","black","black","white","black","black","black","white","white","white","white"],"dot_shape":"circle","background_color":"#AAA","RDK_type":3,"aperture_type":2,"reinsert_type":2,"frame_rate":13.537414965986395,"frame_rate_array":[5,13,14,15,13,14,13,13,14,12,14,13,13,14,12,14,13,14,14,13,13,16,10,13,14,13,13,13,13,13,14,14,13,13,13,13,14,13,13,13,13,13,13,14,13,14,14,12,14,13,13,14,13,13,13,14,12,14,13,15,13,13,14,14,13,12,13,14,14,13,14,12,14,14,12,13,13,13,13,14,13,14,12,15,12,14,14,13,13,14,14,13,14,13,13,14,12,13,14,13,13,14,13,14,13,14,12,14,13,13,22,6,12,14,18,16,6,61,8,11,13,15,13,14,13,14,12,14,13,14,12,14,13,14,15,13,12,13,14,13,13,14,12,14,13,14,12],"number_of_frames":147,"aperture_center_x":960,"aperture_center_y":540,"fixation_cross":true,"fixation_cross_width":15,"fixation_cross_height":15,"fixation_cross_color":"#111","fixation_cross_thickness":1,"border":true,"border_thickness":2,"border_color":"transparent","canvas_width":1920,"canvas_height":1080,"trial_type":"rdk","trial_index":100,"plugin_version":"2.0.0","time_elapsed":270710},{"rt":2743,"stimulus":"\n        <div class=\"response-container\">\n          <div class=\"response-instruction\">\n            <p>rotate the bar by using the left and right arrow keys.</p>\n            <p>when you are determined, press the Enter key.</p>\n          </div>\n          <div class=\"response-circle\">\n            <div class=\"response-fixation\"></div>\n            <div id=\"bar\" class=\"rotating-bar\"></div>\n          </div>\n        </div>\n      ","response":"Enter","trial_type":"html-keyboard-response","trial_index":101,"plugin_version":"2.1.0","time_elapsed":273453,"random_initial_angle":43,"response_angle_css":81,"response_angle_rdk":9,"angular_error_target":-135,"angular_error_distractor":-30,"target_direction":144,"target_group":"white","reward_points":0},{"rt":null,"stimulus":"\n          <p style=\"color: #FF3333;\">Your reward: 0 points</p>\n        ","response":null,"trial_type":"html-keyboard-response","trial_index":102,"plugin_version":"2.1.0","time_elapsed":275469},{"rt":null,"stimulus":"<div class=\"fixation\" style=\"font-size: 60px;\">+</div>","response":null,"trial_type":"html-keyboard-response","trial_index":103,"plugin_version":"2.1.0","time_elapsed":276478},{"phase":"learning-awareness","target_group":"white","condition_label":"W_H_vs_B_L_rep4","target_direction":145,"distractor_direction":41,"session_rotation":108,"rt":-1,"response":"","correct":false,"choices":"ALL_KEYS","correct_choice":["a"],"trial_duration":2000,"flip_timestamps":[],"response_ends_trial":false,"number_of_apertures":200,"number_of_dots":[1,1,1,1,1,1,1,1,1,1,1,1,1,1,1,1,1,1,1,1,1,1,1,1,1,1,1,1,1,1,1,1,1,1,1,1,1,1,1,1,1,1,1,1,1,1,1,1,1,1,1,1,1,1,1,1,1,1,1,1,1,1,1,1,1,1,1,1,1,1,1,1,1,1,1,1,1,1,1,1,1,1,1,1,1,1,1,1,1,1,1,1,1,1,1,1,1,1,1,1,1,1,1,1,1,1,1,1,1,1,1,1,1,1,1,1,1,1,1,1,1,1,1,1,1,1,1,1,1,1,1,1,1,1,1,1,1,1,1,1,1,1,1,1,1,1,1,1,1,1,1,1,1,1,1,1,1,1,1,1,1,1,1,1,1,1,1,1,1,1,1,1,1,1,1,1,1,1,1,1,1,1,1,1,1,1,1,1,1,1,1,1,1,1,1,1,1,1,1,1],"number_of_sets":1,"coherent_direction":[41,41,145,41,41,41,41,41,41,41,145,41,145,41,41,145,41,41,145,41,145,41,145,145,41,145,41,41,145,41,145,145,145,41,145,41,41,145,41,145,41,41,41,41,41,145,41,41,41,145,41,145,145,41,145,145,145,145,145,41,145,145,145,145,145,145,145,41,145,145,41,41,145,145,41,41,145,41,145,145,41,41,145,41,41,41,145,41,145,41,41,145,145,41,41,145,145,145,41,41,41,145,41,41,41,145,145,41,41,145,145,41,145,41,145,145,145,145,145,145,41,41,41,145,145,145,145,145,145,145,41,41,41,145,145,41,145,145,145,145,41,145,145,41,145,41,145,145,41,41,145,41,41,41,41,145,41,145,145,41,41,145,41,145,145,41,41,145,41,41,41,41,145,41,145,41,145,145,41,41,41,41,145,41,145,41,41,145,145,41,145,145,41,41,145,41,145,145,145,145],"coherence":1,"opposite_coherence":0,"dot_radius":2,"dot_side_length":1,"dot_life":-1,"move_distance":1,"aperture_width":300,"aperture_height":300,"dot_color":["black","black","white","black","black","black","black","black","black","black","white","black","white","black","black","white","black","black","white","black","white","black","white","white","black","white","black","black","white","black","white","white","white","black","white","black","black","white","black","white","black","black","black","black","black","white","black","black","black","white","black","white","white","black","white","white","white","white","white","black","white","white","white","white","white","white","white","black","white","white","black","black","white","white","black","black","white","black","white","white","black","black","white","black","black","black","white","black","white","black","black","white","white","black","black","white","white","white","black","black","black","white","black","black","black","white","white","black","black","white","white","black","white","black","white","white","white","white","white","white","black","black","black","white","white","white","white","white","white","white","black","black","black","white","white","black","white","white","white","white","black","white","white","black","white","black","white","white","black","black","white","black","black","black","black","white","black","white","white","black","black","white","black","white","white","black","black","white","black","black","black","black","white","black","white","black","white","white","black","black","black","black","white","black","white","black","black","white","white","black","white","white","black","black","white","black","white","white","white","white"],"dot_shape":"circle","background_color":"#AAA","RDK_type":3,"aperture_type":2,"reinsert_type":2,"frame_rate":13.253333333333