[{"rt":1766,"stimulus":"Welcome to the experiment. Press any key to begin.","response":" ","trial_type":"html-keyboard-response","trial_index":0,"plugin_version":"2.1.0","time_elapsed":1768},{"rt":45272,"stimulus":"\n        <div class=\"instructions-container\">\n          <h2>Instructions</h2>\n\n          <p>\n          In this experiment, you will see <strong>two Random Dot Kinematograms (RDKs)</strong> displayed simultaneously.\n          </p>\n\n          <p>\n          An RDK is a visual stimulus consisting of many small dots that move coherently in a single direction. \n          In this experiment, the dots will be either <strong>white</strong> or <strong>black</strong> \n          (see the short demo below for an example of an RDK stimulus).\n          </p>\n\n          <p>\n          On each trial, the two RDKs will move in different directions. \n          Your task is to decide <strong>which RDK appears to contain more dots</strong>.\n          </p>\n\n          <p>\n          The RDK that you judge to have more dots is called the <strong>target RDK</strong>. \n          For example, if the white RDK appears to have more dots than the black RDK, \n          you should report the motion direction of the white RDK.\n          </p>\n\n          <p>\n          After viewing the RDKs, you will rotate a bar to indicate the perceived direction of the target RDK \n          using the <strong>left</strong> and <strong>right arrow keys</strong>. \n          Press <strong>Enter</strong> when you are satisfied with your response.\n          When the bar is held down, the rotation speed increases.\n          </p>\n\n          <p>\n          You will receive points based on the <strong>accuracy of your response</strong>, \n          and your final <strong>bonus reward</strong> may depend on your overall performance. \n          Please try to respond as accurately as possible.\n          </p>\n\n          <p>\n          You will first complete <strong>16 practice trials</strong>. \n          Press the <strong>Enter</strong> key to start the practice phase.\n          </p>\n\n          <canvas id=\"instruction-demo-rdk\" width=\"200\" height=\"200\"style=\"display:block;margin:12px auto; border-radius: 50%;\"></canvas>\n        </div>\n      ","response":"Enter","trial_type":"html-keyboard-response","trial_index":1,"plugin_version":"2.1.0","time_elapsed":47043},{"rt":null,"stimulus":"<div class=\"fixation\" style=\"font-size: 60px;\">+</div>","response":null,"trial_type":"html-keyboard-response","trial_index":2,"plugin_version":"2.1.0","time_elapsed":48046},{"target_group":"black","target_index":1,"condition_label":"practice","rt":-1,"response":"","correct":false,"choices":"ALL_KEYS","correct_choice":["a"],"trial_duration":2000,"flip_timestamps":[],"response_ends_trial":false,"number_of_apertures":2,"number_of_dots":[65,100],"number_of_sets":1,"coherent_direction":[40,250],"coherence":1,"opposite_coherence":0,"dot_radius":2,"dot_side_length":1,"dot_life":-1,"move_distance":1,"aperture_width":300,"aperture_height":300,"dot_color":["white","black"],"dot_shape":"circle","background_color":"#AAA","RDK_type":3,"aperture_type":2,"reinsert_type":2,"frame_rate":16.798319327731093,"frame_rate_array":[32,18,16,17,16,17,17,16,17,17,16,17,17,16,17,17,16,17,17,16,17,17,16,17,17,16,17,16,17,17,16,17,16,17,17,17,17,16,17,17,16,16,17,17,17,17,16,17,17,16,17,16,17,17,17,16,17,17,16,17,16,17,17,17,16,16,17,17,17,17,16,17,16,16,18,16,17,17,16,17,17,16,17,17,16,17,16,18,16,16,17,17,17,16,17,17,16,17,17,16,17,17,16,17,17,16,17,17,16,17,17,17,16,17,16,17,17,16,17],"number_of_frames":119,"aperture_center_x":735,"aperture_center_y":459.5,"fixation_cross":true,"fixation_cross_width":15,"fixation_cross_height":15,"fixation_cross_color":"#111","fixation_cross_thickness":1,"border":true,"border_thickness":2,"border_color":"transparent","canvas_width":1470,"canvas_height":919,"trial_type":"rdk","trial_index":3,"plugin_version":"2.0.0","time_elapsed":50053,"phase":"practice","target_direction":250,"distractor_direction":40},{"rt":6405,"stimulus":"\n        <div class=\"response-container\">\n          <div class=\"response-instruction\">\n            <p>rotate the bar by using the left and right arrow keys.</p>\n            <p>when you are determined, press the Enter key.</p>\n          </div>\n          <div class=\"response-circle\">\n            <div class=\"response-fixation\"></div>\n            <div id=\"bar\" class=\"rotating-bar\"></div>\n          </div>\n        </div>\n      ","response":"Enter","trial_type":"html-keyboard-response","trial_index":4,"plugin_version":"2.1.0","time_elapsed":56460,"random_initial_angle":95,"response_angle_css":-61,"response_angle_rdk":151,"angular_error_target":-99,"angular_error_distractor":111,"target_direction":250,"target_group":"black","reward_points":0},{"rt":null,"stimulus":"\n          <p style=\"color: #FF3333;\">Your reward: 0 points</p>\n        ","response":null,"trial_type":"html-keyboard-response","trial_index":5,"plugin_version":"2.1.0","time_elapsed":58461},{"rt":null,"stimulus":"<div class=\"fixation\" style=\"font-size: 60px;\">+</div>","response":null,"trial_type":"html-keyboard-response","trial_index":6,"plugin_version":"2.1.0","time_elapsed":59464},{"target_group":"black","target_index":1,"condition_label":"practice","rt":-1,"response":"","correct":false,"choices":"ALL_KEYS","correct_choice":["a"],"trial_duration":2000,"flip_timestamps":[],"response_ends_trial":false,"number_of_apertures":2,"number_of_dots":[52,100],"number_of_sets":1,"coherent_direction":[253,107],"coherence":1,"opposite_coherence":0,"dot_radius":2,"dot_side_length":1,"dot_life":-1,"move_distance":1,"aperture_width":300,"aperture_height":300,"dot_color":["white","black"],"dot_shape":"circle","background_color":"#AAA","RDK_type":3,"aperture_type":2,"reinsert_type":2,"frame_rate":16.672268907563026,"frame_rate_array":[17,17,17,16,17,16,17,17,17,16,17,17,16,17,17,17,16,17,16,17,17,16,17,17,16,17,17,16,17,16,18,15,18,16,17,17,16,16,18,16,17,17,16,17,17,16,17,16,17,17,16,17,17,17,16,17,17,17,16,17,16,16,18,16,17,17,16,17,17,16,17,17,16,17,17,16,17,16,17,17,17,16,17,17,16,17,17,16,17,17,16,17,17,16,17,17,16,17,17,16,17,17,16,17,17,16,17,17,16,17,17,16,17,17,16,17,17,16,17],"number_of_frames":119,"aperture_center_x":735,"aperture_center_y":459.5,"fixation_cross":true,"fixation_cross_width":15,"fixation_cross_height":15,"fixation_cross_color":"#111","fixation_cross_thickness":1,"border":true,"border_thickness":2,"border_color":"transparent","canvas_width":1470,"canvas_height":919,"trial_type":"rdk","trial_index":7,"plugin_version":"2.0.0","time_elapsed":61468,"phase":"practice","target_direction":107,"distractor_direction":253},{"rt":4922,"stimulus":"\n        <div class=\"response-container\">\n          <div class=\"response-instruction\">\n            <p>rotate the bar by using the left and right arrow keys.</p>\n            <p>when you are determined, press the Enter key.</p>\n          </div>\n          <div class=\"response-circle\">\n            <div class=\"response-fixation\"></div>\n            <div id=\"bar\" class=\"rotating-bar\"></div>\n          </div>\n        </div>\n      ","response":"Enter","trial_type":"html-keyboard-response","trial_index":8,"plugin_version":"2.1.0","time_elapsed":66391,"random_initial_angle":234,"response_angle_css":337,"response_angle_rdk":113,"angular_error_target":6,"angular_error_distractor":-140,"target_direction":107,"target_group":"black","reward_points":8},{"rt":null,"stimulus":"\n          <p style=\"color: #00FF00;\">Your reward: 8 points</p>\n        ","response":null,"trial_type":"html-keyboard-response","trial_index":9,"plugin_version":"2.1.0","time_elapsed":68393},{"rt":null,"stimulus":"<div class=\"fixation\" style=\"font-size: 60px;\">+</div>","response":null,"trial_type":"html-keyboard-response","trial_index":10,"plugin_version":"2.1.0","time_elapsed":69396},{"target_group":"white","target_index":0,"condition_label":"practice","rt":-1,"response":"","correct":false,"choices":"ALL_KEYS","correct_choice":["a"],"trial_duration":2000,"flip_timestamps":[],"response_ends_trial":false,"number_of_apertures":2,"number_of_dots":[100,96],"number_of_sets":1,"coherent_direction":[159,297],"coherence":1,"opposite_coherence":0,"dot_radius":2,"dot_side_length":1,"dot_life":-1,"move_distance":1,"aperture_width":300,"aperture_height":300,"dot_color":["white","black"],"dot_shape":"circle","background_color":"#AAA","RDK_type":3,"aperture_type":2,"reinsert_type":2,"frame_rate":16.689075630252102,"frame_rate_array":[20,16,17,16,17,17,17,16,17,16,17,17,16,17,17,16,17,16,18,16,17,17,17,16,17,16,17,16,17,17,17,16,17,17,16,16,18,16,17,17,16,17,17,16,17,17,16,18,16,16,17,17,16,17,16,17,17,17,16,17,17,16,17,17,16,16,18,16,17,17,16,17,17,16,17,17,16,17,17,16,17,17,16,17,17,16,17,17,16,17,17,16,17,17,16,17,17,17,16,17,16,16,18,16,17,17,16,17,17,16,17,17,16,16,17,17,17,17,16],"number_of_frames":119,"aperture_center_x":735,"aperture_center_y":459.5,"fixation_cross":true,"fixation_cross_width":15,"fixation_cross_height":15,"fixation_cross_color":"#111","fixation_cross_thickness":1,"border":true,"border_thickness":2,"border_color":"transparent","canvas_width":1470,"canvas_height":919,"trial_type":"rdk","trial_index":11,"plugin_version":"2.0.0","time_elapsed":71398,"phase":"practice","target_direction":159,"distractor_direction":297},{"rt":4970,"stimulus":"\n        <div class=\"response-container\">\n          <div class=\"response-instruction\">\n            <p>rotate the bar by using the left and right arrow keys.</p>\n            <p>when you are determined, press the Enter key.</p>\n          </div>\n          <div class=\"response-circle\">\n            <div class=\"response-fixation\"></div>\n            <div id=\"bar\" class=\"rotating-bar\"></div>\n          </div>\n        </div>\n      ","response":"Enter","trial_type":"html-keyboard-response","trial_index":12,"plugin_version":"2.1.0","time_elapsed":76370,"random_initial_angle":257,"response_angle_css":314,"response_angle_rdk":136,"angular_error_target":-23,"angular_error_distractor":-161,"target_direction":159,"target_group":"white","reward_points":5},{"rt":null,"stimulus":"\n          <p style=\"color: #00FF00;\">Your reward: 5 points</p>\n        ","response":null,"trial_type":"html-keyboard-response","trial_index":13,"plugin_version":"2.1.0","time_elapsed":78372},{"rt":null,"stimulus":"<div class=\"fixation\" style=\"font-size: 60px;\">+</div>","response":null,"trial_type":"html-keyboard-response","trial_index":14,"plugin_version":"2.1.0","time_elapsed":79375},{"target_group":"black","target_index":1,"condition_label":"practice","rt":-1,"response":"","correct":false,"choices":"ALL_KEYS","correct_choice":["a"],"trial_duration":2000,"flip_timestamps":[],"response_ends_trial":false,"number_of_apertures":2,"number_of_dots":[50,100],"number_of_sets":1,"coherent_direction":[222,312],"coherence":1,"opposite_coherence":0,"dot_radius":2,"dot_side_length":1,"dot_life":-1,"move_distance":1,"aperture_width":300,"aperture_height":300,"dot_color":["white","black"],"dot_shape":"circle","background_color":"#AAA","RDK_type":3,"aperture_type":2,"reinsert_type":2,"frame_rate":16.73109243697479,"frame_rate_array":[24,17,16,17,17,16,17,17,16,16,17,17,17,17,16,17,16,17,17,17,16,17,17,16,17,17,17,16,17,16,17,17,16,17,16,17,16,18,16,16,18,16,16,18,16,16,18,16,17,17,16,17,17,16,17,17,16,16,18,16,17,17,16,17,17,16,17,17,16,17,17,16,17,17,16,16,17,17,17,17,16,17,17,16,17,17,16,17,17,16,17,17,16,17,17,17,16,17,16,17,17,16,17,17,16,17,16,17,16,18,16,17,17,16,17,17,16,17,17],"number_of_frames":119,"aperture_center_x":735,"aperture_center_y":459.5,"fixation_cross":true,"fixation_cross_width":15,"fixation_cross_height":15,"fixation_cross_color":"#111","fixation_cross_thickness":1,"border":true,"border_thickness":2,"border_color":"transparent","canvas_width":1470,"canvas_height":919,"trial_type":"rdk","trial_index":15,"plugin_version":"2.0.0","time_elapsed":81378,"phase":"practice","target_direction":312,"distractor_direction":222},{"rt":4347,"stimulus":"\n        <div class=\"response-container\">\n          <div class=\"response-instruction\">\n            <p>rotate the bar by using the left and right arrow keys.</p>\n            <p>when you are determined, press the Enter key.</p>\n          </div>\n          <div class=\"response-circle\">\n            <div class=\"response-fixation\"></div>\n            <div id=\"bar\" class=\"rotating-bar\"></div>\n          </div>\n        </div>\n      ","response":"Enter","trial_type":"html-keyboard-response","trial_index":16,"plugin_version":"2.1.0","time_elapsed":85726,"random_initial_angle":314,"response_angle_css":494,"response_angle_rdk":316,"angular_error_target":4,"angular_error_distractor":94,"target_direction":312,"target_group":"black","reward_points":9},{"rt":null,"stimulus":"\n          <p style=\"color: #00FF00;\">Your reward: 9 points</p>\n        ","response":null,"trial_type":"html-keyboard-response","trial_index":17,"plugin_version":"2.1.0","time_elapsed":87728},{"rt":null,"stimulus":"<div class=\"fixation\" style=\"font-size: 60px;\">+</div>","response":null,"trial_type":"html-keyboard-response","trial_index":18,"plugin_version":"2.1.0","time_elapsed":88730},{"target_group":"black","target_index":1,"condition_label":"practice","rt":-1,"response":"","correct":false,"choices":"ALL_KEYS","correct_choice":["a"],"trial_duration":2000,"flip_timestamps":[],"response_ends_trial":false,"number_of_apertures":2,"number_of_dots":[71,100],"number_of_sets":1,"coherent_direction":[78,173],"coherence":1,"opposite_coherence":0,"dot_radius":2,"dot_side_length":1,"dot_life":-1,"move_distance":1,"aperture_width":300,"aperture_height":300,"dot_color":["white","black"],"dot_shape":"circle","background_color":"#AAA","RDK_type":3,"aperture_type":2,"reinsert_type":2,"frame_rate":16.689075630252102,"frame_rate_array":[18,18,16,17,17,16,17,17,16,16,18,16,17,17,16,17,17,16,17,17,16,17,17,16,17,17,16,17,17,16,17,17,16,17,17,17,16,17,16,17,16,17,17,17,16,17,17,16,16,17,17,16,18,16,17,17,16,16,18,16,17,17,16,17,17,16,17,16,17,17,17,16,17,17,16,17,17,16,17,17,16,17,17,16,17,17,16,17,16,17,17,17,16,17,17,16,17,17,16,17,17,16,17,17,17,16,17,16,17,17,16,17,17,16,17,17,16,17,17],"number_of_frames":119,"aperture_center_x":735,"aperture_center_y":459.5,"fixation_cross":true,"fixation_cross_width":15,"fixation_cross_height":15,"fixation_cross_color":"#111","fixation_cross_thickness":1,"border":true,"border_thickness":2,"border_color":"transparent","canvas_width":1470,"canvas_height":919,"trial_type":"rdk","trial_index":19,"plugin_version":"2.0.0","time_elapsed":90733,"phase":"practice","target_direction":173,"distractor_direction":78},{"rt":3753,"stimulus":"\n        <div class=\"response-container\">\n          <div class=\"response-instruction\">\n            <p>rotate the bar by using the left and right arrow keys.</p>\n            <p>when you are determined, press the Enter key.</p>\n          </div>\n          <div class=\"response-circle\">\n            <div class=\"response-fixation\"></div>\n            <div id=\"bar\" class=\"rotating-bar\"></div>\n          </div>\n        </div>\n      ","response":"Enter","trial_type":"html-keyboard-response","trial_index":20,"plugin_version":"2.1.0","time_elapsed":94487,"random_initial_angle":268,"response_angle_css":284,"response_angle_rdk":166,"angular_error_target":-7,"angular_error_distractor":88,"target_direction":173,"target_group":"black","reward_points":8},{"rt":null,"stimulus":"\n          <p style=\"color: #00FF00;\">Your reward: 8 points</p>\n        ","response":null,"trial_type":"html-keyboard-response","trial_index":21,"plugin_version":"2.1.0","time_elapsed":96489},{"rt":null,"stimulus":"<div class=\"fixation\" style=\"font-size: 60px;\">+</div>","response":null,"trial_type":"html-keyboard-response","trial_index":22,"plugin_version":"2.1.0","time_elapsed":97492},{"target_group":"white","target_index":0,"condition_label":"practice","rt":-1,"response":"","correct":false,"choices":"ALL_KEYS","correct_choice":["a"],"trial_duration":2000,"flip_timestamps":[],"response_ends_trial":false,"number_of_apertures":2,"number_of_dots":[100,75],"number_of_sets":1,"coherent_direction":[121,285],"coherence":1,"opposite_coherence":0,"dot_radius":2,"dot_side_length":1,"dot_life":-1,"move_distance":1,"aperture_width":300,"aperture_height":300,"dot_color":["white","black"],"dot_shape":"circle","background_color":"#AAA","RDK_type":3,"aperture_type":2,"reinsert_type":2,"frame_rate":16.722689075630253,"frame_rate_array":[24,16,17,17,16,17,17,16,17,17,16,17,16,17,17,17,16,17,16,18,16,17,16,17,16,17,17,17,16,17,16,17,17,16,17,17,17,16,16,18,16,17,17,16,17,17,16,17,17,16,17,17,16,17,16,17,17,17,16,17,17,16,17,17,16,17,17,16,17,17,16,17,17,16,17,17,16,17,17,16,17,17,15,18,16,17,17,17,16,17,17,16,17,17,16,17,17,16,17,16,17,17,17,16,17,17,16,17,17,16,17,17,16,17,17,16,17,16,17],"number_of_frames":119,"aperture_center_x":735,"aperture_center_y":459.5,"fixation_cross":true,"fixation_cross_width":15,"fixation_cross_height":15,"fixation_cross_color":"#111","fixation_cross_thickness":1,"border":true,"border_thickness":2,"border_color":"transparent","canvas_width":1470,"canvas_height":919,"trial_type":"rdk","trial_index":23,"plugin_version":"2.0.0","time_elapsed":99495,"phase":"practice","target_direction":121,"distractor_direction":285},{"rt":1940,"stimulus":"\n        <div class=\"response-container\">\n          <div class=\"response-instruction\">\n            <p>rotate the bar by using the left and right arrow keys.</p>\n            <p>when you are determined, press the Enter key.</p>\n          </div>\n          <div class=\"response-circle\">\n            <div class=\"response-fixation\"></div>\n            <div id=\"bar\" class=\"rotating-bar\"></div>\n          </div>\n        </div>\n      ","response":"Enter","trial_type":"html-keyboard-response","trial_index":24,"plugin_version":"2.1.0","time_elapsed":101437,"random_initial_angle":290,"response_angle_css":319,"response_angle_rdk":131,"angular_error_target":10,"angular_error_distractor":-154,"target_direction":121,"target_group":"white","reward_points":8},{"rt":null,"stimulus":"\n          <p style=\"color: #00FF00;\">Your reward: 8 points</p>\n        ","response":null,"trial_type":"html-keyboard-response","trial_index":25,"plugin_version":"2.1.0","time_elapsed":103439},{"rt":null,"stimulus":"<div class=\"fixation\" style=\"font-size: 60px;\">+</div>","response":null,"trial_type":"html-keyboard-response","trial_index":26,"plugin_version":"2.1.0","time_elapsed":104441},{"target_group":"black","target_index":1,"condition_label":"practice","rt":-1,"response":"","correct":false,"choices":"ALL_KEYS","correct_choice":["a"],"trial_duration":2000,"flip_timestamps":[],"response_ends_trial":false,"number_of_apertures":2,"number_of_dots":[58,100],"number_of_sets":1,"coherent_direction":[306,115],"coherence":1,"opposite_coherence":0,"dot_radius":2,"dot_side_length":1,"dot_life":-1,"move_distance":1,"aperture_width":300,"aperture_height":300,"dot_color":["white","black"],"dot_shape":"circle","background_color":"#AAA","RDK_type":3,"aperture_type":2,"reinsert_type":2,"frame_rate":16.722689075630253,"frame_rate_array":[24,16,17,17,16,17,16,17,16,18,15,18,17,16,17,17,16,17,17,16,17,17,16,16,17,17,17,16,17,17,17,16,17,17,16,17,17,16,17,17,16,17,17,16,17,17,16,17,16,17,17,17,16,17,17,16,17,17,16,17,17,16,17,17,16,17,17,16,17,16,17,17,17,16,16,18,16,17,17,16,17,16,17,17,16,17,16,18,16,17,16,17,16,18,16,17,17,16,16,18,16,17,17,16,17,17,16,17,16,17,17,17,16,17,17,16,17,17,16],"number_of_frames":119,"aperture_center_x":735,"aperture_center_y":459.5,"fixation_cross":true,"fixation_cross_width":15,"fixation_cross_height":15,"fixation_cross_color":"#111","fixation_cross_thickness":1,"border":true,"border_thickness":2,"border_color":"transparent","canvas_width":1470,"canvas_height":919,"trial_type":"rdk","trial_index":27,"plugin_version":"2.0.0","time_elapsed":106443,"phase":"practice","target_direction":115,"distractor_direction":306},{"rt":1752,"stimulus":"\n        <div class=\"response-container\">\n          <div class=\"response-instruction\">\n            <p>rotate the bar by using the left and right arrow keys.</p>\n            <p>when you are determined, press the Enter key.</p>\n          </div>\n          <div class=\"response-circle\">\n            <div class=\"response-fixation\"></div>\n            <div id=\"bar\" class=\"rotating-bar\"></div>\n          </div>\n        </div>\n      ","response":"Enter","trial_type":"html-keyboard-response","trial_index":28,"plugin_version":"2.1.0","time_elapsed":108197,"random_initial_angle":288,"response_angle_css":311,"response_angle_rdk":139,"angular_error_target":24,"angular_error_distractor":-167,"target_direction":115,"target_group":"black","reward_points":5},{"rt":null,"stimulus":"\n          <p style=\"color: #00FF00;\">Your reward: 5 points</p>\n        ","response":null,"trial_type":"html-keyboard-response","trial_index":29,"plugin_version":"2.1.0","time_elapsed":110199},{"rt":null,"stimulus":"<div class=\"fixation\" style=\"font-size: 60px;\">+</div>","response":null,"trial_type":"html-keyboard-response","trial_index":30,"plugin_version":"2.1.0","time_elapsed":111201},{"target_group":"white","target_index":0,"condition_label":"practice","rt":-1,"response":"","correct":false,"choices":"ALL_KEYS","correct_choice":["a"],"trial_duration":2000,"flip_timestamps":[],"response_ends_trial":false,"number_of_apertures":2,"number_of_dots":[100,82],"number_of_sets":1,"coherent_direction":[209,116],"coherence":1,"opposite_coherence":0,"dot_radius":2,"dot_side_length":1,"dot_life":-1,"move_distance":1,"aperture_width":300,"aperture_height":300,"dot_color":["white","black"],"dot_shape":"circle","background_color":"#AAA","RDK_type":3,"aperture_type":2,"reinsert_type":2,"frame_rate":16.77310924369748,"frame_rate_array":[31,16,16,17,17,16,17,17,16,17,17,17,16,17,17,16,17,17,16,17,16,17,17,17,16,17,17,16,17,17,16,17,17,16,17,17,16,17,16,17,17,17,16,17,16,17,17,17,16,17,17,16,16,18,16,17,17,16,17,17,16,16,18,16,17,17,16,17,16,17,17,17,16,17,16,17,17,17,16,16,18,16,17,17,16,17,17,16,17,17,16,17,17,16,17,17,16,17,17,16,17,16,17,17,17,16,17,17,16,17,17,16,17,17,16,17,16,17,16],"number_of_frames":119,"aperture_center_x":735,"aperture_center_y":459.5,"fixation_cross":true,"fixation_cross_width":15,"fixation_cross_height":15,"fixation_cross_color":"#111","fixation_cross_thickness":1,"border":true,"border_thickness":2,"border_color":"transparent","canvas_width":1470,"canvas_height":919,"trial_type":"rdk","trial_index":31,"plugin_version":"2.0.0","time_elapsed":113204,"phase":"practice","target_direction":209,"distractor_direction":116},{"rt":3795,"stimulus":"\n        <div class=\"response-container\">\n          <div class=\"response-instruction\">\n            <p>rotate the bar by using the left and right arrow keys.</p>\n            <p>when you are determined, press the Enter key.</p>\n          </div>\n          <div class=\"response-circle\">\n            <div class=\"response-fixation\"></div>\n            <div id=\"bar\" class=\"rotating-bar\"></div>\n          </div>\n        </div>\n      ","response":"Enter","trial_type":"html-keyboard-response","trial_index":32,"plugin_version":"2.1.0","time_elapsed":117001,"random_initial_angle":151,"response_angle_css":363,"response_angle_rdk":87,"angular_error_target":-122,"angular_error_distractor":-29,"target_direction":209,"target_group":"white","reward_points":0},{"rt":null,"stimulus":"\n          <p style=\"color: #FF3333;\">Your reward: 0 points</p>\n        ","response":null,"trial_type":"html-keyboard-response","trial_index":33,"plugin_version":"2.1.0","time_elapsed":119003},{"rt":null,"stimulus":"<div class=\"fixation\" style=\"font-size: 60px;\">+</div>","response":null,"trial_type":"html-keyboard-response","trial_index":34,"plugin_version":"2.1.0","time_elapsed":120006},{"target_group":"white","target_index":0,"condition_label":"practice","rt":-1,"response":"","correct":false,"choices":"ALL_KEYS","correct_choice":["a"],"trial_duration":2000,"flip_timestamps":[],"response_ends_trial":false,"number_of_apertures":2,"number_of_dots":[100,96],"number_of_sets":1,"coherent_direction":[317,93],"coherence":1,"opposite_coherence":0,"dot_radius":2,"dot_side_length":1,"dot_life":-1,"move_distance":1,"aperture_width":300,"aperture_height":300,"dot_color":["white","black"],"dot_shape":"circle","background_color":"#AAA","RDK_type":3,"aperture_type":2,"reinsert_type":2,"frame_rate":16.73949579831933,"frame_rate_array":[27,16,16,17,17,17,16,17,17,16,17,17,16,17,16,17,17,16,17,17,17,16,17,17,16,17,17,16,17,17,16,17,17,16,17,17,16,17,17,16,17,16,18,15,17,17,17,17,16,17,17,16,17,17,16,17,17,16,17,17,16,17,17,16,17,17,16,17,16,17,17,17,16,17,17,16,16,17,17,17,17,16,17,16,17,17,16,17,17,16,17,17,17,16,17,17,15,18,17,16,17,17,16,17,17,16,17,16,18,16,17,16,16,18,16,17,16,17,16],"number_of_frames":119,"aperture_center_x":735,"aperture_center_y":459.5,"fixation_cross":true,"fixation_cross_width":15,"fixation_cross_height":15,"fixation_cross_color":"#111","fixation_cross_thickness":1,"border":true,"border_thickness":2,"border_color":"transparent","canvas_width":1470,"canvas_height":919,"trial_type":"rdk","trial_index":35,"plugin_version":"2.0.0","time_elapsed":122009,"phase":"practice","target_direction":317,"distractor_direction":93},{"rt":3977,"stimulus":"\n        <div class=\"response-container\">\n          <div class=\"response-instruction\">\n            <p>rotate the bar by using the left and right arrow keys.</p>\n            <p>when you are determined, press the Enter key.</p>\n          </div>\n          <div class=\"response-circle\">\n            <div class=\"response-fixation\"></div>\n            <div id=\"bar\" class=\"rotating-bar\"></div>\n          </div>\n        </div>\n      ","response":"Enter","trial_type":"html-keyboard-response","trial_index":36,"plugin_version":"2.1.0","time_elapsed":125988,"random_initial_angle":266,"response_angle_css":504,"response_angle_rdk":306,"angular_error_target":-11,"angular_error_distractor":-147,"target_direction":317,"target_group":"white","reward_points":7},{"rt":null,"stimulus":"\n          <p style=\"color: #00FF00;\">Your reward: 7 points</p>\n        ","response":null,"trial_type":"html-keyboard-response","trial_index":37,"plugin_version":"2.1.0","time_elapsed":127990},{"rt":null,"stimulus":"<div class=\"fixation\" style=\"font-size: 60px;\">+</div>","response":null,"trial_type":"html-keyboard-response","trial_index":38,"plugin_version":"2.1.0","time_elapsed":128991},{"target_group":"white","target_index":0,"condition_label":"practice","rt":-1,"response":"","correct":false,"choices":"ALL_KEYS","correct_choice":["a"],"trial_duration":2000,"flip_timestamps":[],"response_ends_trial":false,"number_of_apertures":2,"number_of_dots":[100,97],"number_of_sets":1,"coherent_direction":[168,287],"coherence":1,"opposite_coherence":0,"dot_radius":2,"dot_side_length":1,"dot_life":-1,"move_distance":1,"aperture_width":300,"aperture_height":300,"dot_color":["white","black"],"dot_shape":"circle","background_color":"#AAA","RDK_type":3,"aperture_type":2,"reinsert_type":2,"frame_rate":16.73109243697479,"frame_rate_array":[24,17,17,17,16,17,17,16,17,16,17,17,17,16,17,17,16,16,17,17,17,17,16,17,17,15,18,16,17,17,17,16,17,16,17,16,18,16,17,17,16,17,17,16,17,17,16,17,17,16,17,17,16,17,17,16,17,16,17,17,17,16,17,17,16,16,18,16,17,16,17,17,17,16,17,17,16,17,17,16,17,17,16,17,17,16,17,17,16,16,18,15,18,16,17,17,16,17,17,16,17,17,17,16,17,17,16,17,17,16,17,16,17,17,17,16,17,17,16],"number_of_frames":119,"aperture_center_x":735,"aperture_center_y":459.5,"fixation_cross":true,"fixation_cross_width":15,"fixation_cross_height":15,"fixation_cross_color":"#111","fixation_cross_thickness":1,"border":true,"border_thickness":2,"border_color":"transparent","canvas_width":1470,"canvas_height":919,"trial_type":"rdk","trial_index":39,"plugin_version":"2.0.0","time_elapsed":130994,"phase":"practice","target_direction":168,"distractor_direction":287},{"rt":3468,"stimulus":"\n        <div class=\"response-container\">\n          <div class=\"response-instruction\">\n            <p>rotate the bar by using the left and right arrow keys.</p>\n            <p>when you are determined, press the Enter key.</p>\n          </div>\n          <div class=\"response-circle\">\n            <div class=\"response-fixation\"></div>\n            <div id=\"bar\" class=\"rotating-bar\"></div>\n          </div>\n        </div>\n      ","response":"Enter","trial_type":"html-keyboard-response","trial_index":40,"plugin_version":"2.1.0","time_elapsed":134464,"random_initial_angle":104,"response_angle_css":310,"response_angle_rdk":140,"angular_error_target":-28,"angular_error_distractor":-147,"target_direction":168,"target_group":"white","reward_points":4},{"rt":null,"stimulus":"\n          <p style=\"color: #00FF00;\">Your reward: 4 points</p>\n        ","response":null,"trial_type":"html-keyboard-response","trial_index":41,"plugin_version":"2.1.0","time_elapsed":136466},{"rt":null,"stimulus":"<div class=\"fixation\" style=\"font-size: 60px;\">+</div>","response":null,"trial_type":"html-keyboard-response","trial_index":42,"plugin_version":"2.1.0","time_elapsed":137468},{"target_group":"white","target_index":0,"condition_label":"practice","rt":-1,"response":"","correct":false,"choices":"ALL_KEYS","correct_choice":["a"],"trial_duration":2000,"flip_timestamps":[],"response_ends_trial":false,"number_of_apertures":2,"number_of_dots":[100,98],"number_of_sets":1,"coherent_direction":[162,322],"coherence":1,"opposite_coherence":0,"dot_radius":2,"dot_side_length":1,"dot_life":-1,"move_distance":1,"aperture_width":300,"aperture_height":300,"dot_color":["white","black"],"dot_shape":"circle","background_color":"#AAA","RDK_type":3,"aperture_type":2,"reinsert_type":2,"frame_rate":16.65,"frame_rate_array":[13,18,17,16,17,16,16,17,18,16,17,17,16,17,17,15,18,17,16,16,18,17,16,17,16,17,17,16,16,17,17,17,16,17,17,17,16,17,17,16,17,17,16,17,17,16,17,17,16,17,17,16,17,17,16,17,17,16,17,17,16,17,17,16,17,17,16,17,17,15,18,17,16,17,16,17,17,17,16,17,17,16,17,17,16,16,17,17,17,16,17,17,17,16,17,17,16,17,17,16,17,17,16,17,17,16,17,16,17,16,18,16,17,17,16,17,17,16,17,17],"number_of_frames":120,"aperture_center_x":735,"aperture_center_y":459.5,"fixation_cross":true,"fixation_cross_width":15,"fixation_cross_height":15,"fixation_cross_color":"#111","fixation_cross_thickness":1,"border":true,"border_thickness":2,"border_color":"transparent","canvas_width":1470,"canvas_height":919,"trial_type":"rdk","trial_index":43,"plugin_version":"2.0.0","time_elapsed":139470,"phase":"practice","target_direction":162,"distractor_direction":322},{"rt":2761,"stimulus":"\n        <div class=\"response-container\">\n          <div class=\"response-instruction\">\n            <p>rotate the bar by using the left and right arrow keys.</p>\n            <p>when you are determined, press the Enter key.</p>\n          </div>\n          <div class=\"response-circle\">\n            <div class=\"response-fixation\"></div>\n            <div id=\"bar\" class=\"rotating-bar\"></div>\n          </div>\n        </div>\n      ","response":"Enter","trial_type":"html-keyboard-response","trial_index":44,"plugin_version":"2.1.0","time_elapsed":142233,"random_initial_angle":47,"response_angle_css":-54,"response_angle_rdk":144,"angular_error_target":-18,"angular_error_distractor":-178,"target_direction":162,"target_group":"white","reward_points":6},{"rt":null,"stimulus":"\n          <p style=\"color: #00FF00;\">Your reward: 6 points</p>\n        ","response":null,"trial_type":"html-keyboard-response","trial_index":45,"plugin_version":"2.1.0","time_elapsed":144234},{"rt":null,"stimulus":"<div class=\"fixation\" style=\"font-size: 60px;\">+</div>","response":null,"trial_type":"html-keyboard-response","trial_index":46,"plugin_version":"2.1.0","time_elapsed":145236},{"target_group":"black","target_index":1,"condition_label":"practice","rt":-1,"response":"","correct":false,"choices":"ALL_KEYS","correct_choice":["a"],"trial_duration":2000,"flip_timestamps":[],"response_ends_trial":false,"number_of_apertures":2,"number_of_dots":[88,100],"number_of_sets":1,"coherent_direction":[353,130],"coherence":1,"opposite_coherence":0,"dot_radius":2,"dot_side_length":1,"dot_life":-1,"move_distance":1,"aperture_width":300,"aperture_height":300,"dot_color":["white","black"],"dot_shape":"circle","background_color":"#AAA","RDK_type":3,"aperture_type":2,"reinsert_type":2,"frame_rate":16.764705882352942,"frame_rate_array":[29,16,17,17,16,17,17,16,16,18,16,17,17,15,18,17,16,17,17,16,17,17,16,17,17,16,17,17,16,17,16,17,17,17,17,16,15,18,17,17,16,16,17,17,17,16,17,17,17,16,17,17,16,17,17,16,17,16,17,17,17,16,17,17,16,17,17,16,17,17,16,17,16,17,17,17,16,17,16,17,16,17,17,17,17,16,17,17,16,17,16,17,17,17,16,17,17,16,17,17,16,17,17,16,17,17,16,17,17,16,17,17,15,18,17,16,17,16,17],"number_of_frames":119,"aperture_center_x":735,"aperture_center_y":459.5,"fixation_cross":true,"fixation_cross_width":15,"fixation_cross_height":15,"fixation_cross_color":"#111","fixation_cross_thickness":1,"border":true,"border_thickness":2,"border_color":"transparent","canvas_width":1470,"canvas_height":919,"trial_type":"rdk","trial_index":47,"plugin_version":"2.0.0","time_elapsed":147240,"phase":"practice","target_direction":130,"distractor_direction":353},{"rt":3435,"stimulus":"\n        <div class=\"response-container\">\n          <div class=\"response-instruction\">\n            <p>rotate the bar by using the left and right arrow keys.</p>\n            <p>when you are determined, press the Enter key.</p>\n          </div>\n          <div class=\"response-circle\">\n            <div class=\"response-fixation\"></div>\n            <div id=\"bar\" class=\"rotating-bar\"></div>\n          </div>\n        </div>\n      ","response":"Enter","trial_type":"html-keyboard-response","trial_index":48,"plugin_version":"2.1.0","time_elapsed":150676,"random_initial_angle":92,"response_angle_css":309,"response_angle_rdk":141,"angular_error_target":11,"angular_error_distractor":148,"target_direction":130,"target_group":"black","reward_points":7},{"rt":null,"stimulus":"\n          <p style=\"color: #00FF00;\">Your reward: 7 points</p>\n        ","response":null,"trial_type":"html-keyboard-response","trial_index":49,"plugin_version":"2.1.0","time_elapsed":152678},{"rt":null,"stimulus":"<div class=\"fixation\" style=\"font-size: 60px;\">+</div>","response":null,"trial_type":"html-keyboard-response","trial_index":50,"plugin_version":"2.1.0","time_elapsed":153680},{"target_group":"black","target_index":1,"condition_label":"practice","rt":-1,"response":"","correct":false,"choices":"ALL_KEYS","correct_choice":["a"],"trial_duration":2000,"flip_timestamps":[],"response_ends_trial":false,"number_of_apertures":2,"number_of_dots":[76,100],"number_of_sets":1,"coherent_direction":[50,312],"coherence":1,"opposite_coherence":0,"dot_radius":2,"dot_side_length":1,"dot_life":-1,"move_distance":1,"aperture_width":300,"aperture_height":300,"dot_color":["white","black"],"dot_shape":"circle","background_color":"#AAA","RDK_type":3,"aperture_type":2,"reinsert_type":2,"frame_rate":16.689075630252102,"frame_rate_array":[19,17,16,17,17,16,17,17,17,16,17,16,17,17,16,17,16,17,17,17,16,17,17,16,17,17,16,17,17,16,16,18,15,18,17,16,17,17,16,17,17,16,17,17,16,17,17,16,17,17,16,17,17,16,16,18,16,17,16,16,18,17,16,17,16,16,17,17,17,17,17,16,17,17,16,17,17,16,17,17,16,17,17,16,16,17,17,17,16,17,16,17,17,17,17,16,17,17,16,16,17,17,17,17,16,17,17,16,17,17,15,18,16,17,17,17,16,17,17],"number_of_frames":119,"aperture_center_x":735,"aperture_center_y":459.5,"fixation_cross":true,"fixation_cross_width":15,"fixation_cross_height":15,"fixation_cross_color":"#111","fixation_cross_thickness":1,"border":true,"border_thickness":2,"border_color":"transparent","canvas_width":1470,"canvas_height":919,"trial_type":"rdk","trial_index":51,"plugin_version":"2.0.0","time_elapsed":155684,"phase":"practice","target_direction":312,"distractor_direction":50},{"rt":2641,"stimulus":"\n        <div class=\"response-container\">\n          <div class=\"response-instruction\">\n            <p>rotate the bar by using the left and right arrow keys.</p>\n            <p>when you are determined, press the Enter key.</p>\n          </div>\n          <div class=\"response-circle\">\n            <div class=\"response-fixation\"></div>\n            <div id=\"bar\" class=\"rotating-bar\"></div>\n          </div>\n        </div>\n      ","response":"Enter","trial_type":"html-keyboard-response","trial_index":52,"plugin_version":"2.1.0","time_elapsed":158326,"random_initial_angle":61,"response_angle_css":185,"response_angle_rdk":265,"angular_error_target":-47,"angular_error_distractor":-145,"target_direction":312,"target_group":"black","reward_points":0},{"rt":null,"stimulus":"\n          <p style=\"color: #FF3333;\">Your reward: 0 points</p>\n        ","response":null,"trial_type":"html-keyboard-response","trial_index":53,"plugin_version":"2.1.0","time_elapsed":160329},{"rt":null,"stimulus":"<div class=\"fixation\" style=\"font-size: 60px;\">+</div>","response":null,"trial_type":"html-keyboard-response","trial_index":54,"plugin_version":"2.1.0","time_elapsed":161331},{"target_group":"white","target_index":0,"condition_label":"practice","rt":-1,"response":"","correct":false,"choices":"ALL_KEYS","correct_choice":["a"],"trial_duration":2000,"flip_timestamps":[],"response_ends_trial":false,"number_of_apertures":2,"number_of_dots":[100,86],"number_of_sets":1,"coherent_direction":[310,199],"coherence":1,"opposite_coherence":0,"dot_radius":2,"dot_side_length":1,"dot_life":-1,"move_distance":1,"aperture_width":300,"aperture_height":300,"dot_color":["white","black"],"dot_shape":"circle","background_color":"#AAA","RDK_type":3,"aperture_type":2,"reinsert_type":2,"frame_rate":16.680672268907564,"frame_rate_array":[18,16,17,17,17,15,18,17,16,17,16,17,17,16,17,16,17,17,17,17,16,17,17,17,16,16,17,17,17,16,17,17,16,17,17,16,17,16,17,17,17,16,17,16,17,17,17,16,17,16,17,17,17,16,17,16,17,17,16,17,17,16,16,18,16,17,17,16,16,17,18,16,17,16,17,17,16,17,17,16,17,17,17,16,17,16,17,17,17,16,16,17,17,16,18,16,17,17,16,16,18,16,17,16,17,17,17,16,17,17,16,17,16,17,17,17,16,17,17],"number_of_frames":119,"aperture_center_x":735,"aperture_center_y":459.5,"fixation_cross":true,"fixation_cross_width":15,"fixation_cross_height":15,"fixation_cross_color":"#111","fixation_cross_thickness":1,"border":true,"border_thickness":2,"border_color":"transparent","canvas_width":1470,"canvas_height":919,"trial_type":"rdk","trial_index":55,"plugin_version":"2.0.0","time_elapsed":163334,"phase":"practice","target_direction":310,"distractor_direction":199},{"rt":1473,"stimulus":"\n        <div class=\"response-container\">\n          <div class=\"response-instruction\">\n            <p>rotate the bar by using the left and right arrow keys.</p>\n            <p>when you are determined, press the Enter key.</p>\n          </div>\n          <div class=\"response-circle\">\n            <div class=\"response-fixation\"></div>\n            <div id=\"bar\" class=\"rotating-bar\"></div>\n          </div>\n        </div>\n      ","response":"Enter","trial_type":"html-keyboard-response","trial_index":56,"plugin_version":"2.1.0","time_elapsed":164807,"random_initial_angle":294,"response_angle_css":268,"response_angle_rdk":182,"angular_error_target":-128,"angular_error_distractor":-17,"target_direction":310,"target_group":"white","reward_points":0},{"rt":null,"stimulus":"\n          <p style=\"color: #FF3333;\">Your reward: 0 points</p>\n        ","response":null,"trial_type":"html-keyboard-response","trial_index":57,"plugin_version":"2.1.0","time_elapsed":166809},{"rt":null,"stimulus":"<div class=\"fixation\" style=\"font-size: 60px;\">+</div>","response":null,"trial_type":"html-keyboard-response","trial_index":58,"plugin_version":"2.1.0","time_elapsed":167811},{"target_group":"black","target_index":1,"condition_label":"practice","rt":-1,"response":"","correct":false,"choices":"ALL_KEYS","correct_choice":["a"],"trial_duration":2000,"flip_timestamps":[],"response_ends_trial":false,"number_of_apertures":2,"number_of_dots":[57,100],"number_of_sets":1,"coherent_direction":[205,295],"coherence":1,"opposite_coherence":0,"dot_radius":2,"dot_side_length":1,"dot_life":-1,"move_distance":1,"aperture_width":300,"aperture_height":300,"dot_color":["white","black"],"dot_shape":"circle","background_color":"#AAA","RDK_type":3,"aperture_type":2,"reinsert_type":2,"frame_rate":16.705882352941178,"frame_rate_array":[21,17,16,17,17,17,16,16,18,16,17,16,17,17,17,16,17,16,17,17,16,17,16,17,17,17,17,16,17,16,17,17,17,16,16,17,17,16,18,16,17,16,17,17,17,16,17,16,17,17,17,16,17,16,17,17,16,17,17,17,16,17,17,16,17,17,16,17,17,16,17,16,17,16,18,16,17,16,17,17,17,16,17,16,17,17,17,16,17,17,15,18,17,16,17,17,16,17,16,17,17,17,16,17,17,16,16,17,17,16,18,16,17,16,17,17,16,17,17],"number_of_frames":119,"aperture_center_x":735,"aperture_center_y":459.5,"fixation_cross":true,"fixation_cross_width":15,"fixation_cross_height":15,"fixation_cross_color":"#111","fixation_cross_thickness":1,"border":true,"border_thickness":2,"border_color":"transparent","canvas_width":1470,"canvas_height":919,"trial_type":"rdk","trial_index":59,"plugin_version":"2.0.0","time_elapsed":169814,"phase":"practice","target_direction":295,"distractor_direction":205},{"rt":2466,"stimulus":"\n        <div class=\"response-container\">\n          <div class=\"response-instruction\">\n            <p>rotate the bar by using the left and right arrow keys.</p>\n            <p>when you are determined, press the Enter key.</p>\n          </div>\n          <div class=\"response-circle\">\n            <div class=\"response-fixation\"></div>\n            <div id=\"bar\" class=\"rotating-bar\"></div>\n          </div>\n        </div>\n      ","response":"Enter","trial_type":"html-keyboard-response","trial_index":60,"plugin_version":"2.1.0","time_elapsed":172282,"random_initial_angle":20,"response_angle_css":136,"response_angle_rdk":314,"angular_error_target":19,"angular_error_distractor":109,"target_direction":295,"target_group":"black","reward_points":6},{"rt":null,"stimulus":"\n          <p style=\"color: #00FF00;\">Your reward: 6 points</p>\n        ","response":null,"trial_type":"html-keyboard-response","trial_index":61,"plugin_version":"2.1.0","time_elapsed":174283},{"rt":null,"stimulus":"<div class=\"fixation\" style=\"font-size: 60px;\">+</div>","response":null,"trial_type":"html-keyboard-response","trial_index":62,"plugin_version":"2.1.0","time_elapsed":175285},{"target_group":"white","target_index":0,"condition_label":"practice","rt":-1,"response":"","correct":false,"choices":"ALL_KEYS","correct_choice":["a"],"trial_duration":2000,"flip_timestamps":[],"response_ends_trial":false,"number_of_apertures":2,"number_of_dots":[100,68],"number_of_sets":1,"coherent_direction":[111,238],"coherence":1,"opposite_coherence":0,"dot_radius":2,"dot_side_length":1,"dot_life":-1,"move_distance":1,"aperture_width":300,"aperture_height":300,"dot_color":["white","black"],"dot_shape":"circle","background_color":"#AAA","RDK_type":3,"aperture_type":2,"reinsert_type":2,"frame_rate":16.789915966386555,"frame_rate_array":[32,16,17,16,17,17,17,16,17,16,17,17,16,17,17,16,17,16,17,17,17,16,17,17,16,17,17,16,17,17,17,17,16,17,16,17,17,16,16,17,16,18,16,17,17,16,17,17,17,16,17,16,17,17,17,16,16,17,17,17,16,17,17,16,17,17,16,17,17,16,17,17,15,18,17,16,17,17,16,16,18,16,17,17,16,17,17,17,15,18,16,17,17,17,16,16,18,16,17,16,17,17,17,16,17,17,16,17,16,17,17,16,17,17,17,16,17,16,17],"number_of_frames":119,"aperture_center_x":735,"aperture_center_y":459.5,"fixation_cross":true,"fixation_cross_width":15,"fixation_cross_height":15,"fixation_cross_color":"#111","fixation_cross_thickness":1,"border":true,"border_thickness":2,"border_color":"transparent","canvas_width":1470,"canvas_height":919,"trial_type":"rdk","trial_index":63,"plugin_version":"2.0.0","time_elapsed":177288,"phase":"practice","target_direction":111,"distractor_direction":238},{"rt":3516,"stimulus":"\n        <div class=\"response-container\">\n          <div class=\"response-instruction\">\n            <p>rotate the bar by using the left and right arrow keys.</p>\n            <p>when you are determined, press the Enter key.</p>\n          </div>\n          <div class=\"response-circle\">\n            <div class=\"response-fixation\"></div>\n            <div id=\"bar\" class=\"rotating-bar\"></div>\n          </div>\n        </div>\n      ","response":"Enter","trial_type":"html-keyboard-response","trial_index":64,"plugin_version":"2.1.0","time_elapsed":180805,"random_initial_angle":77,"response_angle_css":2,"response_angle_rdk":88,"angular_error_target":-23,"angular_error_distractor":-150,"target_direction":111,"target_group":"white","reward_points":5},{"rt":null,"stimulus":"\n          <p style=\"color: #00FF00;\">Your reward: 5 points</p>\n        ","response":null,"trial_type":"html-keyboard-response","trial_index":65,"plugin_version":"2.1.0","time_elapsed":182807},{"rt":24121,"stimulus":"\n        <div class=\"instructions-container\">\n          <h2>End of Practice</h2>\n          <p>You have completed the practice trials.</p>\n          <p>Press <strong>Enter</strong> key to begin the main experiment.</p>\n        </div>\n      ","response":"Enter","trial_type":"html-keyboard-response","trial_index":66,"plugin_version":"2.1.0","time_elapsed":206930},{"rt":null,"stimulus":"<div class=\"fixation\" style=\"font-size: 60px;\">+</div>","response":null,"trial_type":"html-keyboard-response","trial_index":67,"plugin_version":"2.1.0","time_elapsed":207932},{"phase":"learning-awareness","target_group":"black","condition_label":"B_H_vs_W_L_rep18","target_direction":6,"distractor_direction":108,"session_rotation":251,"rt":-1,"response":"","correct":false,"choices":"ALL_KEYS","correct_choice":["a"],"trial_duration":2000,"flip_timestamps":[],"response_ends_trial":false,"number_of_apertures":200,"number_of_dots":[1,1,1,1,1,1,1,1,1,1,1,1,1,1,1,1,1,1,1,1,1,1,1,1,1,1,1,1,1,1,1,1,1,1,1,1,1,1,1,1,1,1,1,1,1,1,1,1,1,1,1,1,1,1,1,1,1,1,1,1,1,1,1,1,1,1,1,1,1,1,1,1,1,1,1,1,1,1,1,1,1,1,1,1,1,1,1,1,1,1,1,1,1,1,1,1,1,1,1,1,1,1,1,1,1,1,1,1,1,1,1,1,1,1,1,1,1,1,1,1,1,1,1,1,1,1,1,1,1,1,1,1,1,1,1,1,1,1,1,1,1,1,1,1,1,1,1,1,1,1,1,1,1,1,1,1,1,1,1,1,1,1,1,1,1,1,1,1,1,1,1,1,1,1,1,1,1,1,1,1,1,1,1,1,1,1,1,1,1,1,1,1,1,1,1,1,1,1,1,1],"number_of_sets":1,"coherent_direction":[6,108,6,6,108,6,108,108,108,6,108,108,108,108,108,108,108,6,108,108,108,6,6,108,108,108,108,6,6,6,108,108,6,108,6,6,6,108,6,108,108,108,6,6,6,6,108,108,108,108,6,108,6,108,6,108,6,6,6,6,108,6,108,108,6,108,108,108,108,108,6,108,108,6,6,108,6,6,6,6,108,6,6,108,6,108,108,6,108,108,6,6,6,108,108,6,6,6,108,6,108,108,108,6,6,6,6,108,108,6,108,6,108,108,108,6,108,6,108,6,108,6,6,6,6,6,6,108,108,6,6,108,6,108,6,6,108,6,108,108,108,108,6,6,6,6,108,6,108,6,108,6,108,108,108,108,108,6,6,108,6,6,6,108,6,6,6,108,6,108,108,6,6,108,108,6,108,6,6,6,6,6,6,6,108,108,108,108,108,6,108,108,6,108,108,108,6,6,6,6],"coherence":1,"opposite_coherence":0,"dot_radius":2,"dot_side_length":1,"dot_life":-1,"move_distance":1,"aperture_width":300,"aperture_height":300,"dot_color":["black","white","black","black","white","black","white","white","white","black","white","white","white","white","white","white","white","black","white","white","white","black","black","white","white","white","white","black","black","black","white","white","black","white","black","black","black","white","black","white","white","white","black","black","black","black","white","white","white","white","black","white","black","white","black","white","black","black","black","black","white","black","white","white","black","white","white","white","white","white","black","white","white","black","black","white","black","black","black","black","white","black","black","white","black","white","white","black","white","white","black","black","black","white","white","black","black","black","white","black","white","white","white","black","black","black","black","white","white","black","white","black","white","white","white","black","white","black","white","black","white","black","black","black","black","black","black","white","white","black","black","white","black","white","black","black","white","black","white","white","white","white","black","black","black","black","white","black","white","black","white","black","white","white","white","white","white","black","black","white","black","black","black","white","black","black","black","white","black","white","white","black","black","white","white","black","white","black","black","black","black","black","black","black","white","white","white","white","white","black","white","white","black","white","white","white","black","black","black","black"],"dot_shape":"circle","background_color":"#AAA","RDK_type":3,"aperture_type":2,"reinsert_type":2,"frame_rate":16.798319327731093,"frame_rate_array":[33,17,16,17,16,17,17,16,17,17,17,16,17,16,17,17,15,18,16,17,17,16,17,17,16,17,17,17,16,17,17,16,17,17,16,17,17,16,17,17,16,17,16,17,16,18,16,17,17,16,17,17,16,17,16,17,17,17,16,17,17,16,17,17,16,17,17,15,18,17,16,17,16,17,16,18,16,17,17,16,17,17,16,17,17,16,17,17,16,17,16,17,17,17,16,17,16,17,17,16,17,17,17,16,17,17,16,17,17,16,17,17,17,16,16,17,17,16,17],"number_of_frames":119,"aperture_center_x":735,"aperture_center_y":459.5,"fixation_cross":true,"fixation_cross_width":15,"fixation_cross_height":15,"fixation_cross_color":"#111","fixation_cross_thickness":1,"border":true,"border_thickness":2,"border_color":"transparent","canvas_width":1470,"canvas_height":919,"trial_type":"rdk","trial_index":68,"plugin_version":"2.0.0","time_elapsed":209937},{"rt":2693,"stimulus":"\n        <div class=\"response-container\">\n          <div class=\"response-instruction\">\n            <p>rotate the bar by using the left and right arrow keys.</p>\n            <p>when you are determined, press the Enter key.</p>\n          </div>\n          <div class=\"response-circle\">\n            <div class=\"response-fixation\"></div>\n            <div id=\"bar\" class=\"rotating-bar\"></div>\n          </div>\n        </div>\n      ","response":"Enter","trial_type":"html-keyboard-response","trial_index":69,"plugin_version":"2.1.0","time_elapsed":212632,"random_initial_angle":40,"response_angle_css":-38,"response_angle_rdk":128,"angular_error_target":122,"angular_error_distractor":20,"target_direction":6,"target_group":"black","reward_points":0},{"rt":null,"stimulus":"\n          <p style=\"color: #FF3333;\">Your reward: 0 points</p>\n        ","response":null,"trial_type":"html-keyboard-response","trial_index":70,"plugin_version":"2.1.0","time_elapsed":214533},{"rt":null,"stimulus":"<div class=\"fixation\" style=\"font-size: 60px;\">+</div>","response":null,"trial_type":"html-keyboard-response","trial_index":71,"plugin_version":"2.1.0","time_elapsed":215535},{"phase":"learning-awareness","target_group":"black","condition_label":"B_H_vs_W_L_rep4","target_direction":346,"distractor_direction":106,"session_rotation":251,"rt":-1,"response":"","correct":false,"choices":"ALL_KEYS","correct_choice":["a"],"trial_duration":2000,"flip_timestamps":[],"response_ends_trial":false,"number_of_apertures":200,"number_of_dots":[1,1,1,1,1,1,1,1,1,1,1,1,1,1,1,1,1,1,1,1,1,1,1,1,1,1,1,1,1,1,1,1,1,1,1,1,1,1,1,1,1,1,1,1,1,1,1,1,1,1,1,1,1,1,1,1,1,1,1,1,1,1,1,1,1,1,1,1,1,1,1,1,1,1,1,1,1,1,1,1,1,1,1,1,1,1,1,1,1,1,1,1,1,1,1,1,1,1,1,1,1,1,1,1,1,1,1,1,1,1,1,1,1,1,1,1,1,1,1,1,1,1,1,1,1,1,1,1,1,1,1,1,1,1,1,1,1,1,1,1,1,1,1,1,1,1,1,1,1,1,1,1,1,1,1,1,1,1,1,1,1,1,1,1,1,1,1,1,1,1,1,1,1,1,1,1,1,1,1,1,1,1,1,1,1,1,1,1,1,1,1,1,1,1,1,1,1,1,1,1],"number_of_sets":1,"coherent_direction":[346,106,346,106,346,346,106,346,346,346,346,346,106,346,346,346,346,106,346,106,106,106,106,106,106,106,106,106,346,346,106,346,106,106,106,346,346,106,106,346,346,106,106,346,346,346,346,106,346,346,346,106,106,106,346,106,346,106,346,346,346,106,346,106,106,346,346,106,346,346,106,346,106,106,346,346,346,346,106,106,346,346,106,106,346,346,106,346,106,346,106,346,106,346,106,106,106,106,106,106,346,106,346,106,106,346,106,106,106,106,346,106,346,346,106,106,106,106,346,106,346,346,106,106,346,106,346,106,346,106,106,346,106,106,106,346,106,346,346,106,106,346,346,346,106,346,346,106,346,346,106,346,106,346,346,106,106,106,346,346,346,106,346,346,346,106,106,106,106,346,346,106,346,106,346,346,106,106,106,106,106,106,346,346,346,106,346,346,106,106,346,346,106,106,106,346,346,346,346,346],"coherence":1,"opposite_coherence":0,"dot_radius":2,"dot_side_length":1,"dot_life":-1,"move_distance":1,"aperture_width":300,"aperture_height":300,"dot_color":["black","white","black","white","black","black","white","black","black","black","black","black","white","black","black","black","black","white","black","white","white","white","white","white","white","white","white","white","black","black","white","black","white","white","white","black","black","white","white","black","black","white","white","black","black","black","black","white","black","black","black","white","white","white","black","white","black","white","black","black","black","white","black","white","white","black","black","white","black","black","white","black","white","white","black","black","black","black","white","white","black","black","white","white","black","black","white","black","white","black","white","black","white","black","white","white","white","white","white","white","black","white","black","white","white","black","white","white","white","white","black","white","black","black","white","white","white","white","black","white","black","black","white","white","black","white","black","white","black","white","white","black","white","white","white","black","white","black","black","white","white","black","black","black","white","black","black","white","black","black","white","black","white","black","black","white","white","white","black","black","black","white","black","black","black","white","white","white","white","black","black","white","black","white","black","black","white","white","white","white","white","white","black","black","black","white","black","black","white","white","black","black","white","white","white","black","black","black","black","black"],"dot_shape":"circle","background_color":"#AAA","RDK_type":3,"aperture_type":2,"reinsert_type":2,"frame_rate":16.764705882352942,"frame_rate_array":[29,16,17,16,17,16,18,16,17,16,17,17,16,17,16,17,17,17,17,16,17,17,16,17,17,16,17,17,16,17,17,16,17,17,16,16,18,16,17,17,16,17,16,17,16,18,16,17,17,16,17,16,17,17,17,16,17,17,16,17,17,16,16,18,16,17,16,17,17,17,16,17,16,17,17,17,16,16,18,16,17,16,17,16,17,17,17,17,16,17,17,16,17,17,16,17,17,16,16,17,17,17,17,16,17,17,16,17,16,17,17,17,16,17,17,16,17,17,16],"number_of_frames":119,"aperture_center_x":735,"aperture_center_y":459.5,"fixation_cross":true,"fixation_cross_width":15,"fixation_cross_height":15,"fixation_cross_color":"#111","fixation_cross_thickness":1,"border":true,"border_thickness":2,"border_color":"transparent","canvas_width":1470,"canvas_height":919,"trial_type":"rdk","trial_index":72,"plugin_version":"2.0.0","time_elapsed":217539},{"rt":2630,"stimulus":"\n        <div class=\"response-container\">\n          <div class=\"response-instruction\">\n            <p>rotate the bar by using the left and right arrow keys.</p>\n            <p>when you are determined, press the Enter key.</p>\n          </div>\n          <div class=\"response-circle\">\n            <div class=\"response-fixation\"></div>\n            <div id=\"bar\" class=\"rotating-bar\"></div>\n          </div>\n        </div>\n      ","response":"Enter","trial_type":"html-keyboard-response","trial_index":73,"plugin_version":"2.1.0","time_elapsed":220171,"random_initial_angle":7,"response_angle_css":129,"response_angle_rdk":321,"angular_error_target":-25,"angular_error_distractor":-145,"target_direction":346,"target_group":"black","reward_points":5},{"rt":null,"stimulus":"\n          <p style=\"color: #00FF00;\">Your reward: 5 points</p>\n        ","response":null,"trial_type":"html-keyboard-response","trial_index":74,"plugin_version":"2.1.0","time_elapsed":222173},{"rt":null,"stimulus":"<div class=\"fixation\" style=\"font-size: 60px;\">+</div>","response":null,"trial_type":"html-keyboard-response","trial_index":75,"plugin_version":"2.1.0","time_elapsed":223175},{"phase":"learning-awareness","target_group":"black","condition_label":"B_H_vs_W_L_rep13","target_direction":6,"distractor_direction":100,"session_rotation":251,"rt":-1,"response":"","correct":false,"choices":"ALL_KEYS","correct_choice":["a"],"trial_duration":2000,"flip_timestamps":[],"response_ends_trial":false,"number_of_apertures":200,"number_of_dots":[1,1,1,1,1,1,1,1,1,1,1,1,1,1,1,1,1,1,1,1,1,1,1,1,1,1,1,1,1,1,1,1,1,1,1,1,1,1,1,1,1,1,1,1,1,1,1,1,1,1,1,1,1,1,1,1,1,1,1,1,1,1,1,1,1,1,1,1,1,1,1,1,1,1,1,1,1,1,1,1,1,1,1,1,1,1,1,1,1,1,1,1,1,1,1,1,1,1,1,1,1,1,1,1,1,1,1,1,1,1,1,1,1,1,1,1,1,1,1,1,1,1,1,1,1,1,1,1,1,1,1,1,1,1,1,1,1,1,1,1,1,1,1,1,1,1,1,1,1,1,1,1,1,1,1,1,1,1,1,1,1,1,1,1,1,1,1,1,1,1,1,1,1,1,1,1,1,1,1,1,1,1,1,1,1,1,1,1,1,1,1,1,1,1,1,1,1,1,1,1],"number_of_sets":1,"coherent_direction":[6,6,6,100,100,100,100,100,100,100,100,100,6,6,6,100,6,100,6,6,100,100,6,100,100,6,6,100,100,6,100,100,100,100,6,6,100,100,100,6,100,6,6,100,6,100,6,6,6,6,6,6,6,100,6,100,6,6,6,6,6,6,100,100,6,100,6,6,6,100,6,100,6,100,6,100,6,100,100,6,6,6,6,100,6,100,6,100,100,100,100,100,6,6,100,6,100,100,6,100,6,6,6,6,6,6,100,6,100,100,100,6,6,100,6,6,100,100,100,100,6,100,6,100,100,6,100,100,6,6,100,100,100,6,6,100,6,6,100,100,100,6,100,100,100,100,100,6,100,100,6,6,6,6,100,100,6,100,6,6,6,6,100,100,100,6,6,6,6,100,100,100,6,100,100,100,6,100,100,6,100,6,100,100,100,100,6,6,100,100,6,6,6,6,6,6,100,100,6,6],"coherence":1,"opposite_coherence":0,"dot_radius":2,"dot_side_length":1,"dot_life":-1,"move_distance":1,"aperture_width":300,"aperture_height":300,"dot_color":["black","black","black","white","white","white","white","white","white","white","white","white","black","black","black","white","black","white","black","black","white","white","black","white","white","black","black","white","white","black","white","white","white","white","black","black","white","white","white","black","white","black","black","white","black","white","black","black","black","black","black","black","black","white","black","white","black","black","black","black","black","black","white","white","black","white","black","black","black","white","black","white","black","white","black","white","black","white","white","black","black","black","black","white","black","white","black","white","white","white","white","white","black","black","white","black","white","white","black","white","black","black","black","black","black","black","white","black","white","white","white","black","black","white","black","black","white","white","white","white","black","white","black","white","white","black","white","white","black","black","white","white","white","black","black","white","black","black","white","white","white","black","white","white","white","white","white","black","white","white","black","black","black","black","white","white","black","white","black","black","black","black","white","white","white","black","black","black","black","white","white","white","black","white","white","white","black","white","white","black","white","black","white","white","white","white","black","black","white","white","black","black","black","black","black","black","white","white","black","black"],"dot_shape":"circle","background_color":"#AAA","RDK_type":3,"aperture_type":2,"reinsert_type":2,"frame_rate":16.722689075630253,"frame_rate_array":[24,17,16,17,17,16,17,16,17,16,18,16,17,17,16,17,16,17,17,16,17,17,17,16,17,16,17,17,17,16,17,16,18,16,16,17,16,17,17,17,16,17,17,16,17,17,17,16,17,16,17,17,16,17,17,17,16,17,17,17,16,16,17,17,16,17,17,17,16,17,16,17,17,16,17,16,17,17,17,17,16,17,17,16,17,17,16,17,17,16,17,16,17,17,17,16,17,17,16,17,16,17,17,17,16,16,18,16,17,16,17,17,16,17,17,17,16,17,16],"number_of_frames":119,"aperture_center_x":735,"aperture_center_y":459.5,"fixation_cross":true,"fixation_cross_width":15,"fixation_cross_height":15,"fixation_cross_color":"#111","fixation_cross_thickness":1,"border":true,"border_thickness":2,"border_color":"transparent","canvas_width":1470,"canvas_height":919,"trial_type":"rdk","trial_index":76,"plugin_version":"2.0.0","time_elapsed":225178},{"rt":1538,"stimulus":"\n        <div class=\"response-container\">\n          <div class=\"response-instruction\">\n            <p>rotate the bar by using the left and right arrow keys.</p>\n            <p>when you are determined, press the Enter key.</p>\n          </div>\n          <div class=\"response-circle\">\n            <div class=\"response-fixation\"></div>\n            <div id=\"bar\" class=\"rotating-bar\"></div>\n          </div>\n        </div>\n      ","response":"Enter","trial_type":"html-keyboard-response","trial_index":77,"plugin_version":"2.1.0","time_elapsed":226717,"random_initial_angle":344,"response_angle_css":331,"response_angle_rdk":119,"angular_error_target":113,"angular_error_distractor":19,"target_direction":6,"target_group":"black","reward_points":0},{"rt":null,"stimulus":"\n          <p style=\"color: #FF3333;\">Your reward: 0 points</p>\n        ","response":null,"trial_type":"html-keyboard-response","trial_index":78,"plugin_version":"2.1.0","time_elapsed":228719},{"rt":null,"stimulus":"<div class=\"fixation\" style=\"font-size: 60px;\">+</div>","response":null,"trial_type":"html-keyboard-response","trial_index":79,"plugin_version":"2.1.0","time_elapsed":229721},{"phase":"learning-awareness","target_group":"black","condition_label":"B_H_vs_W_L_rep20","target_direction":344,"distractor_direction":90,"session_rotation":251,"rt":-1,"response":"","correct":false,"choices":"ALL_KEYS","correct_choice":["a"],"trial_duration":2000,"flip_timestamps":[],"response_ends_trial":false,"number_of_apertures":200,"number_of_dots":[1,1,1,1,1,1,1,1,1,1,1,1,1,1,1,1,1,1,1,1,1,1,1,1,1,1,1,1,1,1,1,1,1,1,1,1,1,1,1,1,1,1,1,1,1,1,1,1,1,1,1,1,1,1,1,1,1,1,1,1,1,1,1,1,1,1,1,1,1,1,1,1,1,1,1,1,1,1,1,1,1,1,1,1,1,1,1,1,1,1,1,1,1,1,1,1,1,1,1,1,1,1,1,1,1,1,1,1,1,1,1,1,1,1,1,1,1,1,1,1,1,1,1,1,1,1,1,1,1,1,1,1,1,1,1,1,1,1,1,1,1,1,1,1,1,1,1,1,1,1,1,1,1,1,1,1,1,1,1,1,1,1,1,1,1,1,1,1,1,1,1,1,1,1,1,1,1,1,1,1,1,1,1,1,1,1,1,1,1,1,1,1,1,1,1,1,1,1,1,1],"number_of_sets":1,"coherent_direction":[344,344,344,90,90,90,90,90,344,344,344,344,344,344,90,344,344,344,90,344,344,90,344,90,90,344,90,344,344,344,90,90,90,344,344,344,90,90,90,344,344,344,90,90,90,344,344,90,344,90,344,90,344,344,90,90,90,90,90,90,90,90,90,344,344,344,90,344,90,344,344,344,344,344,344,344,344,344,344,344,90,90,90,90,344,90,344,90,90,344,344,90,90,90,90,344,344,344,90,90,90,90,344,90,90,344,90,344,90,344,90,344,344,90,344,90,90,344,90,90,344,344,90,90,344,90,344,90,90,90,344,344,90,90,90,90,344,344,344,344,90,344,90,344,344,344,90,90,344,344,90,344,90,90,90,344,344,344,90,90,90,90,90,344,344,90,90,90,90,344,344,344,90,90,344,344,90,90,344,344,344,344,344,344,90,90,90,90,90,90,344,344,344,90,344,344,90,344,90,90],"coherence":1,"opposite_coherence":0,"dot_radius":2,"dot_side_length":1,"dot_life":-1,"move_distance":1,"aperture_width":300,"aperture_height":300,"dot_color":["black","black","black","white","white","white","white","white","black","black","black","black","black","black","white","black","black","black","white","black","black","white","black","white","white","black","white","black","black","black","white","white","white","black","black","black","white","white","white","black","black","black","white","white","white","black","black","white","black","white","black","white","black","black","white","white","white","white","white","white","white","white","white","black","black","black","white","black","white","black","black","black","black","black","black","black","black","black","black","black","white","white","white","white","black","white","black","white","white","black","black","white","white","white","white","black","black","black","white","white","white","white","black","white","white","black","white","black","white","black","white","black","black","white","black","white","white","black","white","white","black","black","white","white","black","white","black","white","white","white","black","black","white","white","white","white","black","black","black","black","white","black","white","black","black","black","white","white","black","black","white","black","white","white","white","black","black","black","white","white","white","white","white","black","black","white","white","white","white","black","black","black","white","white","black","black","white","white","black","black","black","black","black","black","white","white","white","white","white","white","black","black","black","white","black","black","white","black","white","white"],"dot_shape":"circle","background_color":"#AAA","RDK_type":3,"aperture_type":2,"reinsert_type":2,"frame_rate":16.747899159663866,"frame_rate_array":[26,17,17,17,16,16,17,17,17,17,17,16,17,17,16,17,16,17,17,17,16,16,18,16,17,17,16,17,17,16,17,17,16,16,18,16,17,17,16,17,17,16,16,17,17,17,17,16,17,16,17,17,17,16,17,16,17,17,17,16,17,16,17,17,17,16,17,16,17,17,17,16,17,17,16,17,17,16,17,16,17,17,17,16,17,16,17,17,17,16,17,17,16,17,17,16,16,18,16,17,16,17,17,16,17,16,18,16,17,17,16,16,18,16,17,17,16,17,16],"number_of_frames":119,"aperture_center_x":735,"aperture_center_y":459.5,"fixation_cross":true,"fixation_cross_width":15,"fixation_cross_height":15,"fixation_cross_color":"#111","fixation_cross_thickness":1,"border":true,"border_thickness":2,"border_color":"transparent","canvas_width":1470,"canvas_height":919,"trial_type":"rdk","trial_index":80,"plugin_version":"2.0.0","time_elapsed":231725},{"rt":1643,"stimulus":"\n        <div class=\"response-container\">\n          <div class=\"response-instruction\">\n            <p>rotate the bar by using the left and right arrow keys.</p>\n            <p>when you are determined, press the Enter key.</p>\n          </div>\n          <div class=\"response-circle\">\n            <div class=\"response-fixation\"></div>\n            <div id=\"bar\" class=\"rotating-bar\"></div>\n          </div>\n        </div>\n      ","response":"Enter","trial_type":"html-keyboard-response","trial_index":81,"plugin_version":"2.1.0","time_elapsed":233369,"random_initial_angle":107,"response_angle_css":121,"response_angle_rdk":329,"angular_error_target":-15,"angular_error_distractor":-121,"target_direction":344,"target_group":"black","reward_points":7},{"rt":null,"stimulus":"\n          <p style=\"color: #00FF00;\">Your reward: 7 points</p>\n        ","response":null,"trial_type":"html-keyboard-response","trial_index":82,"plugin_version":"2.1.0","time_elapsed":235370},{"rt":null,"stimulus":"<div class=\"fixation\" style=\"font-size: 60px;\">+</div>","response":null,"trial_type":"html-keyboard-response","trial_index":83,"plugin_version":"2.1.0","time_elapsed":236372},{"phase":"learning-awareness","target_group":"black","condition_label":"B_H_vs_W_L_rep10","target_direction":353,"distractor_direction":115,"session_rotation":251,"rt":-1,"response":"","correct":false,"choices":"ALL_KEYS","correct_choice":["a"],"trial_duration":2000,"flip_timestamps":[],"response_ends_trial":false,"number_of_apertures":200,"number_of_dots":[1,1,1,1,1,1,1,1,1,1,1,1,1,1,1,1,1,1,1,1,1,1,1,1,1,1,1,1,1,1,1,1,1,1,1,1,1,1,1,1,1,1,1,1,1,1,1,1,1,1,1,1,1,1,1,1,1,1,1,1,1,1,1,1,1,1,1,1,1,1,1,1,1,1,1,1,1,1,1,1,1,1,1,1,1,1,1,1,1,1,1,1,1,1,1,1,1,1,1,1,1,1,1,1,1,1,1,1,1,1,1,1,1,1,1,1,1,1,1,1,1,1,1,1,1,1,1,1,1,1,1,1,1,1,1,1,1,1,1,1,1,1,1,1,1,1,1,1,1,1,1,1,1,1,1,1,1,1,1,1,1,1,1,1,1,1,1,1,1,1,1,1,1,1,1,1,1,1,1,1,1,1,1,1,1,1,1,1,1,1,1,1,1,1,1,1,1,1,1,1],"number_of_sets":1,"coherent_direction":[353,115,115,115,115,353,353,115,115,353,115,115,353,353,353,353,115,115,115,115,353,115,353,353,353,115,115,353,115,115,115,353,353,353,353,115,353,115,353,115,115,353,115,353,353,353,353,115,115,353,353,353,115,115,353,115,115,115,115,115,115,115,353,115,115,353,353,115,353,353,115,115,353,353,353,353,353,115,115,353,353,353,353,353,115,353,353,353,115,115,115,115,353,353,353,115,353,353,115,115,115,353,353,115,115,353,353,115,115,353,353,115,353,115,353,115,353,115,353,353,353,353,115,115,353,353,115,115,353,115,353,115,115,353,115,115,353,115,115,115,115,115,115,353,115,115,353,353,353,353,115,115,353,115,353,353,353,115,353,353,115,115,115,353,115,115,115,353,353,353,353,353,115,115,115,353,115,353,353,115,115,115,115,353,353,115,353,353,115,353,353,115,115,115,353,353,353,115,353,115],"coherence":1,"opposite_coherence":0,"dot_radius":2,"dot_side_length":1,"dot_life":-1,"move_distance":1,"aperture_width":300,"aperture_height":300,"dot_color":["black","white","white","white","white","black","black","white","white","black","white","white","black","black","black","black","white","white","white","white","black","white","black","black","black","white","white","black","white","white","white","black","black","black","black","white","black","white","black","white","white","black","white","black","black","black","black","white","white","black","black","black","white","white","black","white","white","white","white","white","white","white","black","white","white","black","black","white","black","black","white","white","black","black","black","black","black","white","white","black","black","black","black","black","white","black","black","black","white","white","white","white","black","black","black","white","black","black","white","white","white","black","black","white","white","black","black","white","white","black","black","white","black","white","black","white","black","white","black","black","black","black","white","white","black","black","white","white","black","white","black","white","white","black","white","white","black","white","white","white","white","white","white","black","white","white","black","black","black","black","white","white","black","white","black","black","black","white","black","black","white","white","white","black","white","white","white","black","black","black","black","black","white","white","white","black","white","black","black","white","white","white","white","black","black","white","black","black","white","black","black","white","white","white","black","black","black","white","black","white"],"dot_shape":"circle","background_color":"#AAA","RDK_type":3,"aperture_type":2,"reinsert_type":2,"frame_rate":16.73109243697479,"frame_rate_array":[24,17,17,17,17,16,17,16,17,17,16,17,17,17,16,17,16,17,16,18,16,16,18,16,17,17,16,17,16,17,16,18,16,16,17,17,17,16,17,17,16,17,17,16,16,18,17,16,17,17,16,17,17,16,17,17,16,17,17,16,17,17,16,17,17,16,17,17,16,17,17,16,16,18,16,17,17,16,16,17,17,16,18,16,17,17,16,17,16,17,17,17,16,16,17,17,17,16,17,17,17,16,16,18,16,17,16,17,17,16,17,17,16,17,17,17,16,16,17],"number_of_frames":119,"aperture_center_x":735,"aperture_center_y":459.5,"fixation_cross":true,"fixation_cross_width":15,"fixation_cross_height":15,"fixation_cross_color":"#111","fixation_cross_thickness":1,"border":true,"border_thickness":2,"border_color":"transparent","canvas_width":1470,"canvas_height":919,"trial_type":"rdk","trial_index":84,"plugin_version":"2.0.0","time_elapsed":238376},{"rt":2325,"stimulus":"\n        <div class=\"response-container\">\n          <div class=\"response-instruction\">\n            <p>rotate the bar by using the left and right arrow keys.</p>\n            <p>when you are determined, press the Enter key.</p>\n          </div>\n          <div class=\"response-circle\">\n            <div class=\"response-fixation\"></div>\n            <div id=\"bar\" class=\"rotating-bar\"></div>\n          </div>\n        </div>\n      ","response":"Enter","trial_type":"html-keyboard-response","trial_index":85,"plugin_version":"2.1.0","time_elapsed":240702,"random_initial_angle":71,"response_angle_css":128,"response_angle_rdk":322,"angular_error_target":-31,"angular_error_distractor":-153,"target_direction":353,"target_group":"black","reward_points":3},{"rt":null,"stimulus":"\n          <p style=\"color: #00FF00;\">Your reward: 3 points</p>\n        ","response":null,"trial_type":"html-keyboard-response","trial_index":86,"plugin_version":"2.1.0","time_elapsed":242704},{"rt":null,"stimulus":"<div class=\"fixation\" style=\"font-size: 60px;\">+</div>","response":null,"trial_type":"html-keyboard-response","trial_index":87,"plugin_version":"2.1.0","time_elapsed":243706},{"phase":"learning-awareness","target_group":"white","condition_label":"W_H_vs_B_L_rep17","target_direction":293,"distractor_direction":169,"session_rotation":251,"rt":-1,"response":"","correct":false,"choices":"ALL_KEYS","correct_choice":["a"],"trial_duration":2000,"flip_timestamps":[],"response_ends_trial":false,"number_of_apertures":200,"number_of_dots":[1,1,1,1,1,1,1,1,1,1,1,1,1,1,1,1,1,1,1,1,1,1,1,1,1,1,1,1,1,1,1,1,1,1,1,1,1,1,1,1,1,1,1,1,1,1,1,1,1,1,1,1,1,1,1,1,1,1,1,1,1,1,1,1,1,1,1,1,1,1,1,1,1,1,1,1,1,1,1,1,1,1,1,1,1,1,1,1,1,1,1,1,1,1,1,1,1,1,1,1,1,1,1,1,1,1,1,1,1,1,1,1,1,1,1,1,1,1,1,1,1,1,1,1,1,1,1,1,1,1,1,1,1,1,1,1,1,1,1,1,1,1,1,1,1,1,1,1,1,1,1,1,1,1,1,1,1,1,1,1,1,1,1,1,1,1,1,1,1,1,1,1,1,1,1,1,1,1,1,1,1,1,1,1,1,1,1,1,1,1,1,1,1,1,1,1,1,1,1,1],"number_of_sets":1,"coherent_direction":[169,169,293,293,293,169,293,293,293,293,293,169,293,293,169,293,293,169,293,293,169,293,169,293,169,293,169,169,293,169,293,169,169,169,169,293,293,293,169,169,293,293,293,293,169,169,169,169,169,293,293,169,293,169,293,293,293,169,293,293,293,293,293,169,169,169,293,169,293,169,293,169,169,293,169,169,169,169,169,169,169,293,293,169,293,169,169,169,169,169,169,293,169,293,169,293,293,293,293,169,169,169,293,293,293,169,293,293,293,169,169,293,293,169,293,169,169,169,293,169,293,293,169,169,169,293,169,169,293,169,169,169,169,169,169,293,293,169,169,293,169,169,169,169,293,293,169,169,293,293,293,169,293,169,169,293,293,293,293,293,169,169,169,293,293,293,293,293,293,293,169,293,293,169,293,169,169,169,293,293,169,293,169,293,169,169,169,293,169,293,169,169,293,293,293,293,169,293,293,169],"coherence":1,"opposite_coherence":0,"dot_radius":2,"dot_side_length":1,"dot_life":-1,"move_distance":1,"aperture_width":300,"aperture_height":300,"dot_color":["black","black","white","white","white","black","white","white","white","white","white","black","white","white","black","white","white","black","white","white","black","white","black","white","black","white","black","black","white","black","white","black","black","black","black","white","white","white","black","black","white","white","white","white","black","black","black","black","black","white","white","black","white","black","white","white","white","black","white","white","white","white","white","black","black","black","white","black","white","black","white","black","black","white","black","black","black","black","black","black","black","white","white","black","white","black","black","black","black","black","black","white","black","white","black","white","white","white","white","black","black","black","white","white","white","black","white","white","white","black","black","white","white","black","white","black","black","black","white","black","white","white","black","black","black","white","black","black","white","black","black","black","black","black","black","white","white","black","black","white","black","black","black","black","white","white","black","black","white","white","white","black","white","black","black","white","white","white","white","white","black","black","black","white","white","white","white","white","white","white","black","white","white","black","white","black","black","black","white","white","black","white","black","white","black","black","black","white","black","white","black","black","white","white","white","white","black","white","white","black"],"dot_shape":"circle","background_color":"#AAA","RDK_type":3,"aperture_type":2,"reinsert_type":2,"frame_rate":16.722689075630253,"frame_rate_array":[23,17,16,17,17,17,16,17,17,16,17,16,17,16,17,17,17,17,16,17,17,15,18,16,17,17,17,16,17,17,16,17,16,17,16,18,16,17,17,16,17,16,17,16,18,16,17,16,17,17,17,16,17,17,16,17,16,17,17,16,17,17,17,16,17,17,15,18,17,16,17,17,16,17,17,16,17,17,16,16,18,16,17,17,16,17,16,17,17,16,17,17,17,16,17,16,17,17,16,17,17,17,16,17,16,16,18,16,17,17,17,16,17,16,17,17,17,16,17],"number_of_frames":119,"aperture_center_x":735,"aperture_center_y":459.5,"fixation_cross":true,"fixation_cross_width":15,"fixation_cross_height":15,"fixation_cross_color":"#111","fixation_cross_thickness":1,"border":true,"border_thickness":2,"border_color":"transparent","canvas_width":1470,"canvas_height":919,"trial_type":"rdk","trial_index":88,"plugin_version":"2.0.0","time_elapsed":245709},{"rt":2383,"stimulus":"\n        <div class=\"response-container\">\n          <div class=\"response-instruction\">\n            <p>rotate the bar by using the left and right arrow keys.</p>\n            <p>when you are determined, press the Enter key.</p>\n          </div>\n          <div class=\"response-circle\">\n            <div class=\"response-fixation\"></div>\n            <div id=\"bar\" class=\"rotating-bar\"></div>\n          </div>\n        </div>\n      ","response":"Enter","trial_type":"html-keyboard-response","trial_index":89,"plugin_version":"2.1.0","time_elapsed":248094,"random_initial_angle":33,"response_angle_css":-66,"response_angle_rdk":156,"angular_error_target":-137,"angular_error_distractor":-13,"target_direction":293,"target_group":"white","reward_points":0},{"rt":null,"stimulus":"\n          <p style=\"color: #FF3333;\">Your reward: 0 points</p>\n        ","response":null,"trial_type":"html-keyboard-response","trial_index":90,"plugin_version":"2.1.0","time_elapsed":250096},{"rt":null,"stimulus":"<div class=\"fixation\" style=\"font-size: 60px;\">+</div>","response":null,"trial_type":"html-keyboard-response","trial_index":91,"plugin_version":"2.1.0","time_elapsed":251098},{"phase":"learning-awareness","target_group":"white","condition_label":"W_H_vs_B_L_rep1","target_direction":285,"distractor_direction":166,"session_rotation":251,"rt":-1,"response":"","correct":false,"choices":"ALL_KEYS","correct_choice":["a"],"trial_duration":2000,"flip_timestamps":[],"response_ends_trial":false,"number_of_apertures":200,"number_of_dots":[1,1,1,1,1,1,1,1,1,1,1,1,1,1,1,1,1,1,1,1,1,1,1,1,1,1,1,1,1,1,1,1,1,1,1,1,1,1,1,1,1,1,1,1,1,1,1,1,1,1,1,1,1,1,1,1,1,1,1,1,1,1,1,1,1,1,1,1,1,1,1,1,1,1,1,1,1,1,1,1,1,1,1,1,1,1,1,1,1,1,1,1,1,1,1,1,1,1,1,1,1,1,1,1,1,1,1,1,1,1,1,1,1,1,1,1,1,1,1,1,1,1,1,1,1,1,1,1,1,1,1,1,1,1,1,1,1,1,1,1,1,1,1,1,1,1,1,1,1,1,1,1,1,1,1,1,1,1,1,1,1,1,1,1,1,1,1,1,1,1,1,1,1,1,1,1,1,1,1,1,1,1,1,1,1,1,1,1,1,1,1,1,1,1,1,1,1,1,1,1],"number_of_sets":1,"coherent_direction":[285,166,166,166,166,285,285,285,166,166,285,166,166,166,166,166,285,166,166,285,166,166,166,166,285,285,285,166,285,166,285,285,166,285,285,166,166,166,285,285,285,285,166,285,285,285,166,166,166,285,166,166,166,285,285,285,285,166,166,166,166,285,166,285,285,285,285,285,166,166,285,285,285,285,166,285,285,166,285,285,285,285,166,285,285,166,285,166,285,285,166,285,166,166,166,166,166,285,166,166,285,285,285,166,166,285,285,166,166,166,285,285,285,285,285,166,166,166,285,166,166,285,166,166,285,285,285,166,285,285,285,285,285,285,166,166,285,285,166,285,285,285,166,166,166,285,166,285,166,285,166,166,166,166,285,285,166,285,285,166,166,285,166,166,285,285,166,285,166,166,166,285,285,166,166,285,166,166,166,166,285,166,166,285,166,166,285,285,285,166,166,285,285,166,166,285,285,285,166,166],"coherence":1,"opposite_coherence":0,"dot_radius":2,"dot_side_length":1,"dot_life":-1,"move_distance":1,"aperture_width":300,"aperture_height":300,"dot_color":["white","black","black","black","black","white","white","white","black","black","white","black","black","black","black","black","white","black","black","white","black","black","black","black","white","white","white","black","white","black","white","white","black","white","white","black","black","black","white","white","white","white","black","white","white","white","black","black","black","white","black","black","black","white","white","white","white","black","black","black","black","white","black","white","white","white","white","white","black","black","white","white","white","white","black","white","white","black","white","white","white","white","black","white","white","black","white","black","white","white","black","white","black","black","black","black","black","white","black","black","white","white","white","black","black","white","white","black","black","black","white","white","white","white","white","black","black","black","white","black","black","white","black","black","white","white","white","black","white","white","white","white","white","white","black","black","white","white","black","white","white","white","black","black","black","white","black","white","black","white","black","black","black","black","white","white","black","white","white","black","black","white","black","black","white","white","black","white","black","black","black","white","white","black","black","white","black","black","black","black","white","black","black","white","black","black","white","white","white","black","black","white","white","black","black","white","white","white","black","black"],"dot_shape":"circle","background_color":"#AAA","RDK_type":3,"aperture_type":2,"reinsert_type":2,"frame_rate":16.658333333333335,"frame_rate_array":[16,17,16,17,17,16,18,16,16,17,17,16,18,16,17,17,16,17,16,17,17,17,16,17,17,16,17,17,16,17,16,17,16,17,17,17,17,16,16,17,17,17,17,16,16,18,16,17,17,16,17,17,16,17,16,17,17,17,16,17,17,16,17,16,17,17,17,16,16,18,16,17,16,17,17,17,16,17,17,16,17,16,17,17,17,16,17,17,16,17,17,16,17,17,15,18,17,16,16,17,16,17,18,16,17,17,16,17,17,16,17,16,17,17,17,16,17,16,17,16],"number_of_frames":120,"aperture_center_x":735,"aperture_center_y":459.5,"fixation_cross":true,"fixation_cross_width":15,"fixation_cross_height":15,"fixation_cross_color":"#111","fixation_cross_thickness":1,"border":true,"border_thickness":2,"border_color":"transparent","canvas_width":1470,"canvas_height":919,"trial_type":"rdk","trial_index":92,"plugin_version":"2.0.0","time_elapsed":253100},{"rt":1674,"stimulus":"\n        <div class=\"response-container\">\n          <div class=\"response-instruction\">\n            <p>rotate the bar by using the left and right arrow keys.</p>\n            <p>when you are determined, press the Enter key.</p>\n          </div>\n          <div class=\"response-circle\">\n            <div class=\"response-fixation\"></div>\n            <div id=\"bar\" class=\"rotating-bar\"></div>\n          </div>\n        </div>\n      ","response":"Enter","trial_type":"html-keyboard-response","trial_index":93,"plugin_version":"2.1.0","time_elapsed":254776,"random_initial_angle":292,"response_angle_css":307,"response_angle_rdk":143,"angular_error_target":-142,"angular_error_distractor":-23,"target_direction":285,"target_group":"white","reward_points":0},{"rt":null,"stimulus":"\n          <p style=\"color: #FF3333;\">Your reward: 0 points</p>\n        ","response":null,"trial_type":"html-keyboard-response","trial_index":94,"plugin_version":"2.1.0","time_elapsed":256778},{"rt":null,"stimulus":"<div class=\"fixation\" style=\"font-size: 60px;\">+</div>","response":null,"trial_type":"html-keyboard-response","trial_index":95,"plugin_version":"2.1.0","time_elapsed":257780},{"phase":"learning-awareness","target_group":"black","condition_label":"B_H_vs_W_L_rep14","target_direction":342,"distractor_direction":89,"session_rotation":251,"rt":-1,"response":"","correct":false,"choices":"ALL_KEYS","correct_choice":["a"],"trial_duration":2000,"flip_timestamps":[],"response_ends_trial":false,"number_of_apertures":200,"number_of_dots":[1,1,1,1,1,1,1,1,1,1,1,1,1,1,1,1,1,1,1,1,1,1,1,1,1,1,1,1,1,1,1,1,1,1,1,1,1,1,1,1,1,1,1,1,1,1,1,1,1,1,1,1,1,1,1,1,1,1,1,1,1,1,1,1,1,1,1,1,1,1,1,1,1,1,1,1,1,1,1,1,1,1,1,1,1,1,1,1,1,1,1,1,1,1,1,1,1,1,1,1,1,1,1,1,1,1,1,1,1,1,1,1,1,1,1,1,1,1,1,1,1,1,1,1,1,1,1,1,1,1,1,1,1,1,1,1,1,1,1,1,1,1,1,1,1,1,1,1,1,1,1,1,1,1,1,1,1,1,1,1,1,1,1,1,1,1,1,1,1,1,1,1,1,1,1,1,1,1,1,1,1,1,1,1,1,1,1,1,1,1,1,1,1,1,1,1,1,1,1,1],"number_of_sets":1,"coherent_direction":[89,89,342,89,89,342,342,342,89,342,89,342,342,89,342,342,89,342,342,342,342,342,89,342,342,342,342,89,89,342,89,89,89,89,89,342,89,342,89,89,342,342,342,89,342,342,89,89,89,342,89,342,89,342,89,342,89,89,342,89,342,89,89,89,89,89,89,342,89,342,342,342,342,342,342,342,89,342,342,342,342,89,89,89,342,342,89,89,89,89,89,342,89,342,89,89,89,89,342,342,89,89,89,342,89,342,89,342,342,89,89,89,89,89,342,89,342,89,342,89,89,89,89,342,342,342,89,342,89,89,89,342,342,342,89,89,342,89,342,342,342,342,342,342,89,89,342,89,89,342,342,342,89,342,89,89,342,342,342,342,342,342,342,89,89,89,342,89,342,89,89,89,89,89,342,89,89,342,89,342,342,342,89,342,342,342,89,342,342,89,342,342,342,342,89,89,342,89,89,89],"coherence":1,"opposite_coherence":0,"dot_radius":2,"dot_side_length":1,"dot_life":-1,"move_distance":1,"aperture_width":300,"aperture_height":300,"dot_color":["white","white","black","white","white","black","black","black","white","black","white","black","black","white","black","black","white","black","black","black","black","black","white","black","black","black","black","white","white","black","white","white","white","white","white","black","white","black","white","white","black","black","black","white","black","black","white","white","white","black","white","black","white","black","white","black","white","white","black","white","black","white","white","white","white","white","white","black","white","black","black","black","black","black","black","black","white","black","black","black","black","white","white","white","black","black","white","white","white","white","white","black","white","black","white","white","white","white","black","black","white","white","white","black","white","black","white","black","black","white","white","white","white","white","black","white","black","white","black","white","white","white","white","black","black","black","white","black","white","white","white","black","black","black","white","white","black","white","black","black","black","black","black","black","white","white","black","white","white","black","black","black","white","black","white","white","black","black","black","black","black","black","black","white","white","white","black","white","black","white","white","white","white","white","black","white","white","black","white","black","black","black","white","black","black","black","white","black","black","white","black","black","black","black","white","white","black","white","white","white"],"dot_shape":"circle","background_color":"#AAA","RDK_type":3,"aperture_type":2,"reinsert_type":2,"frame_rate":16.65546218487395,"frame_rate_array":[16,17,16,17,17,16,17,16,17,17,16,17,17,16,17,17,16,17,17,17,16,16,17,17,17,17,16,16,18,16,17,16,17,17,16,17,16,18,16,17,17,16,17,17,16,17,16,16,18,17,16,17,17,16,17,16,17,17,16,17,17,16,17,17,16,17,17,17,16,17,16,17,17,17,16,17,17,16,16,17,17,17,16,17,16,18,16,17,16,16,18,17,16,17,17,16,17,16,17,17,16,17,17,16,16,18,16,17,17,17,16,17,16,17,17,16,18,16,16],"number_of_frames":119,"aperture_center_x":735,"aperture_center_y":459.5,"fixation_cross":true,"fixation_cross_width":15,"fixation_cross_height":15,"fixation_cross_color":"#111","fixation_cross_thickness":1,"border":true,"border_thickness":2,"border_color":"transparent","canvas_width":1470,"canvas_height":919,"trial_type":"rdk","trial_index":96,"plugin_version":"2.0.0","time_elapsed":259784},{"rt":3094,"stimulus":"\n        <div class=\"response-container\">\n          <div class=\"response-instruction\">\n            <p>rotate the bar by using the left and right arrow keys.</p>\n            <p>when you are determined, press the Enter key.</p>\n          </div>\n          <div class=\"response-circle\">\n            <div class=\"response-fixation\"></div>\n            <div id=\"bar\" class=\"rotating-bar\"></div>\n          </div>\n        </div>\n      ","response":"Enter","trial_type":"html-keyboard-response","trial_index":97,"plugin_version":"2.1.0","time_elapsed":262880,"random_initial_angle":176,"response_angle_css":119,"response_angle_rdk":331,"angular_error_target":-11,"angular_error_distractor":-118,"target_direction":342,"target_group":"black","reward_points":7},{"rt":null,"stimulus":"\n          <p style=\"color: #00FF00;\">Your reward: 7 points</p>\n        ","response":null,"trial_type":"html-keyboard-response","trial_index":98,"plugin_version":"2.1.0","time_elapsed":264881},{"rt":null,"stimulus":"<div class=\"fixation\" style=\"font-size: 60px;\">+</div>","response":null,"trial_type":"html-keyboard-response","trial_index":99,"plugin_version":"2.1.0","time_elapsed":265883},{"phase":"learning-awareness","target_group":"black","condition_label":"B_H_vs_W_L_rep16","target_direction":8,"distractor_direction":109,"session_rotation":251,"rt":-1,"response":"","correct":false,"choices":"ALL_KEYS","correct_choice":["a"],"trial_duration":2000,"flip_timestamps":[],"response_ends_trial":false,"number_of_apertures":200,"number_of_dots":[1,1,1,1,1,1,1,1,1,1,1,1,1,1,1,1,1,1,1,1,1,1,1,1,1,1,1,1,1,1,1,1,1,1,1,1,1,1,1,1,1,1,1,1,1,1,1,1,1,1,1,1,1,1,1,1,1,1,1,1,1,1,1,1,1,1,1,1,1,1,1,1,1,1,1,1,1,1,1,1,1,1,1,1,1,1,1,1,1,1,1,1,1,1,1,1,1,1,1,1,1,1,1,1,1,1,1,1,1,1,1,1,1,1,1,1,1,1,1,1,1,1,1,1,1,1,1,1,1,1,1,1,1,1,1,1,1,1,1,1,1,1,1,1,1,1,1,1,1,1,1,1,1,1,1,1,1,1,1,1,1,1,1,1,1,1,1,1,1,1,1,1,1,1,1,1,1,1,1,1,1,1,1,1,1,1,1,1,1,1,1,1,1,1,1,1,1,1,1,1],"number_of_sets":1,"coherent_direction":[109,109,8,8,8,8,8,109,8,8,8,8,109,8,109,8,109,8,109,8,109,109,109,8,8,109,109,109,8,109,109,109,109,8,8,109,8,109,8,109,8,109,8,109,109,8,8,109,109,8,8,8,109,109,8,109,8,8,109,8,109,8,109,8,109,109,8,8,8,8,109,109,8,109,8,109,8,8,8,8,109,109,109,109,109,109,109,109,109,8,109,8,8,109,8,8,8,109,8,8,109,109,8,8,8,8,8,8,8,8,109,8,109,109,109,109,109,109,109,109,8,8,109,109,109,8,109,8,8,8,8,109,109,8,109,109,8,8,109,109,8,109,109,8,8,109,8,109,8,109,8,109,109,8,109,8,8,8,109,8,8,109,109,8,8,109,109,8,109,8,8,109,109,8,8,8,8,8,109,8,109,8,8,109,109,109,8,8,109,109,8,109,8,109,109,109,109,109,8,109],"coherence":1,"opposite_coherence":0,"dot_radius":2,"dot_side_length":1,"dot_life":-1,"move_distance":1,"aperture_width":300,"aperture_height":300,"dot_color":["white","white","black","black","black","black","black","white","black","black","black","black","white","black","white","black","white","black","white","black","white","white","white","black","black","white","white","white","black","white","white","white","white","black","black","white","black","white","black","white","black","white","black","white","white","black","black","white","white","black","black","black","white","white","black","white","black","black","white","black","white","black","white","black","white","white","black","black","black","black","white","white","black","white","black","white","black","black","black","black","white","white","white","white","white","white","white","white","white","black","white","black","black","white","black","black","black","white","black","black","white","white","black","black","black","black","black","black","black","black","white","black","white","white","white","white","white","white","white","white","black","black","white","white","white","black","white","black","black","black","black","white","white","black","white","white","black","black","white","white","black","white","white","black","black","white","black","white","black","white","black","white","white","black","white","black","black","black","white","black","black","white","white","black","black","white","white","black","white","black","black","white","white","black","black","black","black","black","white","black","white","black","black","white","white","white","black","black","white","white","black","white","black","white","white","white","white","white","black","white"],"dot_shape":"circle","background_color":"#AAA","RDK_type":3,"aperture_type":2,"reinsert_type":2,"frame_rate":16.641666666666666,"frame_rate_array":[14,17,16,17,17,16,17,16,17,17,17,16,17,17,16,17,17,16,17,17,16,17,16,17,17,16,17,17,17,16,17,17,16,16,17,17,17,16,17,16,17,17,17,16,17,17,16,17,16,17,17,17,17,16,17,17,16,16,18,16,17,17,16,17,16,17,16,18,16,17,16,17,17,16,17,17,16,17,17,17,16,17,17,16,17,17,15,18,16,17,16,18,16,17,16,17,17,17,16,17,17,15,18,16,17,17,17,16,17,16,17,17,17,16,17,16,17,17,16,17],"number_of_frames":120,"aperture_center_x":735,"aperture_center_y":459.5,"fixation_cross":true,"fixation_cross_width":15,"fixation_cross_height":15,"fixation_cross_color":"#111","fixation_cross_thickness":1,"border":true,"border_thickness":2,"border_color":"transparent","canvas_width":1470,"canvas_height":919,"trial_type":"rdk","trial_index":100,"plugin_version":"2.0.0","time_elapsed":267885},{"rt":1792,"stimulus":"\n        <div class=\"response-container\">\n          <div class=\"response-instruction\">\n            <p>rotate the bar by using the left and right arrow keys.</p>\n            <p>when you are determined, press the Enter key.</p>\n          </div>\n          <div class=\"response-circle\">\n            <div class=\"response-fixation\"></div>\n            <div id=\"bar\" class=\"rotating-bar\"></div>\n          </div>\n        </div>\n      ","response":"Enter","trial_type":"html-keyboard-response","trial_index":101,"plugin_version":"2.1.0","time_elapsed":269678,"random_initial_angle":10,"response_angle_css":-43,"response_angle_rdk":133,"angular_error_target":125,"angular_error_distractor":24,"target_direction":8,"target_group":"black","reward_points":0},{"rt":null,"stimulus":"\n          <p style=\"color: #FF3333;\">Your reward: 0 points</p>\n        ","response":null,"trial_type":"html-keyboard-response","trial_index":102,"plugin_version":"2.1.0","time_elapsed":271679},{"rt":null,"stimulus":"<div class=\"fixation\" style=\"font-size: 60px;\">+</div>","response":null,"trial_type":"html-keyboard-response","trial_index":103,"plugin_version":"2.1.0","time_elapsed":272681},{"phase":"learning-awareness","target_group":"white","condition_label":"W_H_vs_B_L_rep10","target_direction":282,"distractor_direction":189,"session_rotation":251,"rt":-1,"response":"","correct":false,"choices":"ALL_KEYS","correct_choice":["a"],"trial_duration":2000,"flip_timestamps":[],"response_ends_trial":false,"number_of_apertures":200,"number_of_dots":[1,1,1,1,1,1,1,1,1,1,1,1,1,1,1,1,1,1,1,1,1,1,1,1,1,1,1,1,1,1,1,1,1,1,1,1,1,1,1,1,1,1,1,1,1,1,1,1,1,1,1,1,1,1,1,1,1,1,1,1,1,1,1,1,1,1,1,1,1,1,1,1,1,1,1,1,1,1,1,1,1,1,1,1,1,1,1,1,1,1,1,1,1,1,1,1,1,1,1,1,1,1,1,1,1,1,1,1,1,1,1,1,1,1,1,1,1,1,1,1,1,1,1,1,1,1,1,1,1,1,1,1,1,1,1,1,1,1,1,1,1,1,1,1,1,1,1,1,1,1,1,1,1,1,1,1,1,1,1,1,1,1,1,1,1,1,1,1,1,1,1,1,1,1,1,1,1,1,1,1,1,1,1,1,1,1,1,1,1,1,1,1,1,1,1,1,1,1,1,1],"number_of_sets":1,"coherent_direction":[282,189,282,189,189,282,282,282,282,189,189,189,189,282,189,189,282,282,189,189,189,189,189,282,189,189,282,189,189,282,282,189,282,189,189,189,282,282,282,189,189,189,189,282,282,189,189,189,282,189,282,282,189,189,282,189,189,189,189,282,282,282,282,282,282,189,282,282,189,189,189,282,282,282,282,282,189,282,282,282,189,189,189,282,189,189,189,189,282,189,189,282,189,189,189,282,189,282,189,189,282,189,189,189,282,282,189,189,282,282,282,282,282,189,282,282,282,282,189,282,189,189,282,189,282,282,189,282,282,189,282,282,189,189,189,282,282,282,282,189,189,189,189,189,282,189,282,189,189,282,189,189,282,282,282,282,189,282,282,189,189,282,282,282,282,189,282,189,189,282,189,282,189,282,282,282,189,282,282,189,282,189,282,189,282,282,282,189,189,282,282,282,282,189,282,282,189,189,189,189],"coherence":1,"opposite_coherence":0,"dot_radius":2,"dot_side_length":1,"dot_life":-1,"move_distance":1,"aperture_width":300,"aperture_height":300,"dot_color":["white","black","white","black","black","white","white","white","white","black","black","black","black","white","black","black","white","white","black","black","black","black","black","white","black","black","white","black","black","white","white","black","white","black","black","black","white","white","white","black","black","black","black","white","white","black","black","black","white","black","white","white","black","black","white","black","black","black","black","white","white","white","white","white","white","black","white","white","black","black","black","white","white","white","white","white","black","white","white","white","black","black","black","white","black","black","black","black","white","black","black","white","black","black","black","white","black","white","black","black","white","black","black","black","white","white","black","black","white","white","white","white","white","black","white","white","white","white","black","white","black","black","white","black","white","white","black","white","white","black","white","white","black","black","black","white","white","white","white","black","black","black","black","black","white","black","white","black","black","white","black","black","white","white","white","white","black","white","white","black","black","white","white","white","white","black","white","black","black","white","black","white","black","white","white","white","black","white","white","black","white","black","white","black","white","white","white","black","black","white","white","white","white","black","white","white","black","black","black","black"],"dot_shape":"circle","background_color":"#AAA","RDK_type":3,"aperture_type":2,"reinsert_type":2,"frame_rate":16.658333333333335,"frame_rate_array":[15,17,17,17,16,16,18,17,16,17,17,16,17,16,17,16,18,16,17,16,17,17,16,17,17,16,17,17,16,17,17,16,17,16,18,16,17,17,16,17,16,17,17,17,16,17,17,16,16,17,17,17,16,17,17,16,17,17,17,16,17,17,16,17,16,17,16,18,16,17,16,17,16,17,17,17,17,16,17,16,17,17,17,16,16,17,17,17,16,17,17,16,17,17,17,16,17,16,17,17,16,17,17,16,17,17,17,16,17,16,17,16,17,17,17,17,16,16,17,17],"number_of_frames":120,"aperture_center_x":735,"aperture_center_y":459.5,"fixation_cross":true,"fixation_cross_width":15,"fixation_cross_height":15,"fixation_cross_color":"#111","fixation_cross_thickness":1,"border":true,"border_thickness":2,"border_color":"transparent","canvas_width":1470,"canvas_height":919,"trial_type":"rdk","trial_index":104,"plugin_version":"2.0.0","time_elapsed":274684},{"rt":1873,"stimulus":"\n        <div class=\"response-container\">\n          <div class=\"response-instruction\">\n            <p>rotate the bar by using the left and right arrow keys.</p>\n            <p>when you are determined, press the Enter key.</p>\n          </div>\n          <div class=\"response-circle\">\n            <div class=\"response-fixation\"></div>\n            <div id=\"bar\" class=\"rotating-bar\"></div>\n          </div>\n        </div>\n      ","response":"Enter","trial_type":"html-keyboard-response","trial_index":105,"plugin_version":"2.1.0","time_elapsed":276559,"random_initial_angle":321,"response_angle_css":265,"response_angle_rdk":185,"angular_error_target":-97,"angular_error_distractor":-4,"target_direction":282,"target_group":"white","reward_points":0},{"rt":null,"stimulus":"\n          <p style=\"color: #FF3333;\">Your reward: 0 points</p>\n        ","response":null,"trial_type":"html-keyboard-response","trial_index":106,"plugin_version":"2.1.0","time_elapsed":278562},{"rt":null,"stimulus":"<div class=\"fixation\" style=\"font-size: 60px;\">+</div>","response":null,"trial_type":"html-keyboard-response","trial_index":107,"plugin_version":"2.1.0","time_elapsed":279563},{"phase":"learning-awareness","target_group":"white","condition_label":"W_H_vs_B_L_