[{"rt":3744,"stimulus":"Welcome to the experiment. Press any key to begin.","response":"ArrowRight","trial_type":"html-keyboard-response","trial_index":0,"plugin_version":"2.1.0","time_elapsed":3750},{"rt":45570,"stimulus":"\n        <div class=\"instructions-container\">\n          <h2>Instructions</h2>\n\n          <p>\n          In this experiment, you will see <strong>two Random Dot Kinematograms (RDKs)</strong> displayed simultaneously.\n          </p>\n\n          <p>\n          An RDK is a visual stimulus consisting of many small dots that move coherently in a single direction. \n          In this experiment, the dots will be either <strong>white</strong> or <strong>black</strong> \n          (see the short demo below for an example of an RDK stimulus).\n          </p>\n\n          <p>\n          On each trial, the two RDKs will move in different directions. \n          Your task is to decide <strong>which RDK appears to contain more dots</strong>.\n          </p>\n\n          <p>\n          The RDK that you judge to have more dots is called the <strong>target RDK</strong>. \n          For example, if the white RDK appears to have more dots than the black RDK, \n          you should report the motion direction of the white RDK.\n          </p>\n\n          <p>\n          After viewing the RDKs, you will rotate a bar to indicate the perceived direction of the target RDK \n          using the <strong>left</strong> and <strong>right arrow keys</strong>. \n          Press <strong>Enter</strong> when you are satisfied with your response.\n          When the bar is held down, the rotation speed increases.\n          </p>\n\n          <p>\n          You will receive points based on the <strong>accuracy of your response</strong>, \n          and your final <strong>bonus reward</strong> may depend on your overall performance. \n          Please try to respond as accurately as possible.\n          </p>\n\n          <p>\n          You will first complete <strong>16 practice trials</strong>. \n          Press the <strong>Enter</strong> key to start the practice phase.\n          </p>\n\n          <canvas id=\"instruction-demo-rdk\" width=\"200\" height=\"200\"style=\"display:block;margin:12px auto; border-radius: 50%;\"></canvas>\n        </div>\n      ","response":"Enter","trial_type":"html-keyboard-response","trial_index":1,"plugin_version":"2.1.0","time_elapsed":49327},{"rt":null,"stimulus":"<div class=\"fixation\" style=\"font-size: 60px;\">+</div>","response":null,"trial_type":"html-keyboard-response","trial_index":2,"plugin_version":"2.1.0","time_elapsed":50330},{"target_group":"black","target_index":1,"condition_label":"practice","rt":-1,"response":"","correct":false,"choices":"ALL_KEYS","correct_choice":["a"],"trial_duration":2000,"flip_timestamps":[],"response_ends_trial":false,"number_of_apertures":2,"number_of_dots":[54,100],"number_of_sets":1,"coherent_direction":[88,187],"coherence":1,"opposite_coherence":0,"dot_radius":2,"dot_side_length":1,"dot_life":-1,"move_distance":1,"aperture_width":300,"aperture_height":300,"dot_color":["white","black"],"dot_shape":"circle","background_color":"#AAA","RDK_type":3,"aperture_type":2,"reinsert_type":2,"frame_rate":16.691666666666666,"frame_rate_array":[10,16,19,13,16,16,16,17,17,17,17,16,17,18,15,17,16,16,17,17,17,17,17,17,16,17,17,17,18,17,16,17,17,17,17,16,17,17,17,16,17,16,18,17,16,16,16,16,16,17,17,17,17,17,17,17,17,17,17,18,16,17,17,16,17,17,16,17,17,16,17,18,17,16,17,18,15,16,16,16,17,17,17,17,17,17,17,16,17,17,16,18,18,16,17,16,17,17,18,16,18,16,17,17,17,17,17,18,17,17,16,17,16,17,17,16,17,17,17,16],"number_of_frames":120,"aperture_center_x":750,"aperture_center_y":500,"fixation_cross":true,"fixation_cross_width":15,"fixation_cross_height":15,"fixation_cross_color":"#111","fixation_cross_thickness":1,"border":true,"border_thickness":2,"border_color":"transparent","canvas_width":1500,"canvas_height":1000,"trial_type":"rdk","trial_index":3,"plugin_version":"2.0.0","time_elapsed":52341,"phase":"practice","target_direction":187,"distractor_direction":88},{"rt":6848,"stimulus":"\n        <div class=\"response-container\">\n          <div class=\"response-instruction\">\n            <p>rotate the bar by using the left and right arrow keys.</p>\n            <p>when you are determined, press the Enter key.</p>\n          </div>\n          <div class=\"response-circle\">\n            <div class=\"response-fixation\"></div>\n            <div id=\"bar\" class=\"rotating-bar\"></div>\n          </div>\n        </div>\n      ","response":"Enter","trial_type":"html-keyboard-response","trial_index":4,"plugin_version":"2.1.0","time_elapsed":59190,"random_initial_angle":331,"response_angle_css":235,"response_angle_rdk":215,"angular_error_target":28,"angular_error_distractor":127,"target_direction":187,"target_group":"black","reward_points":4},{"rt":null,"stimulus":"\n          <p style=\"color: #00FF00;\">Your reward: 4 points</p>\n        ","response":null,"trial_type":"html-keyboard-response","trial_index":5,"plugin_version":"2.1.0","time_elapsed":61192},{"rt":null,"stimulus":"<div class=\"fixation\" style=\"font-size: 60px;\">+</div>","response":null,"trial_type":"html-keyboard-response","trial_index":6,"plugin_version":"2.1.0","time_elapsed":62195},{"target_group":"white","target_index":0,"condition_label":"practice","rt":-1,"response":"","correct":false,"choices":"ALL_KEYS","correct_choice":["a"],"trial_duration":2000,"flip_timestamps":[],"response_ends_trial":false,"number_of_apertures":2,"number_of_dots":[100,69],"number_of_sets":1,"coherent_direction":[41,244],"coherence":1,"opposite_coherence":0,"dot_radius":2,"dot_side_length":1,"dot_life":-1,"move_distance":1,"aperture_width":300,"aperture_height":300,"dot_color":["white","black"],"dot_shape":"circle","background_color":"#AAA","RDK_type":3,"aperture_type":2,"reinsert_type":2,"frame_rate":16.58677685950413,"frame_rate_array":[4,12,16,18,17,14,16,17,17,17,16,17,17,17,17,17,17,16,17,17,18,18,16,17,16,17,16,17,17,16,20,14,16,17,17,17,17,15,17,15,17,17,16,17,17,17,17,17,19,16,17,18,16,17,18,15,17,18,15,17,17,15,17,19,15,17,18,15,16,18,16,18,16,18,16,15,15,17,16,18,17,17,16,17,17,16,17,17,17,18,19,16,18,14,17,17,17,17,16,17,17,16,18,17,16,18,15,18,17,14,16,16,17,17,17,17,17,17,17,18,16],"number_of_frames":121,"aperture_center_x":750,"aperture_center_y":500,"fixation_cross":true,"fixation_cross_width":15,"fixation_cross_height":15,"fixation_cross_color":"#111","fixation_cross_thickness":1,"border":true,"border_thickness":2,"border_color":"transparent","canvas_width":1500,"canvas_height":1000,"trial_type":"rdk","trial_index":7,"plugin_version":"2.0.0","time_elapsed":64205,"phase":"practice","target_direction":41,"distractor_direction":244},{"rt":3637,"stimulus":"\n        <div class=\"response-container\">\n          <div class=\"response-instruction\">\n            <p>rotate the bar by using the left and right arrow keys.</p>\n            <p>when you are determined, press the Enter key.</p>\n          </div>\n          <div class=\"response-circle\">\n            <div class=\"response-fixation\"></div>\n            <div id=\"bar\" class=\"rotating-bar\"></div>\n          </div>\n        </div>\n      ","response":"Enter","trial_type":"html-keyboard-response","trial_index":8,"plugin_version":"2.1.0","time_elapsed":67844,"random_initial_angle":85,"response_angle_css":204,"response_angle_rdk":246,"angular_error_target":-155,"angular_error_distractor":2,"target_direction":41,"target_group":"white","reward_points":0},{"rt":null,"stimulus":"\n          <p style=\"color: #FF3333;\">Your reward: 0 points</p>\n        ","response":null,"trial_type":"html-keyboard-response","trial_index":9,"plugin_version":"2.1.0","time_elapsed":69846},{"rt":null,"stimulus":"<div class=\"fixation\" style=\"font-size: 60px;\">+</div>","response":null,"trial_type":"html-keyboard-response","trial_index":10,"plugin_version":"2.1.0","time_elapsed":70849},{"target_group":"white","target_index":0,"condition_label":"practice","rt":-1,"response":"","correct":false,"choices":"ALL_KEYS","correct_choice":["a"],"trial_duration":2000,"flip_timestamps":[],"response_ends_trial":false,"number_of_apertures":2,"number_of_dots":[100,99],"number_of_sets":1,"coherent_direction":[88,226],"coherence":1,"opposite_coherence":0,"dot_radius":2,"dot_side_length":1,"dot_life":-1,"move_distance":1,"aperture_width":300,"aperture_height":300,"dot_color":["white","black"],"dot_shape":"circle","background_color":"#AAA","RDK_type":3,"aperture_type":2,"reinsert_type":2,"frame_rate":16.816666666666666,"frame_rate_array":[16,16,16,16,17,17,17,17,17,17,17,17,17,17,17,18,17,17,17,16,17,17,17,16,16,17,17,17,17,17,17,17,17,17,17,17,17,16,17,17,17,15,17,17,17,17,17,17,16,17,17,16,17,17,17,17,17,17,18,17,16,17,17,17,17,17,16,18,15,17,16,16,16,17,17,17,17,17,17,17,17,17,17,17,17,17,18,21,12,17,17,17,17,16,17,17,17,17,16,17,17,17,17,17,17,15,16,17,17,17,17,17,17,17,17,17,17,16,17,17],"number_of_frames":120,"aperture_center_x":750,"aperture_center_y":500,"fixation_cross":true,"fixation_cross_width":15,"fixation_cross_height":15,"fixation_cross_color":"#111","fixation_cross_thickness":1,"border":true,"border_thickness":2,"border_color":"transparent","canvas_width":1500,"canvas_height":1000,"trial_type":"rdk","trial_index":11,"plugin_version":"2.0.0","time_elapsed":72857,"phase":"practice","target_direction":88,"distractor_direction":226},{"rt":3452,"stimulus":"\n        <div class=\"response-container\">\n          <div class=\"response-instruction\">\n            <p>rotate the bar by using the left and right arrow keys.</p>\n            <p>when you are determined, press the Enter key.</p>\n          </div>\n          <div class=\"response-circle\">\n            <div class=\"response-fixation\"></div>\n            <div id=\"bar\" class=\"rotating-bar\"></div>\n          </div>\n        </div>\n      ","response":"Enter","trial_type":"html-keyboard-response","trial_index":12,"plugin_version":"2.1.0","time_elapsed":76309,"random_initial_angle":265,"response_angle_css":220,"response_angle_rdk":230,"angular_error_target":142,"angular_error_distractor":4,"target_direction":88,"target_group":"white","reward_points":0},{"rt":null,"stimulus":"\n          <p style=\"color: #FF3333;\">Your reward: 0 points</p>\n        ","response":null,"trial_type":"html-keyboard-response","trial_index":13,"plugin_version":"2.1.0","time_elapsed":78311},{"rt":null,"stimulus":"<div class=\"fixation\" style=\"font-size: 60px;\">+</div>","response":null,"trial_type":"html-keyboard-response","trial_index":14,"plugin_version":"2.1.0","time_elapsed":79315},{"target_group":"white","target_index":0,"condition_label":"practice","rt":-1,"response":"","correct":false,"choices":"ALL_KEYS","correct_choice":["a"],"trial_duration":2000,"flip_timestamps":[],"response_ends_trial":false,"number_of_apertures":2,"number_of_dots":[100,79],"number_of_sets":1,"coherent_direction":[311,104],"coherence":1,"opposite_coherence":0,"dot_radius":2,"dot_side_length":1,"dot_life":-1,"move_distance":1,"aperture_width":300,"aperture_height":300,"dot_color":["white","black"],"dot_shape":"circle","background_color":"#AAA","RDK_type":3,"aperture_type":2,"reinsert_type":2,"frame_rate":16.775,"frame_rate_array":[19,16,17,16,17,17,17,17,17,17,16,17,17,17,17,15,16,16,17,17,17,17,17,17,17,17,16,17,17,17,17,17,17,17,17,17,17,17,17,17,18,15,16,17,16,17,17,15,16,17,17,17,16,17,17,17,17,17,17,17,17,17,17,17,17,17,16,17,17,17,16,17,17,17,16,17,17,16,17,15,16,17,17,17,17,17,17,16,17,18,17,17,17,17,18,17,17,17,17,17,16,17,17,17,17,17,17,16,17,16,18,16,16,15,16,17,17,17,17,16],"number_of_frames":120,"aperture_center_x":750,"aperture_center_y":500,"fixation_cross":true,"fixation_cross_width":15,"fixation_cross_height":15,"fixation_cross_color":"#111","fixation_cross_thickness":1,"border":true,"border_thickness":2,"border_color":"transparent","canvas_width":1500,"canvas_height":1000,"trial_type":"rdk","trial_index":15,"plugin_version":"2.0.0","time_elapsed":81322,"phase":"practice","target_direction":311,"distractor_direction":104},{"rt":4167,"stimulus":"\n        <div class=\"response-container\">\n          <div class=\"response-instruction\">\n            <p>rotate the bar by using the left and right arrow keys.</p>\n            <p>when you are determined, press the Enter key.</p>\n          </div>\n          <div class=\"response-circle\">\n            <div class=\"response-fixation\"></div>\n            <div id=\"bar\" class=\"rotating-bar\"></div>\n          </div>\n        </div>\n      ","response":"Enter","trial_type":"html-keyboard-response","trial_index":16,"plugin_version":"2.1.0","time_elapsed":85490,"random_initial_angle":245,"response_angle_css":337,"response_angle_rdk":113,"angular_error_target":162,"angular_error_distractor":9,"target_direction":311,"target_group":"white","reward_points":0},{"rt":null,"stimulus":"\n          <p style=\"color: #FF3333;\">Your reward: 0 points</p>\n        ","response":null,"trial_type":"html-keyboard-response","trial_index":17,"plugin_version":"2.1.0","time_elapsed":87491},{"rt":null,"stimulus":"<div class=\"fixation\" style=\"font-size: 60px;\">+</div>","response":null,"trial_type":"html-keyboard-response","trial_index":18,"plugin_version":"2.1.0","time_elapsed":88494},{"target_group":"white","target_index":0,"condition_label":"practice","rt":-1,"response":"","correct":false,"choices":"ALL_KEYS","correct_choice":["a"],"trial_duration":2000,"flip_timestamps":[],"response_ends_trial":false,"number_of_apertures":2,"number_of_dots":[100,78],"number_of_sets":1,"coherent_direction":[280,150],"coherence":1,"opposite_coherence":0,"dot_radius":2,"dot_side_length":1,"dot_life":-1,"move_distance":1,"aperture_width":300,"aperture_height":300,"dot_color":["white","black"],"dot_shape":"circle","background_color":"#AAA","RDK_type":3,"aperture_type":2,"reinsert_type":2,"frame_rate":16.781512605042018,"frame_rate_array":[17,16,17,17,16,17,18,17,17,17,16,18,17,16,17,15,16,17,17,17,17,17,17,17,17,17,17,17,17,17,18,17,17,16,17,17,17,16,17,17,16,17,16,17,17,17,15,17,17,15,16,16,17,17,17,17,17,17,17,17,17,17,17,18,16,17,17,17,17,17,17,17,17,16,16,18,17,17,17,16,16,17,16,16,16,17,16,17,17,17,17,17,17,17,17,17,17,18,17,17,17,17,17,17,17,16,17,17,16,17,17,17,18,17,14,16,16,17,17],"number_of_frames":119,"aperture_center_x":750,"aperture_center_y":500,"fixation_cross":true,"fixation_cross_width":15,"fixation_cross_height":15,"fixation_cross_color":"#111","fixation_cross_thickness":1,"border":true,"border_thickness":2,"border_color":"transparent","canvas_width":1500,"canvas_height":1000,"trial_type":"rdk","trial_index":19,"plugin_version":"2.0.0","time_elapsed":90499,"phase":"practice","target_direction":280,"distractor_direction":150},{"rt":2674,"stimulus":"\n        <div class=\"response-container\">\n          <div class=\"response-instruction\">\n            <p>rotate the bar by using the left and right arrow keys.</p>\n            <p>when you are determined, press the Enter key.</p>\n          </div>\n          <div class=\"response-circle\">\n            <div class=\"response-fixation\"></div>\n            <div id=\"bar\" class=\"rotating-bar\"></div>\n          </div>\n        </div>\n      ","response":"Enter","trial_type":"html-keyboard-response","trial_index":20,"plugin_version":"2.1.0","time_elapsed":93173,"random_initial_angle":44,"response_angle_css":146,"response_angle_rdk":304,"angular_error_target":24,"angular_error_distractor":154,"target_direction":280,"target_group":"white","reward_points":5},{"rt":null,"stimulus":"\n          <p style=\"color: #00FF00;\">Your reward: 5 points</p>\n        ","response":null,"trial_type":"html-keyboard-response","trial_index":21,"plugin_version":"2.1.0","time_elapsed":95174},{"rt":null,"stimulus":"<div class=\"fixation\" style=\"font-size: 60px;\">+</div>","response":null,"trial_type":"html-keyboard-response","trial_index":22,"plugin_version":"2.1.0","time_elapsed":96176},{"target_group":"white","target_index":0,"condition_label":"practice","rt":1722,"response":"ArrowLeft","correct":false,"choices":"ALL_KEYS","correct_choice":["a"],"trial_duration":2000,"flip_timestamps":[],"response_ends_trial":false,"number_of_apertures":2,"number_of_dots":[100,72],"number_of_sets":1,"coherent_direction":[164,17],"coherence":1,"opposite_coherence":0,"dot_radius":2,"dot_side_length":1,"dot_life":-1,"move_distance":1,"aperture_width":300,"aperture_height":300,"dot_color":["white","black"],"dot_shape":"circle","background_color":"#AAA","RDK_type":3,"aperture_type":2,"reinsert_type":2,"frame_rate":16.915966386554622,"frame_rate_array":[19,17,17,17,17,17,17,17,17,17,17,17,18,17,17,17,17,17,17,17,16,17,17,17,16,16,17,17,17,17,17,17,17,17,17,17,17,17,17,17,17,16,17,17,17,17,17,17,17,17,17,17,16,17,17,17,17,17,17,17,17,17,17,16,16,17,17,17,17,17,17,17,17,17,17,17,17,17,18,16,17,17,17,17,17,17,17,17,17,17,17,17,17,16,16,16,17,17,17,17,17,17,17,16,17,17,17,17,18,16,16,17,17,17,17,16,17,17,17],"number_of_frames":119,"aperture_center_x":750,"aperture_center_y":500,"fixation_cross":true,"fixation_cross_width":15,"fixation_cross_height":15,"fixation_cross_color":"#111","fixation_cross_thickness":1,"border":true,"border_thickness":2,"border_color":"transparent","canvas_width":1500,"canvas_height":1000,"trial_type":"rdk","trial_index":23,"plugin_version":"2.0.0","time_elapsed":98181,"phase":"practice","target_direction":164,"distractor_direction":17},{"rt":4035,"stimulus":"\n        <div class=\"response-container\">\n          <div class=\"response-instruction\">\n            <p>rotate the bar by using the left and right arrow keys.</p>\n            <p>when you are determined, press the Enter key.</p>\n          </div>\n          <div class=\"response-circle\">\n            <div class=\"response-fixation\"></div>\n            <div id=\"bar\" class=\"rotating-bar\"></div>\n          </div>\n        </div>\n      ","response":"Enter","trial_type":"html-keyboard-response","trial_index":24,"plugin_version":"2.1.0","time_elapsed":102217,"random_initial_angle":116,"response_angle_css":-45,"response_angle_rdk":135,"angular_error_target":-29,"angular_error_distractor":118,"target_direction":164,"target_group":"white","reward_points":4},{"rt":null,"stimulus":"\n          <p style=\"color: #00FF00;\">Your reward: 4 points</p>\n        ","response":null,"trial_type":"html-keyboard-response","trial_index":25,"plugin_version":"2.1.0","time_elapsed":104219},{"rt":null,"stimulus":"<div class=\"fixation\" style=\"font-size: 60px;\">+</div>","response":null,"trial_type":"html-keyboard-response","trial_index":26,"plugin_version":"2.1.0","time_elapsed":105221},{"target_group":"white","target_index":0,"condition_label":"practice","rt":1822,"response":"ArrowRight","correct":false,"choices":"ALL_KEYS","correct_choice":["a"],"trial_duration":2000,"flip_timestamps":[],"response_ends_trial":false,"number_of_apertures":2,"number_of_dots":[100,99],"number_of_sets":1,"coherent_direction":[116,3],"coherence":1,"opposite_coherence":0,"dot_radius":2,"dot_side_length":1,"dot_life":-1,"move_distance":1,"aperture_width":300,"aperture_height":300,"dot_color":["white","black"],"dot_shape":"circle","background_color":"#AAA","RDK_type":3,"aperture_type":2,"reinsert_type":2,"frame_rate":16.865546218487395,"frame_rate_array":[23,10,17,17,17,17,17,17,17,17,16,17,17,17,17,17,17,17,17,17,16,17,17,17,16,18,17,17,17,17,17,17,15,17,17,17,17,17,17,17,17,17,16,17,17,17,18,17,17,17,17,17,16,17,17,17,17,17,17,17,17,17,17,17,17,15,17,16,16,17,17,17,17,17,17,17,17,17,17,17,18,17,17,17,16,17,17,17,17,17,16,17,17,18,16,18,15,16,17,16,17,16,17,17,17,17,17,17,18,16,17,16,17,17,17,17,18,16,17],"number_of_frames":119,"aperture_center_x":750,"aperture_center_y":500,"fixation_cross":true,"fixation_cross_width":15,"fixation_cross_height":15,"fixation_cross_color":"#111","fixation_cross_thickness":1,"border":true,"border_thickness":2,"border_color":"transparent","canvas_width":1500,"canvas_height":1000,"trial_type":"rdk","trial_index":27,"plugin_version":"2.0.0","time_elapsed":107229,"phase":"practice","target_direction":116,"distractor_direction":3},{"rt":2454,"stimulus":"\n        <div class=\"response-container\">\n          <div class=\"response-instruction\">\n            <p>rotate the bar by using the left and right arrow keys.</p>\n            <p>when you are determined, press the Enter key.</p>\n          </div>\n          <div class=\"response-circle\">\n            <div class=\"response-fixation\"></div>\n            <div id=\"bar\" class=\"rotating-bar\"></div>\n          </div>\n        </div>\n      ","response":"Enter","trial_type":"html-keyboard-response","trial_index":28,"plugin_version":"2.1.0","time_elapsed":109684,"random_initial_angle":358,"response_angle_css":457,"response_angle_rdk":353,"angular_error_target":-123,"angular_error_distractor":-10,"target_direction":116,"target_group":"white","reward_points":0},{"rt":null,"stimulus":"\n          <p style=\"color: #FF3333;\">Your reward: 0 points</p>\n        ","response":null,"trial_type":"html-keyboard-response","trial_index":29,"plugin_version":"2.1.0","time_elapsed":111685},{"rt":null,"stimulus":"<div class=\"fixation\" style=\"font-size: 60px;\">+</div>","response":null,"trial_type":"html-keyboard-response","trial_index":30,"plugin_version":"2.1.0","time_elapsed":112687},{"target_group":"black","target_index":1,"condition_label":"practice","rt":-1,"response":"","correct":false,"choices":"ALL_KEYS","correct_choice":["a"],"trial_duration":2000,"flip_timestamps":[],"response_ends_trial":false,"number_of_apertures":2,"number_of_dots":[92,100],"number_of_sets":1,"coherent_direction":[165,15],"coherence":1,"opposite_coherence":0,"dot_radius":2,"dot_side_length":1,"dot_life":-1,"move_distance":1,"aperture_width":300,"aperture_height":300,"dot_color":["white","black"],"dot_shape":"circle","background_color":"#AAA","RDK_type":3,"aperture_type":2,"reinsert_type":2,"frame_rate":16.899159663865547,"frame_rate_array":[19,16,17,17,17,17,17,17,17,17,17,17,17,18,17,17,17,17,17,17,17,17,17,17,17,17,17,17,17,17,16,17,17,17,16,16,17,17,17,17,17,17,17,17,17,17,17,17,17,17,16,17,17,16,17,17,17,17,16,17,17,17,17,16,17,17,17,16,16,17,17,17,17,17,17,17,17,17,17,17,17,16,17,17,17,17,17,17,17,17,17,17,17,17,17,17,17,16,17,17,17,17,17,17,17,17,17,17,16,17,17,17,17,16,17,17,17,16,17],"number_of_frames":119,"aperture_center_x":750,"aperture_center_y":500,"fixation_cross":true,"fixation_cross_width":15,"fixation_cross_height":15,"fixation_cross_color":"#111","fixation_cross_thickness":1,"border":true,"border_thickness":2,"border_color":"transparent","canvas_width":1500,"canvas_height":1000,"trial_type":"rdk","trial_index":31,"plugin_version":"2.0.0","time_elapsed":114692,"phase":"practice","target_direction":15,"distractor_direction":165},{"rt":2395,"stimulus":"\n        <div class=\"response-container\">\n          <div class=\"response-instruction\">\n            <p>rotate the bar by using the left and right arrow keys.</p>\n            <p>when you are determined, press the Enter key.</p>\n          </div>\n          <div class=\"response-circle\">\n            <div class=\"response-fixation\"></div>\n            <div id=\"bar\" class=\"rotating-bar\"></div>\n          </div>\n        </div>\n      ","response":"Enter","trial_type":"html-keyboard-response","trial_index":32,"plugin_version":"2.1.0","time_elapsed":117088,"random_initial_angle":56,"response_angle_css":78,"response_angle_rdk":12,"angular_error_target":-3,"angular_error_distractor":-153,"target_direction":15,"target_group":"black","reward_points":9},{"rt":null,"stimulus":"\n          <p style=\"color: #00FF00;\">Your reward: 9 points</p>\n        ","response":null,"trial_type":"html-keyboard-response","trial_index":33,"plugin_version":"2.1.0","time_elapsed":119090},{"rt":null,"stimulus":"<div class=\"fixation\" style=\"font-size: 60px;\">+</div>","response":null,"trial_type":"html-keyboard-response","trial_index":34,"plugin_version":"2.1.0","time_elapsed":120093},{"target_group":"white","target_index":0,"condition_label":"practice","rt":-1,"response":"","correct":false,"choices":"ALL_KEYS","correct_choice":["a"],"trial_duration":2000,"flip_timestamps":[],"response_ends_trial":false,"number_of_apertures":2,"number_of_dots":[100,56],"number_of_sets":1,"coherent_direction":[93,300],"coherence":1,"opposite_coherence":0,"dot_radius":2,"dot_side_length":1,"dot_life":-1,"move_distance":1,"aperture_width":300,"aperture_height":300,"dot_color":["white","black"],"dot_shape":"circle","background_color":"#AAA","RDK_type":3,"aperture_type":2,"reinsert_type":2,"frame_rate":16.84873949579832,"frame_rate_array":[23,12,17,17,17,17,17,17,17,17,17,17,17,16,17,17,17,17,17,16,17,17,17,17,17,16,17,16,16,17,16,17,17,16,18,17,16,16,16,16,17,17,17,17,17,17,17,17,17,17,17,17,17,17,17,17,17,16,17,17,16,17,17,17,17,17,18,17,16,16,17,17,17,17,17,17,17,17,17,17,17,17,17,18,17,17,17,16,18,16,18,16,16,17,17,17,17,17,17,17,17,17,16,16,16,17,16,16,17,17,17,17,17,17,17,17,17,17,17],"number_of_frames":119,"aperture_center_x":750,"aperture_center_y":500,"fixation_cross":true,"fixation_cross_width":15,"fixation_cross_height":15,"fixation_cross_color":"#111","fixation_cross_thickness":1,"border":true,"border_thickness":2,"border_color":"transparent","canvas_width":1500,"canvas_height":1000,"trial_type":"rdk","trial_index":35,"plugin_version":"2.0.0","time_elapsed":122098,"phase":"practice","target_direction":93,"distractor_direction":300},{"rt":4151,"stimulus":"\n        <div class=\"response-container\">\n          <div class=\"response-instruction\">\n            <p>rotate the bar by using the left and right arrow keys.</p>\n            <p>when you are determined, press the Enter key.</p>\n          </div>\n          <div class=\"response-circle\">\n            <div class=\"response-fixation\"></div>\n            <div id=\"bar\" class=\"rotating-bar\"></div>\n          </div>\n        </div>\n      ","response":"Enter","trial_type":"html-keyboard-response","trial_index":36,"plugin_version":"2.1.0","time_elapsed":126250,"random_initial_angle":147,"response_angle_css":-6,"response_angle_rdk":96,"angular_error_target":3,"angular_error_distractor":156,"target_direction":93,"target_group":"white","reward_points":9},{"rt":null,"stimulus":"\n          <p style=\"color: #00FF00;\">Your reward: 9 points</p>\n        ","response":null,"trial_type":"html-keyboard-response","trial_index":37,"plugin_version":"2.1.0","time_elapsed":128251},{"rt":null,"stimulus":"<div class=\"fixation\" style=\"font-size: 60px;\">+</div>","response":null,"trial_type":"html-keyboard-response","trial_index":38,"plugin_version":"2.1.0","time_elapsed":129260},{"target_group":"black","target_index":1,"condition_label":"practice","rt":1225,"response":"ArrowLeft","correct":false,"choices":"ALL_KEYS","correct_choice":["a"],"trial_duration":2000,"flip_timestamps":[],"response_ends_trial":false,"number_of_apertures":2,"number_of_dots":[69,100],"number_of_sets":1,"coherent_direction":[22,177],"coherence":1,"opposite_coherence":0,"dot_radius":2,"dot_side_length":1,"dot_life":-1,"move_distance":1,"aperture_width":300,"aperture_height":300,"dot_color":["white","black"],"dot_shape":"circle","background_color":"#AAA","RDK_type":3,"aperture_type":2,"reinsert_type":2,"frame_rate":16.949579831932773,"frame_rate_array":[21,17,17,17,17,17,17,17,17,17,17,17,17,17,17,17,17,17,17,17,17,17,17,17,16,17,16,17,16,16,17,17,17,17,17,17,17,17,16,17,17,17,17,18,17,17,17,17,17,17,17,17,17,17,16,17,17,17,17,17,17,17,17,17,16,16,17,17,17,17,17,17,17,17,17,17,17,18,16,16,17,17,17,17,16,17,17,16,17,17,17,17,17,17,17,17,17,17,17,17,17,17,17,17,17,17,17,17,17,17,17,17,17,17,17,17,17,17,17],"number_of_frames":119,"aperture_center_x":750,"aperture_center_y":500,"fixation_cross":true,"fixation_cross_width":15,"fixation_cross_height":15,"fixation_cross_color":"#111","fixation_cross_thickness":1,"border":true,"border_thickness":2,"border_color":"transparent","canvas_width":1500,"canvas_height":1000,"trial_type":"rdk","trial_index":39,"plugin_version":"2.0.0","time_elapsed":131263,"phase":"practice","target_direction":177,"distractor_direction":22},{"rt":4005,"stimulus":"\n        <div class=\"response-container\">\n          <div class=\"response-instruction\">\n            <p>rotate the bar by using the left and right arrow keys.</p>\n            <p>when you are determined, press the Enter key.</p>\n          </div>\n          <div class=\"response-circle\">\n            <div class=\"response-fixation\"></div>\n            <div id=\"bar\" class=\"rotating-bar\"></div>\n          </div>\n        </div>\n      ","response":"Enter","trial_type":"html-keyboard-response","trial_index":40,"plugin_version":"2.1.0","time_elapsed":135268,"random_initial_angle":134,"response_angle_css":-103,"response_angle_rdk":193,"angular_error_target":16,"angular_error_distractor":171,"target_direction":177,"target_group":"black","reward_points":6},{"rt":null,"stimulus":"\n          <p style=\"color: #00FF00;\">Your reward: 6 points</p>\n        ","response":null,"trial_type":"html-keyboard-response","trial_index":41,"plugin_version":"2.1.0","time_elapsed":137270},{"rt":null,"stimulus":"<div class=\"fixation\" style=\"font-size: 60px;\">+</div>","response":null,"trial_type":"html-keyboard-response","trial_index":42,"plugin_version":"2.1.0","time_elapsed":138272},{"target_group":"black","target_index":1,"condition_label":"practice","rt":1629,"response":"ArrowDown","correct":false,"choices":"ALL_KEYS","correct_choice":["a"],"trial_duration":2000,"flip_timestamps":[],"response_ends_trial":false,"number_of_apertures":2,"number_of_dots":[99,100],"number_of_sets":1,"coherent_direction":[223,96],"coherence":1,"opposite_coherence":0,"dot_radius":2,"dot_side_length":1,"dot_life":-1,"move_distance":1,"aperture_width":300,"aperture_height":300,"dot_color":["white","black"],"dot_shape":"circle","background_color":"#AAA","RDK_type":3,"aperture_type":2,"reinsert_type":2,"frame_rate":16.899159663865547,"frame_rate_array":[21,17,17,17,17,17,17,17,17,17,17,17,17,17,17,16,17,17,16,17,17,17,17,17,17,16,17,17,17,17,17,17,17,17,17,17,16,17,17,17,17,16,16,17,17,17,17,17,16,17,18,16,17,17,17,17,16,16,17,17,17,17,17,17,17,17,17,17,17,16,17,17,17,17,17,17,17,17,16,17,17,17,17,17,17,17,17,16,16,17,17,17,17,17,17,17,17,17,17,17,17,17,18,16,16,17,17,17,16,17,17,17,17,17,17,17,17,17,16],"number_of_frames":119,"aperture_center_x":750,"aperture_center_y":500,"fixation_cross":true,"fixation_cross_width":15,"fixation_cross_height":15,"fixation_cross_color":"#111","fixation_cross_thickness":1,"border":true,"border_thickness":2,"border_color":"transparent","canvas_width":1500,"canvas_height":1000,"trial_type":"rdk","trial_index":43,"plugin_version":"2.0.0","time_elapsed":140274,"phase":"practice","target_direction":96,"distractor_direction":223},{"rt":2531,"stimulus":"\n        <div class=\"response-container\">\n          <div class=\"response-instruction\">\n            <p>rotate the bar by using the left and right arrow keys.</p>\n            <p>when you are determined, press the Enter key.</p>\n          </div>\n          <div class=\"response-circle\">\n            <div class=\"response-fixation\"></div>\n            <div id=\"bar\" class=\"rotating-bar\"></div>\n          </div>\n        </div>\n      ","response":"Enter","trial_type":"html-keyboard-response","trial_index":44,"plugin_version":"2.1.0","time_elapsed":142805,"random_initial_angle":241,"response_angle_css":207,"response_angle_rdk":243,"angular_error_target":147,"angular_error_distractor":20,"target_direction":96,"target_group":"black","reward_points":0},{"rt":null,"stimulus":"\n          <p style=\"color: #FF3333;\">Your reward: 0 points</p>\n        ","response":null,"trial_type":"html-keyboard-response","trial_index":45,"plugin_version":"2.1.0","time_elapsed":144807},{"rt":null,"stimulus":"<div class=\"fixation\" style=\"font-size: 60px;\">+</div>","response":null,"trial_type":"html-keyboard-response","trial_index":46,"plugin_version":"2.1.0","time_elapsed":145809},{"target_group":"black","target_index":1,"condition_label":"practice","rt":1053,"response":"ArrowUp","correct":false,"choices":"ALL_KEYS","correct_choice":["a"],"trial_duration":2000,"flip_timestamps":[],"response_ends_trial":false,"number_of_apertures":2,"number_of_dots":[71,100],"number_of_sets":1,"coherent_direction":[223,46],"coherence":1,"opposite_coherence":0,"dot_radius":2,"dot_side_length":1,"dot_life":-1,"move_distance":1,"aperture_width":300,"aperture_height":300,"dot_color":["white","black"],"dot_shape":"circle","background_color":"#AAA","RDK_type":3,"aperture_type":2,"reinsert_type":2,"frame_rate":16.873949579831933,"frame_rate_array":[22,17,17,17,16,17,16,17,17,16,17,17,17,17,17,17,17,17,17,16,16,17,17,17,17,17,16,17,17,17,16,17,17,17,17,17,16,17,17,17,16,16,17,17,17,17,17,17,17,17,17,17,17,16,16,17,17,17,17,17,17,17,17,17,17,16,17,17,17,16,17,17,16,17,17,17,17,17,17,17,17,17,17,16,16,16,17,17,17,17,17,17,17,17,17,17,17,17,17,17,18,17,17,17,17,17,16,17,17,16,17,17,17,17,16,17,17,17,17],"number_of_frames":119,"aperture_center_x":750,"aperture_center_y":500,"fixation_cross":true,"fixation_cross_width":15,"fixation_cross_height":15,"fixation_cross_color":"#111","fixation_cross_thickness":1,"border":true,"border_thickness":2,"border_color":"transparent","canvas_width":1500,"canvas_height":1000,"trial_type":"rdk","trial_index":47,"plugin_version":"2.0.0","time_elapsed":147812,"phase":"practice","target_direction":46,"distractor_direction":223},{"rt":2940,"stimulus":"\n        <div class=\"response-container\">\n          <div class=\"response-instruction\">\n            <p>rotate the bar by using the left and right arrow keys.</p>\n            <p>when you are determined, press the Enter key.</p>\n          </div>\n          <div class=\"response-circle\">\n            <div class=\"response-fixation\"></div>\n            <div id=\"bar\" class=\"rotating-bar\"></div>\n          </div>\n        </div>\n      ","response":"Enter","trial_type":"html-keyboard-response","trial_index":48,"plugin_version":"2.1.0","time_elapsed":150753,"random_initial_angle":186,"response_angle_css":379,"response_angle_rdk":71,"angular_error_target":25,"angular_error_distractor":-152,"target_direction":46,"target_group":"black","reward_points":5},{"rt":null,"stimulus":"\n          <p style=\"color: #00FF00;\">Your reward: 5 points</p>\n        ","response":null,"trial_type":"html-keyboard-response","trial_index":49,"plugin_version":"2.1.0","time_elapsed":152754},{"rt":null,"stimulus":"<div class=\"fixation\" style=\"font-size: 60px;\">+</div>","response":null,"trial_type":"html-keyboard-response","trial_index":50,"plugin_version":"2.1.0","time_elapsed":153756},{"target_group":"black","target_index":1,"condition_label":"practice","rt":787,"response":"ArrowLeft","correct":false,"choices":"ALL_KEYS","correct_choice":["a"],"trial_duration":2000,"flip_timestamps":[],"response_ends_trial":false,"number_of_apertures":2,"number_of_dots":[86,100],"number_of_sets":1,"coherent_direction":[240,142],"coherence":1,"opposite_coherence":0,"dot_radius":2,"dot_side_length":1,"dot_life":-1,"move_distance":1,"aperture_width":300,"aperture_height":300,"dot_color":["white","black"],"dot_shape":"circle","background_color":"#AAA","RDK_type":3,"aperture_type":2,"reinsert_type":2,"frame_rate":16.840336134453782,"frame_rate_array":[21,17,16,17,17,17,17,17,17,17,17,16,17,16,16,17,17,17,17,17,16,17,16,17,16,17,17,17,17,17,17,17,17,17,17,16,17,17,17,17,17,16,17,17,16,17,16,17,17,16,16,17,17,17,17,17,17,17,16,16,16,17,17,17,17,17,17,17,17,17,17,17,17,17,16,17,17,17,17,17,17,17,17,17,17,17,17,17,17,17,16,16,16,18,16,17,17,17,17,17,17,17,17,16,17,17,22,12,17,17,17,17,17,16,17,17,16,17,17],"number_of_frames":119,"aperture_center_x":750,"aperture_center_y":500,"fixation_cross":true,"fixation_cross_width":15,"fixation_cross_height":15,"fixation_cross_color":"#111","fixation_cross_thickness":1,"border":true,"border_thickness":2,"border_color":"transparent","canvas_width":1500,"canvas_height":1000,"trial_type":"rdk","trial_index":51,"plugin_version":"2.0.0","time_elapsed":155759,"phase":"practice","target_direction":142,"distractor_direction":240},{"rt":2137,"stimulus":"\n        <div class=\"response-container\">\n          <div class=\"response-instruction\">\n            <p>rotate the bar by using the left and right arrow keys.</p>\n            <p>when you are determined, press the Enter key.</p>\n          </div>\n          <div class=\"response-circle\">\n            <div class=\"response-fixation\"></div>\n            <div id=\"bar\" class=\"rotating-bar\"></div>\n          </div>\n        </div>\n      ","response":"Enter","trial_type":"html-keyboard-response","trial_index":52,"plugin_version":"2.1.0","time_elapsed":157896,"random_initial_angle":271,"response_angle_css":314,"response_angle_rdk":136,"angular_error_target":-6,"angular_error_distractor":-104,"target_direction":142,"target_group":"black","reward_points":8},{"rt":null,"stimulus":"\n          <p style=\"color: #00FF00;\">Your reward: 8 points</p>\n        ","response":null,"trial_type":"html-keyboard-response","trial_index":53,"plugin_version":"2.1.0","time_elapsed":159897},{"rt":null,"stimulus":"<div class=\"fixation\" style=\"font-size: 60px;\">+</div>","response":null,"trial_type":"html-keyboard-response","trial_index":54,"plugin_version":"2.1.0","time_elapsed":160900},{"target_group":"white","target_index":0,"condition_label":"practice","rt":1091,"response":"ArrowLeft","correct":false,"choices":"ALL_KEYS","correct_choice":["a"],"trial_duration":2000,"flip_timestamps":[],"response_ends_trial":false,"number_of_apertures":2,"number_of_dots":[100,60],"number_of_sets":1,"coherent_direction":[235,355],"coherence":1,"opposite_coherence":0,"dot_radius":2,"dot_side_length":1,"dot_life":-1,"move_distance":1,"aperture_width":300,"aperture_height":300,"dot_color":["white","black"],"dot_shape":"circle","background_color":"#AAA","RDK_type":3,"aperture_type":2,"reinsert_type":2,"frame_rate":16.677685950413224,"frame_rate_array":[5,17,16,17,17,17,16,17,17,17,17,17,16,17,18,16,17,15,17,17,17,17,17,17,17,17,17,17,17,17,17,17,18,16,17,17,17,17,17,17,16,17,17,17,17,16,17,17,17,17,16,18,15,16,17,17,17,17,17,17,17,17,16,17,17,19,15,17,17,17,17,17,17,17,17,16,17,17,17,16,17,16,18,16,16,16,16,17,17,17,17,17,16,17,17,16,17,17,17,18,16,17,19,14,17,16,17,17,17,17,16,17,17,17,17,16,17,18,15,15,16],"number_of_frames":121,"aperture_center_x":750,"aperture_center_y":500,"fixation_cross":true,"fixation_cross_width":15,"fixation_cross_height":15,"fixation_cross_color":"#111","fixation_cross_thickness":1,"border":true,"border_thickness":2,"border_color":"transparent","canvas_width":1500,"canvas_height":1000,"trial_type":"rdk","trial_index":55,"plugin_version":"2.0.0","time_elapsed":162909,"phase":"practice","target_direction":235,"distractor_direction":355},{"rt":3277,"stimulus":"\n        <div class=\"response-container\">\n          <div class=\"response-instruction\">\n            <p>rotate the bar by using the left and right arrow keys.</p>\n            <p>when you are determined, press the Enter key.</p>\n          </div>\n          <div class=\"response-circle\">\n            <div class=\"response-fixation\"></div>\n            <div id=\"bar\" class=\"rotating-bar\"></div>\n          </div>\n        </div>\n      ","response":"Enter","trial_type":"html-keyboard-response","trial_index":56,"plugin_version":"2.1.0","time_elapsed":166187,"random_initial_angle":359,"response_angle_css":212,"response_angle_rdk":238,"angular_error_target":3,"angular_error_distractor":-117,"target_direction":235,"target_group":"white","reward_points":9},{"rt":null,"stimulus":"\n          <p style=\"color: #00FF00;\">Your reward: 9 points</p>\n        ","response":null,"trial_type":"html-keyboard-response","trial_index":57,"plugin_version":"2.1.0","time_elapsed":168188},{"rt":null,"stimulus":"<div class=\"fixation\" style=\"font-size: 60px;\">+</div>","response":null,"trial_type":"html-keyboard-response","trial_index":58,"plugin_version":"2.1.0","time_elapsed":169189},{"target_group":"black","target_index":1,"condition_label":"practice","rt":-1,"response":"","correct":false,"choices":"ALL_KEYS","correct_choice":["a"],"trial_duration":2000,"flip_timestamps":[],"response_ends_trial":false,"number_of_apertures":2,"number_of_dots":[74,100],"number_of_sets":1,"coherent_direction":[55,179],"coherence":1,"opposite_coherence":0,"dot_radius":2,"dot_side_length":1,"dot_life":-1,"move_distance":1,"aperture_width":300,"aperture_height":300,"dot_color":["white","black"],"dot_shape":"circle","background_color":"#AAA","RDK_type":3,"aperture_type":2,"reinsert_type":2,"frame_rate":16.88235294117647,"frame_rate_array":[21,17,17,17,17,17,17,17,17,16,17,17,16,17,17,17,17,17,17,17,17,17,16,17,17,17,17,17,16,17,17,17,17,16,17,16,17,17,17,17,17,17,17,17,17,17,17,17,17,18,16,16,17,17,17,17,17,17,17,17,16,17,17,16,16,17,17,17,17,17,17,17,17,17,17,16,17,17,17,17,17,16,17,17,16,17,17,17,16,17,17,17,17,17,17,16,17,17,17,17,17,17,17,17,17,16,17,17,17,17,17,16,17,17,17,17,17,16,17],"number_of_frames":119,"aperture_center_x":750,"aperture_center_y":500,"fixation_cross":true,"fixation_cross_width":15,"fixation_cross_height":15,"fixation_cross_color":"#111","fixation_cross_thickness":1,"border":true,"border_thickness":2,"border_color":"transparent","canvas_width":1500,"canvas_height":1000,"trial_type":"rdk","trial_index":59,"plugin_version":"2.0.0","time_elapsed":171192,"phase":"practice","target_direction":179,"distractor_direction":55},{"rt":2699,"stimulus":"\n        <div class=\"response-container\">\n          <div class=\"response-instruction\">\n            <p>rotate the bar by using the left and right arrow keys.</p>\n            <p>when you are determined, press the Enter key.</p>\n          </div>\n          <div class=\"response-circle\">\n            <div class=\"response-fixation\"></div>\n            <div id=\"bar\" class=\"rotating-bar\"></div>\n          </div>\n        </div>\n      ","response":"Enter","trial_type":"html-keyboard-response","trial_index":60,"plugin_version":"2.1.0","time_elapsed":173893,"random_initial_angle":354,"response_angle_css":280,"response_angle_rdk":170,"angular_error_target":-9,"angular_error_distractor":115,"target_direction":179,"target_group":"black","reward_points":8},{"rt":null,"stimulus":"\n          <p style=\"color: #00FF00;\">Your reward: 8 points</p>\n        ","response":null,"trial_type":"html-keyboard-response","trial_index":61,"plugin_version":"2.1.0","time_elapsed":175895},{"rt":null,"stimulus":"<div class=\"fixation\" style=\"font-size: 60px;\">+</div>","response":null,"trial_type":"html-keyboard-response","trial_index":62,"plugin_version":"2.1.0","time_elapsed":176897},{"target_group":"black","target_index":1,"condition_label":"practice","rt":-1,"response":"","correct":false,"choices":"ALL_KEYS","correct_choice":["a"],"trial_duration":2000,"flip_timestamps":[],"response_ends_trial":false,"number_of_apertures":2,"number_of_dots":[83,100],"number_of_sets":1,"coherent_direction":[208,305],"coherence":1,"opposite_coherence":0,"dot_radius":2,"dot_side_length":1,"dot_life":-1,"move_distance":1,"aperture_width":300,"aperture_height":300,"dot_color":["white","black"],"dot_shape":"circle","background_color":"#AAA","RDK_type":3,"aperture_type":2,"reinsert_type":2,"frame_rate":16.694214876033058,"frame_rate_array":[2,14,16,17,17,17,17,17,17,17,17,17,17,16,18,17,17,16,16,16,17,17,17,17,17,17,17,17,17,17,17,17,18,17,17,16,17,17,17,17,16,17,17,17,16,17,16,17,17,17,17,17,15,16,17,17,17,17,17,17,18,17,17,17,17,17,17,16,17,17,16,17,17,17,17,17,17,17,16,17,17,17,16,16,17,17,17,17,17,17,17,17,17,17,16,17,18,18,16,17,18,16,16,17,17,17,17,16,17,17,17,17,17,17,17,17,17,15,16,17,17],"number_of_frames":121,"aperture_center_x":750,"aperture_center_y":500,"fixation_cross":true,"fixation_cross_width":15,"fixation_cross_height":15,"fixation_cross_color":"#111","fixation_cross_thickness":1,"border":true,"border_thickness":2,"border_color":"transparent","canvas_width":1500,"canvas_height":1000,"trial_type":"rdk","trial_index":63,"plugin_version":"2.0.0","time_elapsed":178903,"phase":"practice","target_direction":305,"distractor_direction":208},{"rt":2671,"stimulus":"\n        <div class=\"response-container\">\n          <div class=\"response-instruction\">\n            <p>rotate the bar by using the left and right arrow keys.</p>\n            <p>when you are determined, press the Enter key.</p>\n          </div>\n          <div class=\"response-circle\">\n            <div class=\"response-fixation\"></div>\n            <div id=\"bar\" class=\"rotating-bar\"></div>\n          </div>\n        </div>\n      ","response":"Enter","trial_type":"html-keyboard-response","trial_index":64,"plugin_version":"2.1.0","time_elapsed":181575,"random_initial_angle":334,"response_angle_css":471,"response_angle_rdk":339,"angular_error_target":34,"angular_error_distractor":131,"target_direction":305,"target_group":"black","reward_points":3},{"rt":null,"stimulus":"\n          <p style=\"color: #00FF00;\">Your reward: 3 points</p>\n        ","response":null,"trial_type":"html-keyboard-response","trial_index":65,"plugin_version":"2.1.0","time_elapsed":183577},{"rt":2020,"stimulus":"\n        <div class=\"instructions-container\">\n          <h2>End of Practice</h2>\n          <p>You have completed the practice trials.</p>\n          <p>Press <strong>Enter</strong> key to begin the main experiment.</p>\n        </div>\n      ","response":"Enter","trial_type":"html-keyboard-response","trial_index":66,"plugin_version":"2.1.0","time_elapsed":185598},{"rt":null,"stimulus":"<div class=\"fixation\" style=\"font-size: 60px;\">+</div>","response":null,"trial_type":"html-keyboard-response","trial_index":67,"plugin_version":"2.1.0","time_elapsed":186600},{"phase":"learning-awareness","target_group":"white","condition_label":"W_H_vs_B_L_rep19","target_direction":243,"distractor_direction":150,"session_rotation":216,"rt":-1,"response":"","correct":false,"choices":"ALL_KEYS","correct_choice":["a"],"trial_duration":2000,"flip_timestamps":[],"response_ends_trial":false,"number_of_apertures":200,"number_of_dots":[1,1,1,1,1,1,1,1,1,1,1,1,1,1,1,1,1,1,1,1,1,1,1,1,1,1,1,1,1,1,1,1,1,1,1,1,1,1,1,1,1,1,1,1,1,1,1,1,1,1,1,1,1,1,1,1,1,1,1,1,1,1,1,1,1,1,1,1,1,1,1,1,1,1,1,1,1,1,1,1,1,1,1,1,1,1,1,1,1,1,1,1,1,1,1,1,1,1,1,1,1,1,1,1,1,1,1,1,1,1,1,1,1,1,1,1,1,1,1,1,1,1,1,1,1,1,1,1,1,1,1,1,1,1,1,1,1,1,1,1,1,1,1,1,1,1,1,1,1,1,1,1,1,1,1,1,1,1,1,1,1,1,1,1,1,1,1,1,1,1,1,1,1,1,1,1,1,1,1,1,1,1,1,1,1,1,1,1,1,1,1,1,1,1,1,1,1,1,1,1],"number_of_sets":1,"coherent_direction":[243,150,243,243,243,243,243,150,150,243,243,150,150,243,150,150,243,243,243,243,243,243,243,243,243,150,243,150,150,150,243,150,150,150,243,150,243,243,150,243,150,243,243,243,243,243,243,150,150,243,150,150,243,150,243,243,243,243,243,150,150,150,150,150,243,150,150,150,150,150,150,243,150,150,243,243,150,243,150,243,150,243,243,243,243,150,243,243,243,150,150,150,150,150,150,150,243,243,243,150,243,243,243,243,243,243,150,150,243,243,150,150,150,243,243,150,150,243,150,150,150,150,243,150,243,243,243,150,150,150,150,150,243,243,243,150,243,243,243,243,243,150,150,150,243,243,150,243,150,243,243,150,150,243,150,243,243,150,150,150,150,150,150,150,243,243,150,150,243,243,150,150,150,150,243,150,243,150,150,243,243,150,243,243,243,150,150,150,243,150,243,150,243,243,150,243,150,150,150,150],"coherence":1,"opposite_coherence":0,"dot_radius":2,"dot_side_length":1,"dot_life":-1,"move_distance":1,"aperture_width":300,"aperture_height":300,"dot_color":["white","black","white","white","white","white","white","black","black","white","white","black","black","white","black","black","white","white","white","white","white","white","white","white","white","black","white","black","black","black","white","black","black","black","white","black","white","white","black","white","black","white","white","white","white","white","white","black","black","white","black","black","white","black","white","white","white","white","white","black","black","black","black","black","white","black","black","black","black","black","black","white","black","black","white","white","black","white","black","white","black","white","white","white","white","black","white","white","white","black","black","black","black","black","black","black","white","white","white","black","white","white","white","white","white","white","black","black","white","white","black","black","black","white","white","black","black","white","black","black","black","black","white","black","white","white","white","black","black","black","black","black","white","white","white","black","white","white","white","white","white","black","black","black","white","white","black","white","black","white","white","black","black","white","black","white","white","black","black","black","black","black","black","black","white","white","black","black","white","white","black","black","black","black","white","black","white","black","black","white","white","black","white","white","white","black","black","black","white","black","white","black","white","white","black","white","black","black","black","black"],"dot_shape":"circle","background_color":"#AAA","RDK_type":3,"aperture_type":2,"reinsert_type":2,"frame_rate":16.8,"frame_rate_array":[16,14,16,17,17,17,17,17,17,16,17,17,17,16,17,17,17,17,17,17,17,18,18,15,18,16,16,17,17,16,17,18,16,17,18,16,17,18,17,17,16,16,15,16,16,17,17,16,17,17,17,20,18,16,17,18,16,17,18,15,18,16,16,17,16,17,17,17,17,18,17,17,16,17,17,15,16,17,17,16,16,17,17,17,17,16,17,16,17,17,17,17,16,17,17,17,16,17,17,17,17,17,17,16,17,17,17,17,17,16,17,17,17,17,17,17,18,19,16,17],"number_of_frames":120,"aperture_center_x":750,"aperture_center_y":500,"fixation_cross":true,"fixation_cross_width":15,"fixation_cross_height":15,"fixation_cross_color":"#111","fixation_cross_thickness":1,"border":true,"border_thickness":2,"border_color":"transparent","canvas_width":1500,"canvas_height":1000,"trial_type":"rdk","trial_index":68,"plugin_version":"2.0.0","time_elapsed":188613},{"rt":1943,"stimulus":"\n        <div class=\"response-container\">\n          <div class=\"response-instruction\">\n            <p>rotate the bar by using the left and right arrow keys.</p>\n            <p>when you are determined, press the Enter key.</p>\n          </div>\n          <div class=\"response-circle\">\n            <div class=\"response-fixation\"></div>\n            <div id=\"bar\" class=\"rotating-bar\"></div>\n          </div>\n        </div>\n      ","response":"Enter","trial_type":"html-keyboard-response","trial_index":69,"plugin_version":"2.1.0","time_elapsed":190557,"random_initial_angle":298,"response_angle_css":307,"response_angle_rdk":143,"angular_error_target":-100,"angular_error_distractor":-7,"target_direction":243,"target_group":"white","reward_points":0},{"rt":null,"stimulus":"\n          <p style=\"color: #FF3333;\">Your reward: 0 points</p>\n        ","response":null,"trial_type":"html-keyboard-response","trial_index":70,"plugin_version":"2.1.0","time_elapsed":192560},{"rt":null,"stimulus":"<div class=\"fixation\" style=\"font-size: 60px;\">+</div>","response":null,"trial_type":"html-keyboard-response","trial_index":71,"plugin_version":"2.1.0","time_elapsed":193563},{"phase":"learning-awareness","target_group":"white","condition_label":"W_H_vs_B_L_rep20","target_direction":258,"distractor_direction":132,"session_rotation":216,"rt":-1,"response":"","correct":false,"choices":"ALL_KEYS","correct_choice":["a"],"trial_duration":2000,"flip_timestamps":[],"response_ends_trial":false,"number_of_apertures":200,"number_of_dots":[1,1,1,1,1,1,1,1,1,1,1,1,1,1,1,1,1,1,1,1,1,1,1,1,1,1,1,1,1,1,1,1,1,1,1,1,1,1,1,1,1,1,1,1,1,1,1,1,1,1,1,1,1,1,1,1,1,1,1,1,1,1,1,1,1,1,1,1,1,1,1,1,1,1,1,1,1,1,1,1,1,1,1,1,1,1,1,1,1,1,1,1,1,1,1,1,1,1,1,1,1,1,1,1,1,1,1,1,1,1,1,1,1,1,1,1,1,1,1,1,1,1,1,1,1,1,1,1,1,1,1,1,1,1,1,1,1,1,1,1,1,1,1,1,1,1,1,1,1,1,1,1,1,1,1,1,1,1,1,1,1,1,1,1,1,1,1,1,1,1,1,1,1,1,1,1,1,1,1,1,1,1,1,1,1,1,1,1,1,1,1,1,1,1,1,1,1,1,1,1],"number_of_sets":1,"coherent_direction":[258,258,132,258,132,258,258,258,132,132,258,258,132,132,132,258,132,132,132,258,258,132,132,132,258,132,132,258,258,258,132,132,132,132,258,258,258,258,132,258,258,132,132,258,258,132,258,132,132,258,258,132,132,132,132,132,258,258,258,132,132,132,132,258,258,258,132,132,132,132,132,258,258,132,132,258,258,132,258,132,132,132,132,258,258,132,132,258,258,132,258,132,258,132,258,132,132,132,132,132,132,132,258,258,258,258,132,258,132,132,132,258,258,258,258,132,258,132,132,258,258,132,258,258,258,258,258,258,258,258,132,258,132,258,258,258,258,258,132,132,132,258,258,132,132,132,258,132,258,132,258,258,132,258,132,132,132,132,132,258,258,132,258,132,258,132,132,258,258,132,258,258,258,258,258,132,258,258,132,132,132,258,258,258,258,132,132,132,258,132,132,258,132,258,258,132,132,258,132,258],"coherence":1,"opposite_coherence":0,"dot_radius":2,"dot_side_length":1,"dot_life":-1,"move_distance":1,"aperture_width":300,"aperture_height":300,"dot_color":["white","white","black","white","black","white","white","white","black","black","white","white","black","black","black","white","black","black","black","white","white","black","black","black","white","black","black","white","white","white","black","black","black","black","white","white","white","white","black","white","white","black","black","white","white","black","white","black","black","white","white","black","black","black","black","black","white","white","white","black","black","black","black","white","white","white","black","black","black","black","black","white","white","black","black","white","white","black","white","black","black","black","black","white","white","black","black","white","white","black","white","black","white","black","white","black","black","black","black","black","black","black","white","white","white","white","black","white","black","black","black","white","white","white","white","black","white","black","black","white","white","black","white","white","white","white","white","white","white","white","black","white","black","white","white","white","white","white","black","black","black","white","white","black","black","black","white","black","white","black","white","white","black","white","black","black","black","black","black","white","white","black","white","black","white","black","black","white","white","black","white","white","white","white","white","black","white","white","black","black","black","white","white","white","white","black","black","black","white","black","black","white","black","white","white","black","black","white","black","white"],"dot_shape":"circle","background_color":"#AAA","RDK_type":3,"aperture_type":2,"reinsert_type":2,"frame_rate":16.722689075630253,"frame_rate_array":[18,13,16,16,17,17,17,17,17,17,17,17,17,16,17,17,17,18,18,17,17,16,17,18,16,16,16,18,17,16,16,16,18,17,18,14,15,16,16,16,17,16,17,17,16,17,17,17,17,17,18,18,17,17,16,17,17,16,17,17,17,17,17,17,17,18,16,17,17,16,16,15,16,17,16,17,16,17,17,16,17,17,17,17,17,19,18,15,17,16,18,15,17,16,17,17,16,18,18,16,15,16,16,16,16,17,17,17,16,17,17,17,17,17,17,16,19,18,16],"number_of_frames":119,"aperture_center_x":750,"aperture_center_y":500,"fixation_cross":true,"fixation_cross_width":15,"fixation_cross_height":15,"fixation_cross_color":"#111","fixation_cross_thickness":1,"border":true,"border_thickness":2,"border_color":"transparent","canvas_width":1500,"canvas_height":1000,"trial_type":"rdk","trial_index":72,"plugin_version":"2.0.0","time_elapsed":195571},{"rt":4895,"stimulus":"\n        <div class=\"response-container\">\n          <div class=\"response-instruction\">\n            <p>rotate the bar by using the left and right arrow keys.</p>\n            <p>when you are determined, press the Enter key.</p>\n          </div>\n          <div class=\"response-circle\">\n            <div class=\"response-fixation\"></div>\n            <div id=\"bar\" class=\"rotating-bar\"></div>\n          </div>\n        </div>\n      ","response":"Enter","trial_type":"html-keyboard-response","trial_index":73,"plugin_version":"2.1.0","time_elapsed":200468,"random_initial_angle":135,"response_angle_css":337,"response_angle_rdk":113,"angular_error_target":-145,"angular_error_distractor":-19,"target_direction":258,"target_group":"white","reward_points":0},{"rt":null,"stimulus":"\n          <p style=\"color: #FF3333;\">Your reward: 0 points</p>\n        ","response":null,"trial_type":"html-keyboard-response","trial_index":74,"plugin_version":"2.1.0","time_elapsed":202469},{"rt":null,"stimulus":"<div class=\"fixation\" style=\"font-size: 60px;\">+</div>","response":null,"trial_type":"html-keyboard-response","trial_index":75,"plugin_version":"2.1.0","time_elapsed":203470},{"phase":"learning-awareness","target_group":"black","condition_label":"B_H_vs_W_L_rep18","target_direction":323,"distractor_direction":80,"session_rotation":216,"rt":-1,"response":"","correct":false,"choices":"ALL_KEYS","correct_choice":["a"],"trial_duration":2000,"flip_timestamps":[],"response_ends_trial":false,"number_of_apertures":200,"number_of_dots":[1,1,1,1,1,1,1,1,1,1,1,1,1,1,1,1,1,1,1,1,1,1,1,1,1,1,1,1,1,1,1,1,1,1,1,1,1,1,1,1,1,1,1,1,1,1,1,1,1,1,1,1,1,1,1,1,1,1,1,1,1,1,1,1,1,1,1,1,1,1,1,1,1,1,1,1,1,1,1,1,1,1,1,1,1,1,1,1,1,1,1,1,1,1,1,1,1,1,1,1,1,1,1,1,1,1,1,1,1,1,1,1,1,1,1,1,1,1,1,1,1,1,1,1,1,1,1,1,1,1,1,1,1,1,1,1,1,1,1,1,1,1,1,1,1,1,1,1,1,1,1,1,1,1,1,1,1,1,1,1,1,1,1,1,1,1,1,1,1,1,1,1,1,1,1,1,1,1,1,1,1,1,1,1,1,1,1,1,1,1,1,1,1,1,1,1,1,1,1,1],"number_of_sets":1,"coherent_direction":[323,80,323,80,80,323,323,323,80,323,323,323,80,323,323,80,80,80,80,80,80,323,80,80,323,80,80,323,323,323,323,80,80,323,323,323,323,80,80,323,80,323,80,323,323,80,323,80,323,323,323,323,80,80,80,323,323,80,80,323,80,80,323,323,323,80,80,323,323,323,323,80,323,80,80,80,323,80,323,323,80,323,80,80,80,323,80,323,80,80,323,80,323,80,80,80,80,80,80,80,323,323,323,323,323,80,80,323,80,323,80,80,80,80,80,80,323,80,323,80,80,323,323,80,323,323,80,80,80,323,323,80,323,80,323,80,80,323,323,80,323,80,80,80,80,323,323,80,323,323,323,80,80,323,80,80,323,323,80,323,323,80,323,80,323,80,80,323,80,80,80,323,323,323,80,323,80,80,323,323,323,323,80,323,323,323,323,80,323,80,323,323,323,80,80,323,323,80,323,80],"coherence":1,"opposite_coherence":0,"dot_radius":2,"dot_side_length":1,"dot_life":-1,"move_distance":1,"aperture_width":300,"aperture_height":300,"dot_color":["black","white","black","white","white","black","black","black","white","black","black","black","white","black","black","white","white","white","white","white","white","black","white","white","black","white","white","black","black","black","black","white","white","black","black","black","black","white","white","black","white","black","white","black","black","white","black","white","black","black","black","black","white","white","white","black","black","white","white","black","white","white","black","black","black","white","white","black","black","black","black","white","black","white","white","white","black","white","black","black","white","black","white","white","white","black","white","black","white","white","black","white","black","white","white","white","white","white","white","white","black","black","black","black","black","white","white","black","white","black","white","white","white","white","white","white","black","white","black","white","white","black","black","white","black","black","white","white","white","black","black","white","black","white","black","white","white","black","black","white","black","white","white","white","white","black","black","white","black","black","black","white","white","black","white","white","black","black","white","black","black","white","black","white","black","white","white","black","white","white","white","black","black","black","white","black","white","white","black","black","black","black","white","black","black","black","black","white","black","white","black","black","black","white","white","black","black","white","black","white"],"dot_shape":"circle","background_color":"#AAA","RDK_type":3,"aperture_type":2,"reinsert_type":2,"frame_rate":16.84873949579832,"frame_rate_array":[21,17,17,17,17,17,16,16,17,16,17,17,17,17,16,17,17,17,17,17,16,16,17,17,16,17,17,16,17,17,17,17,17,17,17,17,17,17,17,16,17,17,17,17,17,17,17,17,17,17,16,16,17,16,17,17,17,17,17,17,17,17,17,17,17,17,16,17,17,16,17,17,17,17,17,17,17,17,17,17,17,17,18,16,16,17,17,16,17,17,16,17,17,16,17,17,17,17,17,17,17,17,16,17,17,17,17,17,17,17,16,17,17,17,17,16,17,17,16],"number_of_frames":119,"aperture_center_x":750,"aperture_center_y":500,"fixation_cross":true,"fixation_cross_width":15,"fixation_cross_height":15,"fixation_cross_color":"#111","fixation_cross_thickness":1,"border":true,"border_thickness":2,"border_color":"transparent","canvas_width":1500,"canvas_height":1000,"trial_type":"rdk","trial_index":76,"plugin_version":"2.0.0","time_elapsed":205472},{"rt":1368,"stimulus":"\n        <div class=\"response-container\">\n          <div class=\"response-instruction\">\n            <p>rotate the bar by using the left and right arrow keys.</p>\n            <p>when you are determined, press the Enter key.</p>\n          </div>\n          <div class=\"response-circle\">\n            <div class=\"response-fixation\"></div>\n            <div id=\"bar\" class=\"rotating-bar\"></div>\n          </div>\n        </div>\n      ","response":"Enter","trial_type":"html-keyboard-response","trial_index":77,"plugin_version":"2.1.0","time_elapsed":206840,"random_initial_angle":149,"response_angle_css":149,"response_angle_rdk":301,"angular_error_target":-22,"angular_error_distractor":-139,"target_direction":323,"target_group":"black","reward_points":5},{"rt":null,"stimulus":"\n          <p style=\"color: #00FF00;\">Your reward: 5 points</p>\n        ","response":null,"trial_type":"html-keyboard-response","trial_index":78,"plugin_version":"2.1.0","time_elapsed":208842},{"rt":null,"stimulus":"<div class=\"fixation\" style=\"font-size: 60px;\">+</div>","response":null,"trial_type":"html-keyboard-response","trial_index":79,"plugin_version":"2.1.0","time_elapsed":209845},{"phase":"learning-awareness","target_group":"white","condition_label":"W_H_vs_B_L_rep13","target_direction":247,"distractor_direction":129,"session_rotation":216,"rt":-1,"response":"","correct":false,"choices":"ALL_KEYS","correct_choice":["a"],"trial_duration":2000,"flip_timestamps":[],"response_ends_trial":false,"number_of_apertures":200,"number_of_dots":[1,1,1,1,1,1,1,1,1,1,1,1,1,1,1,1,1,1,1,1,1,1,1,1,1,1,1,1,1,1,1,1,1,1,1,1,1,1,1,1,1,1,1,1,1,1,1,1,1,1,1,1,1,1,1,1,1,1,1,1,1,1,1,1,1,1,1,1,1,1,1,1,1,1,1,1,1,1,1,1,1,1,1,1,1,1,1,1,1,1,1,1,1,1,1,1,1,1,1,1,1,1,1,1,1,1,1,1,1,1,1,1,1,1,1,1,1,1,1,1,1,1,1,1,1,1,1,1,1,1,1,1,1,1,1,1,1,1,1,1,1,1,1,1,1,1,1,1,1,1,1,1,1,1,1,1,1,1,1,1,1,1,1,1,1,1,1,1,1,1,1,1,1,1,1,1,1,1,1,1,1,1,1,1,1,1,1,1,1,1,1,1,1,1,1,1,1,1,1,1],"number_of_sets":1,"coherent_direction":[129,247,129,247,247,247,247,247,247,129,247,129,247,129,129,129,129,247,129,129,129,129,247,129,247,129,129,247,247,247,129,247,247,129,129,247,247,129,247,247,129,129,247,129,247,247,247,247,247,247,129,129,129,247,129,129,247,129,247,129,129,129,247,247,129,129,247,247,247,247,247,129,129,129,247,129,129,129,247,247,129,247,247,247,247,247,247,129,247,129,247,247,129,129,247,129,247,247,247,129,129,247,247,247,129,129,247,129,247,247,129,129,247,247,129,247,247,247,129,129,247,247,247,247,129,247,247,129,247,129,129,247,129,247,247,247,129,247,129,129,129,129,247,129,247,129,129,129,247,129,129,129,129,129,129,247,247,247,247,247,129,129,129,129,129,129,129,247,129,247,247,129,247,129,247,129,129,129,247,129,129,129,247,129,247,247,247,247,129,247,129,129,247,247,247,129,129,129,129,129],"coherence":1,"opposite_coherence":0,"dot_radius":2,"dot_side_length":1,"dot_life":-1,"move_distance":1,"aperture_width":300,"aperture_height":300,"dot_color":["black","white","black","white","white","white","white","white","white","black","white","black","white","black","black","black","black","white","black","black","black","black","white","black","white","black","black","white","white","white","black","white","white","black","black","white","white","black","white","white","black","black","white","black","white","white","white","white","white","white","black","black","black","white","black","black","white","black","white","black","black","black","white","white","black","black","white","white","white","white","white","black","black","black","white","black","black","black","white","white","black","white","white","white","white","white","white","black","white","black","white","white","black","black","white","black","white","white","white","black","black","white","white","white","black","black","white","black","white","white","black","black","white","white","black","white","white","white","black","black","white","white","white","white","black","white","white","black","white","black","black","white","black","white","white","white","black","white","black","black","black","black","white","black","white","black","black","black","white","black","black","black","black","black","black","white","white","white","white","white","black","black","black","black","black","black","black","white","black","white","white","black","white","black","white","black","black","black","white","black","black","black","white","black","white","white","white","white","black","white","black","black","white","white","white","black","black","black","black","black"],"dot_shape":"circle","background_color":"#AAA","RDK_type":3,"aperture_type":2,"reinsert_type":2,"frame_rate":16.764705882352942,"frame_rate_array":[21,15,15,17,16,17,16,17,17,17,17,17,17,18,16,16,16,17,17,17,17,17,16,17,17,17,17,18,17,18,17,17,17,17,16,16,16,17,17,17,17,17,19,15,18,17,16,15,16,17,16,17,16,17,16,17,20,19,14,17,17,18,15,17,17,16,17,16,17,17,16,17,17,17,15,18,17,14,17,15,16,17,17,17,17,17,16,17,17,17,17,16,17,18,19,16,17,17,17,17,16,17,18,16,17,18,16,18,15,18,18,17,15,15,16,16,16,17,17],"number_of_frames":119,"aperture_center_x":750,"aperture_center_y":500,"fixation_cross":true,"fixation_cross_width":15,"fixation_cross_height":15,"fixation_cross_color":"#111","fixation_cross_thickness":1,"border":true,"border_thickness":2,"border_color":"transparent","canvas_width":1500,"canvas_height":1000,"trial_type":"rdk","trial_index":80,"plugin_version":"2.0.0","time_elapsed":211850},{"rt":4413,"stimulus":"\n        <div class=\"response-container\">\n          <div class=\"response-instruction\">\n            <p>rotate the bar by using the left and right arrow keys.</p>\n            <p>when you are determined, press the Enter key.</p>\n          </div>\n          <div class=\"response-circle\">\n            <div class=\"response-fixation\"></div>\n            <div id=\"bar\" class=\"rotating-bar\"></div>\n          </div>\n        </div>\n      ","response":"Enter","trial_type":"html-keyboard-response","trial_index":81,"plugin_version":"2.1.0","time_elapsed":216264,"random_initial_angle":94,"response_angle_css":-41,"response_angle_rdk":131,"angular_error_target":-116,"angular_error_distractor":2,"target_direction":247,"target_group":"white","reward_points":0},{"rt":null,"stimulus":"\n          <p style=\"color: #FF3333;\">Your reward: 0 points</p>\n        ","response":null,"trial_type":"html-keyboard-response","trial_index":82,"plugin_version":"2.1.0","time_elapsed":218265},{"rt":null,"stimulus":"<div class=\"fixation\" style=\"font-size: 60px;\">+</div>","response":null,"trial_type":"html-keyboard-response","trial_index":83,"plugin_version":"2.1.0","time_elapsed":219266},{"phase":"learning-awareness","target_group":"white","condition_label":"W_H_vs_B_L_rep14","target_direction":249,"distractor_direction":146,"session_rotation":216,"rt":-1,"response":"","correct":false,"choices":"ALL_KEYS","correct_choice":["a"],"trial_duration":2000,"flip_timestamps":[],"response_ends_trial":false,"number_of_apertures":200,"number_of_dots":[1,1,1,1,1,1,1,1,1,1,1,1,1,1,1,1,1,1,1,1,1,1,1,1,1,1,1,1,1,1,1,1,1,1,1,1,1,1,1,1,1,1,1,1,1,1,1,1,1,1,1,1,1,1,1,1,1,1,1,1,1,1,1,1,1,1,1,1,1,1,1,1,1,1,1,1,1,1,1,1,1,1,1,1,1,1,1,1,1,1,1,1,1,1,1,1,1,1,1,1,1,1,1,1,1,1,1,1,1,1,1,1,1,1,1,1,1,1,1,1,1,1,1,1,1,1,1,1,1,1,1,1,1,1,1,1,1,1,1,1,1,1,1,1,1,1,1,1,1,1,1,1,1,1,1,1,1,1,1,1,1,1,1,1,1,1,1,1,1,1,1,1,1,1,1,1,1,1,1,1,1,1,1,1,1,1,1,1,1,1,1,1,1,1,1,1,1,1,1,1],"number_of_sets":1,"coherent_direction":[146,249,249,249,146,249,249,249,146,249,146,249,146,146,249,249,249,146,249,146,249,249,146,249,146,249,146,146,249,249,249,249,146,249,249,146,146,146,146,249,249,146,249,249,146,249,249,249,146,249,249,249,249,249,249,249,146,249,146,249,146,249,146,249,146,249,249,249,249,146,146,249,249,146,249,249,249,146,249,249,249,146,146,249,249,146,249,146,146,249,249,146,249,249,249,146,146,146,249,249,146,249,146,146,146,249,146,146,249,146,249,146,249,146,146,146,146,146,249,146,249,146,249,146,249,249,249,146,249,146,249,146,249,146,146,146,249,146,146,146,146,249,146,249,146,249,146,249,146,146,146,249,146,146,249,146,249,146,146,146,249,146,146,249,146,249,146,249,249,146,146,249,249,146,249,249,146,146,146,146,146,146,146,249,146,146,249,146,146,146,146,249,249,146,249,146,146,249,249,146],"coherence":1,"opposite_coherence":0,"dot_radius":2,"dot_side_length":1,"dot_life":-1,"move_distance":1,"aperture_width":300,"aperture_height":300,"dot_color":["black","white","white","white","black","white","white","white","black","white","black","white","black","black","white","white","white","black","white","black","white","white","black","white","black","white","black","black","white","white","white","white","black","white","white","black","black","black","black","white","white","black","white","white","black","white","white","white","black","white","white","white","white","white","white","white","black","white","black","white","black","white","black","white","black","white","white","white","white","black","black","white","white","black","white","white","white","black","white","white","white","black","black","white","white","black","white","black","black","white","white","black","white","white","white","black","black","black","white","white","black","white","black","black","black","white","black","black","white","black","white","black","white","black","black","black","black","black","white","black","white","black","white","black","white","white","white","black","white","black","white","black","white","black","black","black","white","black","black","black","black","white","black","white","black","white","black","white","black","black","black","white","black","black","white","black","white","black","black","black","white","black","black","white","black","white","black","white","white","black","black","white","white","black","white","white","black","black","black","black","black","black","black","white","black","black","white","black","black","black","black","white","white","black","white","black","black","white","white","black"],"dot_shape":"circle","background_color":"#AAA","RDK_type":3,"aperture_type":2,"reinsert_type":2,"frame_rate":16.756302521008404,"frame_rate_array":[19,16,21,13,16,17,17,17,16,17,16,17,18,16,17,18,15,18,18,14,17,18,16,14,16,17,16,17,17,17,17,17,16,17,17,17,17,17,17,19,16,17,17,17,15,18,16,17,18,17,16,16,17,16,18,17,17,16,14,17,16,17,18,15,17,17,16,17,17,17,17,16,17,16,17,17,16,18,16,16,17,17,17,17,16,16,17,17,17,16,16,17,17,17,16,17,17,16,17,18,16,17,17,17,19,18,15,16,17,17,17,18,15,17,18,16,17,18,17],"number_of_frames":119,"aperture_center_x":750,"aperture_center_y":500,"fixation_cross":true,"fixation_cross_width":15,"fixation_cross_height":15,"fixation_cross_color":"#111","fixation_cross_thickness":1,"border":true,"border_thickness":2,"border_color":"transparent","canvas_width":1500,"canvas_height":1000,"trial_type":"rdk","trial_index":84,"plugin_version":"2.0.0","time_elapsed":221271},{"rt":2798,"stimulus":"\n        <div class=\"response-container\">\n          <div class=\"response-instruction\">\n            <p>rotate the bar by using the left and right arrow keys.</p>\n            <p>when you are determined, press the Enter key.</p>\n          </div>\n          <div class=\"response-circle\">\n            <div class=\"response-fixation\"></div>\n            <div id=\"bar\" class=\"rotating-bar\"></div>\n          </div>\n        </div>\n      ","response":"Enter","trial_type":"html-keyboard-response","trial_index":85,"plugin_version":"2.1.0","time_elapsed":224073,"random_initial_angle":350,"response_angle_css":309,"response_angle_rdk":141,"angular_error_target":-108,"angular_error_distractor":-5,"target_direction":249,"target_group":"white","reward_points":0},{"rt":null,"stimulus":"\n          <p style=\"color: #FF3333;\">Your reward: 0 points</p>\n        ","response":null,"trial_type":"html-keyboard-response","trial_index":86,"plugin_version":"2.1.0","time_elapsed":226076},{"rt":null,"stimulus":"<div class=\"fixation\" style=\"font-size: 60px;\">+</div>","response":null,"trial_type":"html-keyboard-response","trial_index":87,"plugin_version":"2.1.0","time_elapsed":227078},{"phase":"learning-awareness","target_group":"black","condition_label":"B_H_vs_W_L_rep15","target_direction":312,"distractor_direction":67,"session_rotation":216,"rt":-1,"response":"","correct":false,"choices":"ALL_KEYS","correct_choice":["a"],"trial_duration":2000,"flip_timestamps":[],"response_ends_trial":false,"number_of_apertures":200,"number_of_dots":[1,1,1,1,1,1,1,1,1,1,1,1,1,1,1,1,1,1,1,1,1,1,1,1,1,1,1,1,1,1,1,1,1,1,1,1,1,1,1,1,1,1,1,1,1,1,1,1,1,1,1,1,1,1,1,1,1,1,1,1,1,1,1,1,1,1,1,1,1,1,1,1,1,1,1,1,1,1,1,1,1,1,1,1,1,1,1,1,1,1,1,1,1,1,1,1,1,1,1,1,1,1,1,1,1,1,1,1,1,1,1,1,1,1,1,1,1,1,1,1,1,1,1,1,1,1,1,1,1,1,1,1,1,1,1,1,1,1,1,1,1,1,1,1,1,1,1,1,1,1,1,1,1,1,1,1,1,1,1,1,1,1,1,1,1,1,1,1,1,1,1,1,1,1,1,1,1,1,1,1,1,1,1,1,1,1,1,1,1,1,1,1,1,1,1,1,1,1,1,1],"number_of_sets":1,"coherent_direction":[67,312,67,312,67,67,312,312,312,67,67,67,312,67,312,312,67,67,67,67,312,312,312,312,312,67,67,312,312,67,67,67,67,67,67,312,312,312,67,67,312,312,67,67,312,67,67,67,67,67,67,67,312,312,312,67,67,312,67,312,67,312,312,312,312,67,67,312,67,67,312,312,312,312,312,67,312,312,67,312,67,312,67,312,312,312,312,312,67,67,67,67,67,312,312,67,312,67,67,312,312,67,312,67,67,312,312,312,67,312,312,312,67,312,67,67,312,67,67,67,312,312,312,67,67,312,67,67,67,67,312,312,312,67,67,67,312,312,67,312,67,67,67,312,312,67,312,312,312,67,67,312,312,312,67,312,67,312,312,312,67,312,312,312,312,67,312,312,67,312,67,312,312,67,67,312,67,312,67,312,312,67,312,67,67,67,67,67,67,67,67,67,312,312,312,312,67,67,312,67],"coherence":1,"opposite_coherence":0,"dot_radius":2,"dot_side_length":1,"dot_life":-1,"move_distance":1,"aperture_width":300,"aperture_height":300,"dot_color":["white","black","white","black","white","white","black","black","black","white","white","white","black","white","black","black","white","white","white","white","black","black","black","black","black","white","white","black","black","white","white","white","white","white","white","black","black","black","white","white","black","black","white","white","black","white","white","white","white","white","white","white","black","black","black","white","white","black","white","black","white","black","black","black","black","white","white","black","white","white","black","black","black","black","black","white","black","black","white","black","white","black","white","black","black","black","black","black","white","white","white","white","white","black","black","white","black","white","white","black","black","white","black","white","white","black","black","black","white","black","black","black","white","black","white","white","black","white","white","white","black","black","black","white","white","black","white","white","white","white","black","black","black","white","white","white","black","black","white","black","white","white","white","black","black","white","black","black","black","white","white","black","black","black","white","black","white","black","black","black","white","black","black","black","black","white","black","black","white","black","white","black","black","white","white","black","white","black","white","black","black","white","black","white","white","white","white","white","white","white","white","white","black","black","black","black","white","white","black","white"],"dot_shape":"circle","background_color":"#AAA","RDK_type":3,"aperture_type":2,"reinsert_type":2,"frame_rate":16.823529411764707,"frame_rate_array":[21,16,13,16,16,17,17,17,18,17,17,16,17,17,17,17,17,17,18,16,16,17,17,17,17,17,17,17,18,17,16,17,17,16,15,16,17,17,16,17,16,17,17,17,17,17,19,17,16,17,17,17,16,18,17,16,15,17,16,17,17,16,17,17,17,18,17,17,17,16,16,16,17,16,17,17,17,17,17,17,17,16,17,17,17,18,18,16,19,16,17,16,17,17,14,16,17,17,17,17,16,16,17,17,17,17,17,16,17,18,17,19,19,15,17,17,16,17,18],"number_of_frames":119,"aperture_center_x":750,"aperture_center_y":500,"fixation_cross":true,"fixation_cross_width":15,"fixation_cross_height":15,"fixation_cross_color":"#111","fixation_cross_thickness":1,"border":true,"border_thickness":2,"border_color":"transparent","canvas_width":1500,"canvas_height":1000,"trial_type":"rdk","trial_index":88,"plugin_version":"2.0.0","time_elapsed":229084},{"rt":3010,"stimulus":"\n        <div class=\"response-container\">\n          <div class=\"response-instruction\">\n            <p>rotate the bar by using the left and right arrow keys.</p>\n            <p>when you are determined, press the Enter key.</p>\n          </div>\n          <div class=\"response-circle\">\n            <div class=\"response-fixation\"></div>\n            <div id=\"bar\" class=\"rotating-bar\"></div>\n          </div>\n        </div>\n      ","response":"Enter","trial_type":"html-keyboard-response","trial_index":89,"plugin_version":"2.1.0","time_elapsed":232095,"random_initial_angle":148,"response_angle_css":33,"response_angle_rdk":57,"angular_error_target":105,"angular_error_distractor":-10,"target_direction":312,"target_group":"black","reward_points":0},{"rt":null,"stimulus":"\n          <p style=\"color: #FF3333;\">Your reward: 0 points</p>\n        ","response":null,"trial_type":"html-keyboard-response","trial_index":90,"plugin_version":"2.1.0","time_elapsed":234097},{"rt":null,"stimulus":"<div class=\"fixation\" style=\"font-size: 60px;\">+</div>","response":null,"trial_type":"html-keyboard-response","trial_index":91,"plugin_version":"2.1.0","time_elapsed":235099},{"phase":"learning-awareness","target_group":"black","condition_label":"B_H_vs_W_L_rep19","target_direction":308,"distractor_direction":65,"session_rotation":216,"rt":-1,"response":"","correct":false,"choices":"ALL_KEYS","correct_choice":["a"],"trial_duration":2000,"flip_timestamps":[],"response_ends_trial":false,"number_of_apertures":200,"number_of_dots":[1,1,1,1,1,1,1,1,1,1,1,1,1,1,1,1,1,1,1,1,1,1,1,1,1,1,1,1,1,1,1,1,1,1,1,1,1,1,1,1,1,1,1,1,1,1,1,1,1,1,1,1,1,1,1,1,1,1,1,1,1,1,1,1,1,1,1,1,1,1,1,1,1,1,1,1,1,1,1,1,1,1,1,1,1,1,1,1,1,1,1,1,1,1,1,1,1,1,1,1,1,1,1,1,1,1,1,1,1,1,1,1,1,1,1,1,1,1,1,1,1,1,1,1,1,1,1,1,1,1,1,1,1,1,1,1,1,1,1,1,1,1,1,1,1,1,1,1,1,1,1,1,1,1,1,1,1,1,1,1,1,1,1,1,1,1,1,1,1,1,1,1,1,1,1,1,1,1,1,1,1,1,1,1,1,1,1,1,1,1,1,1,1,1,1,1,1,1,1,1],"number_of_sets":1,"coherent_direction":[308,308,308,308,65,308,308,308,308,308,308,65,65,65,308,308,308,308,65,65,308,65,308,308,308,308,308,65,65,65,65,308,65,65,308,65,308,308,65,65,308,308,65,65,65,308,65,308,65,308,308,308,65,65,65,65,308,308,308,308,65,308,65,308,65,308,65,65,65,308,65,65,308,308,65,65,308,65,308,308,308,65,65,308,308,308,308,308,308,308,308,308,308,308,65,308,65,65,65,308,308,65,65,308,308,308,308,308,308,65,65,65,308,65,308,308,308,65,65,65,65,65,308,308,65,308,65,65,308,308,308,65,65,65,65,65,65,308,65,308,65,308,308,308,65,65,308,65,65,65,65,308,308,65,65,65,65,308,65,65,65,65,65,308,308,308,65,308,308,308,65,308,308,65,65,65,308,65,65,65,65,65,308,308,308,65,65,65,65,65,65,308,308,65,65,308,65,65,308,65],"coherence":1,"opposite_coherence":0,"dot_radius":2,"dot_side_length":1,"dot_life":-1,"move_distance":1,"aperture_width":300,"aperture_height":300,"dot_color":["black","black","black","black","white","black","black","black","black","black","black","white","white","white","black","black","black","black","white","white","black","white","black","black","black","black","black","white","white","white","white","black","white","white","black","white","black","black","white","white","black","black","white","white","white","black","white","black","white","black","black","black","white","white","white","white","black","black","black","black","white","black","white","black","white","black","white","white","white","black","white","white","black","black","white","white","black","white","black","black","black","white","white","black","black","black","black","black","black","black","black","black","black","black","white","black","white","white","white","black","black","white","white","black","black","black","black","black","black","white","white","white","black","white","black","black","black","white","white","white","white","white","black","black","white","black","white","white","black","black","black","white","white","white","white","white","white","black","white","black","white","black","black","black","white","white","black","white","white","white","white","black","black","white","white","white","white","black","white","white","white","white","white","black","black","black","white","black","black","black","white","black","black","white","white","white","black","white","white","white","white","white","black","black","black","white","white","white","white","white","white","black","black","white","white","black","white","white","black","white"],"dot_shape":"circle","background_color":"#AAA","RDK_type":3,"aperture_type":2,"reinsert_type":2,"frame_rate":16.77310924369748,"frame_rate_array":[17,13,16,17,16,17,17,17,17,17,18,17,16,17,17,18,18,16,17,17,15,17,17,16,17,17,16,18,16,16,17,18,17,17,18,16,16,17,16,16,16,16,17,17,17,17,17,17,17,17,17,17,18,17,17,17,17,16,18,16,17,17,17,17,19,16,18,14,16,16,16,17,16,17,16,17,17,17,17,17,17,17,19,17,16,17,16,18,15,16,17,17,16,17,17,18,17,17,17,16,15,15,16,17,17,17,17,17,17,17,16,17,17,17,19,19,16,16,17],"number_of_frames":119,"aperture_center_x":750,"aperture_center_y":500,"fixation_cross":true,"fixation_cross_width":15,"fixation_cross_height":15,"fixation_cross_color":"#111","fixation_cross_thickness":1,"border":true,"border_thickness":2,"border_color":"transparent","canvas_width":1500,"canvas_height":1000,"trial_type":"rdk","trial_index":92,"plugin_version":"2.0.0","time_elapsed":237105},{"rt":2562,"stimulus":"\n        <div class=\"response-container\">\n          <div class=\"response-instruction\">\n            <p>rotate the bar by using the left and right arrow keys.</p>\n            <p>when you are determined, press the Enter key.</p>\n          </div>\n          <div class=\"response-circle\">\n            <div class=\"response-fixation\"></div>\n            <div id=\"bar\" class=\"rotating-bar\"></div>\n          </div>\n        </div>\n      ","response":"Enter","trial_type":"html-keyboard-response","trial_index":93,"plugin_version":"2.1.0","time_elapsed":239668,"random_initial_angle":102,"response_angle_css":30,"response_angle_rdk":60,"angular_error_target":112,"angular_error_distractor":-5,"target_direction":308,"target_group":"black","reward_points":0},{"rt":null,"stimulus":"\n          <p style=\"color: #FF3333;\">Your reward: 0 points</p>\n        ","response":null,"trial_type":"html-keyboard-response","trial_index":94,"plugin_version":"2.1.0","time_elapsed":241668},{"rt":null,"stimulus":"<div class=\"fixation\" style=\"font-size: 60px;\">+</div>","response":null,"trial_type":"html-keyboard-response","trial_index":95,"plugin_version":"2.1.0","time_elapsed":242671},{"phase":"learning-awareness","target_group":"black","condition_label":"B_H_vs_W_L_rep9","target_direction":325,"distractor_direction":68,"session_rotation":216,"rt":-1,"response":"","correct":false,"choices":"ALL_KEYS","correct_choice":["a"],"trial_duration":2000,"flip_timestamps":[],"response_ends_trial":false,"number_of_apertures":200,"number_of_dots":[1,1,1,1,1,1,1,1,1,1,1,1,1,1,1,1,1,1,1,1,1,1,1,1,1,1,1,1,1,1,1,1,1,1,1,1,1,1,1,1,1,1,1,1,1,1,1,1,1,1,1,1,1,1,1,1,1,1,1,1,1,1,1,1,1,1,1,1,1,1,1,1,1,1,1,1,1,1,1,1,1,1,1,1,1,1,1,1,1,1,1,1,1,1,1,1,1,1,1,1,1,1,1,1,1,1,1,1,1,1,1,1,1,1,1,1,1,1,1,1,1,1,1,1,1,1,1,1,1,1,1,1,1,1,1,1,1,1,1,1,1,1,1,1,1,1,1,1,1,1,1,1,1,1,1,1,1,1,1,1,1,1,1,1,1,1,1,1,1,1,1,1,1,1,1,1,1,1,1,1,1,1,1,1,1,1,1,1,1,1,1,1,1,1,1,1,1,1,1,1],"number_of_sets":1,"coherent_direction":[68,68,68,325,68,68,68,325,325,325,325,68,325,68,68,68,68,325,325,325,68,325,68,325,68,325,68,325,325,325,68,68,68,325,325,68,68,325,325,68,68,325,68,68,68,325,325,68,68,325,68,68,325,68,325,325,68,68,325,325,68,68,325,325,325,325,68,68,68,325,325,325,325,325,325,325,325,68,68,325,325,68,325,325,68,325,68,68,68,325,68,325,68,325,68,325,68,68,325,325,325,68,325,325,68,325,68,68,68,325,325,68,68,325,325,325,68,325,325,325,325,68,68,68,68,325,68,325,68,325,325,325,325,68,325,68,68,325,325,68,325,325,325,68,325,325,325,325,325,68,68,325,68,68,68,325,68,325,325,68,68,68,325,68,68,325,325,68,68,325,68,68,68,325,325,68,68,68,325,68,68,68,68,68,68,325,68,325,68,68,68,325,325,68,68,325,325,325,325,68],"coherence":1,"opposite_coherence":0,"dot_radius":2,"dot_side_length":1,"dot_life":-1,"move_distance":1,"aperture_width":300,"aperture_height":300,"dot_color":["white","white","white","black","white","white","white","black","black","black","black","white","black","white","white","white","white","black","black","black","white","black","white","black","white","black","white","black","black","black","white","white","white","black","black","white","white","black","black","white","white","black","white","white","white","black","black","white","white","black","white","white","black","white","black","black","white","white","black","black","white","white","black","black","black","black","white","white","white","black","black","black","black","black","black","black","black","white","white","black","black","white","black","black","white","black","white","white","white","black","white","black","white","black","white","black","white","white","black","black","black","white","black","black","white","black","white","white","white","black","black","white","white","black","black","black","white","black","black","black","black","white","white","white","white","black","white","black","white","black","black","black","black","white","black","white","white","black","black","white","black","black","black","white","black","black","black","black","black","white","white","black","white","white","white","black","white","black","black","white","white","white","black","white","white","black","black","white","white","black","white","white","white","black","black","white","white","white","black","white","white","white","white","white","white","black","white","black","white","white","white","black","black","white","white","black","black","black","black","white"],"dot_shape":"circle","background_color":"#AAA","RDK_type":3,"aperture_type":2,"reinsert_type":2,"frame_rate":16.840336134453782,"frame_rate_array":[21,17,17,17,17,17,16,17,17,17,17,17,15,17,17,17,17,17,17,17,17,17,17,17,16,16,16,17,17,17,16,17,17,16,17,17,17,17,17,17,17,17,16,17,17,17,17,17,17,17,17,17,17,17,16,16,17,17,17,17,17,16,17,16,17,17,17,17,17,17,17,17,17,17,17,17,16,17,17,17,16,17,16,17,18,17,15,17,17,16,17,16,17,16,17,17,17,16,17,17,17,17,18,17,17,17,17,16,16,17,17,17,18,16,16,18,16,17,17],"number_of_frames":119,"aperture_center_x":750,"aperture_center_y":500,"fixation_cross":true,"fixation_cross_width":15,"fixation_cross_height":15,"fixation_cross_color":"#111","fixation_cross_thickness":1,"border":true,"border_thickness":2,"border_color":"transparent","canvas_width":1500,"canvas_height":1000,"trial_type":"rdk","trial_index":96,"plugin_version":"2.0.0","time_elapsed":244673},{"rt":1336,"stimulus":"\n        <div class=\"response-container\">\n          <div class=\"response-instruction\">\n            <p>rotate the bar by using the left and right arrow keys.</p>\n            <p>when you are determined, press the Enter key.</p>\n          </div>\n          <div class=\"response-circle\">\n            <div class=\"response-fixation\"></div>\n            <div id=\"bar\" class=\"rotating-bar\"></div>\n          </div>\n        </div>\n      ","response":"Enter","trial_type":"html-keyboard-response","trial_index":97,"plugin_version":"2.1.0","time_elapsed":246010,"random_initial_angle":31,"response_angle_css":34,"response_angle_rdk":56,"angular_error_target":91,"angular_error_distractor":-12,"target_direction":325,"target_group":"black","reward_points":0},{"rt":null,"stimulus":"\n          <p style=\"color: #FF3333;\">Your reward: 0 points</p>\n        ","response":null,"trial_type":"html-keyboard-response","trial_index":98,"plugin_version":"2.1.0","time_elapsed":248011},{"rt":null,"stimulus":"<div class=\"fixation\" style=\"font-size: 60px;\">+</div>","response":null,"trial_type":"html-keyboard-response","trial_index":99,"plugin_version":"2.1.0","time_elapsed":249013},{"phase":"learning-awareness","target_group":"white","condition_label":"W_H_vs_B_L_rep2","target_direction":258,"distractor_direction":167,"session_rotation":216,"rt":-1,"response":"","correct":false,"choices":"ALL_KEYS","correct_choice":["a"],"trial_duration":2000,"flip_timestamps":[],"response_ends_trial":false,"number_of_apertures":200,"number_of_dots":[1,1,1,1,1,1,1,1,1,1,1,1,1,1,1,1,1,1,1,1,1,1,1,1,1,1,1,1,1,1,1,1,1,1,1,1,1,1,1,1,1,1,1,1,1,1,1,1,1,1,1,1,1,1,1,1,1,1,1,1,1,1,1,1,1,1,1,1,1,1,1,1,1,1,1,1,1,1,1,1,1,1,1,1,1,1,1,1,1,1,1,1,1,1,1,1,1,1,1,1,1,1,1,1,1,1,1,1,1,1,1,1,1,1,1,1,1,1,1,1,1,1,1,1,1,1,1,1,1,1,1,1,1,1,1,1,1,1,1,1,1,1,1,1,1,1,1,1,1,1,1,1,1,1,1,1,1,1,1,1,1,1,1,1,1,1,1,1,1,1,1,1,1,1,1,1,1,1,1,1,1,1,1,1,1,1,1,1,1,1,1,1,1,1,1,1,1,1,1,1],"number_of_sets":1,"coherent_direction":[258,167,258,258,258,258,258,258,167,258,258,167,258,258,167,258,258,167,258,258,167,167,167,167,167,167,167,258,167,167,258,167,258,167,258,258,167,258,167,258,258,167,167,258,167,258,167,167,167,167,258,167,167,167,167,258,167,167,258,167,258,167,258,258,258,258,167,258,167,258,258,167,167,258,167,167,167,258,167,258,167,167,167,167,258,258,258,258,258,258,167,258,167,167,167,167,167,258,258,258,258,258,258,167,258,258,167,258,167,258,258,258,167,258,258,167,258,258,258,258,258,167,167,167,258,167,258,258,167,167,167,258,167,167,167,167,258,167,258,167,258,258,167,167,258,258,258,167,167,258,258,167,258,167,258,167,167,167,167,258,167,167,167,167,167,167,258,258,167,258,258,167,167,167,258,258,258,167,167,258,167,258,258,258,167,258,167,258,258,167,167,258,258,167,167,167,258,258,167,258],"coherence":1,"opposite_coherence":0,"dot_radius":2,"dot_side_length":1,"dot_life":-1,"move_distance":1,"aperture_width":300,"aperture_height":300,"dot_color":["white","black","white","white","white","white","white","white","black","white","white","black","white","white","black","white","white","black","white","white","black","black","black","black","black","black","black","white","black","black","white","black","white","black","white","white","black","white","black","white","white","black","black","white","black","white","black","black","black","black","white","black","black","black","black","white","black","black","white","black","white","black","white","white","white","white","black","white","black","white","white","black","black","white","black","black","black","white","black","white","black","black","black","black","white","white","white","white","white","white","black","white","black","black","black","black","black","white","white","white","white","white","white","black","white","white","black","white","black","white","white","white","black","white","white","black","white","white","white","white","white","black","black","black","white","black","white","white","black","black","black","white","black","black","black","black","white","black","white","black","white","white","black","black","white","white","white","black","black","white","white","black","white","black","white","black","black","black","black","white","black","black","black","black","black","black","white","white","black","white","white","black","black","black","white","white","white","black","black","white","black","white","white","white","black","white","black","white","white","black","black","white","white","black","black","black","white","white","black","white"],"dot_shape":"circle","background_color":"#AAA","RDK_type":3,"aperture_type":2,"reinsert_type":2,"frame_rate":16.775,"frame_rate_array":[16,17,17,17,17,17,17,17,17,16,16,17,17,17,17,17,17,18,16,17,17,17,15,17,17,16,17,17,17,17,16,17,16,17,17,17,17,17,17,17,17,17,17,17,16,17,16,17,16,17,17,17,17,17,16,16,17,17,16,17,17,16,17,17,17,17,17,17,17,17,17,17,17,17,17,16,17,17,17,16,17,17,17,17,17,16,16,17,17,16,17,17,16,17,17,17,17,17,17,17,17,17,16,17,17,17,16,17,16,16,17,17,17,17,17,17,16,16,17,17],"number_of_frames":120,"aperture_center_x":750,"aperture_center_y":500,"fixation_cross":true,"fixation_cross_width":15,"fixation_cross_height":15,"fixation_cross_color":"#111","fixation_cross_thickness":1,"border":true,"border_thickness":2,"border_color":"transparent","canvas_width":1500,"canvas_height":1000,"trial_type":"rdk","trial_index":100,"plugin_version":"2.0.0","time_elapsed":251021},{"rt":3512,"stimulus":"\n        <div class=\"response-container\">\n          <div class=\"response-instruction\">\n            <p>rotate the bar by using the left and right arrow keys.</p>\n            <p>when you are determined, press the Enter key.</p>\n          </div>\n          <div class=\"response-circle\">\n            <div class=\"response-fixation\"></div>\n            <div id=\"bar\" class=\"rotating-bar\"></div>\n          </div>\n        </div>\n      ","response":"Enter","trial_type":"html-keyboard-response","trial_index":101,"plugin_version":"2.1.0","time_elapsed":254533,"random_initial_angle":13,"response_angle_css":-77,"response_angle_rdk":167,"angular_error_target":-91,"angular_error_distractor":0,"target_direction":258,"target_group":"white","reward_points":0},{"rt":null,"stimulus":"\n          <p style=\"color: #FF3333;\">Your reward: 0 points</p>\n        ","response":null,"trial_type":"html-keyboard-response","trial_index":102,"plugin_version":"2.1.0","time_elapsed":256535},{"rt":null,"stimulus":"<div class=\"fixation\" style=\"font-size: 60px;\">+</div>","response":null,"trial_type":"html-keyboard-response","trial_index":103,"plugin_version":"2.1.0","time_elapsed":257537},{"phase":"learning-awareness","target_group":"black","condition_label":"B_H_vs_W_L_rep24","target_direction":332,"distractor_direction":71,"session_rotation":216,"rt":-1,"response":"","correct":false,"choices":"ALL_KEYS","correct_choice":["a"],"trial_duration":2000,"flip_timestamps":[],"response_ends_trial":false,"number_of_apertures":200,"number_of_dots":[1,1,1,1,1,1,1,1,1,1,1,1,1,1,1,1,1,1,1,1,1,1,1,1,1,1,1,1,1,1,1,1,1,1,1,1,1,1,1,1,1,1,1,1,1,1,1,1,1,1,1,1,1,1,1,1,1,1,1,1,1,1,1,1,1,1,1,1,1,1,1,1,1,1,1,1,1,1,1,1,1,1,1,1,1,1,1,1,1,1,1,1,1,1,1,1,1,1,1,1,1,1,1,1,1,1,1,1,1,1,1,1,1,1,1,1,1,1,1,1,1,1,1,1,1,1,1,1,1,1,1,1,1,1,1,1,1,1,1,1,1,1,1,1,1,1,1,1,1,1,1,1,1,1,1,1,1,1,1,1,1,1,1,1,1,1,1,1,1,1,1,1,1,1,1,1,1,1,1,1,1,1,1,1,1,1,1,1,1,1,1,1,1,1,1,1,1,1,1,1],"number_of_sets":1,"coherent_direction":[332,71,332,332,332,71,71,332,332,71,332,71,332,71,71,71,71,71,332,71,71,332,71,332,332,71,71,71,332,332,332,71,332,332,71,71,71,332,332,332,71,71,332,71,332,71,332,71,71,71,71,332,71,332,332,332,332,71,332,71,71,71,332,332,332,71,332,71,71,71,332,71,332,332,332,332,332,332,71,71,332,71,71,71,71,71,71,71,332,71,71,71,332,71,332,332,71,71,332,71,71,71,71,71,332,332,71,332,332,332,71,332,71,332,332,71,332,332,332,332,332,332,332,332,71,332,332,71,71,332,332,332,332,71,71,332,71,71,332,332,332,71,332,71,71,332,71,332,332,71,332,332,332,71,332,332,71,71,332,332,332,332,71,332,71,71,71,332,71,71,71,71,332,71,332,332,71,332,332,71,71,71,332,71,71,71,71,71,71,332,71,332,71,332,332,71,71,332,332,332],"coherence":1,"opposite_coherence":0,"dot_radius":2,"dot_side_length":1,"dot_life":-1,"move_distance":1,"aperture_width":300,"aperture_height":300,"dot_color":["black","white","black","black","black","white","white","black","black","white","black","white","black","white","white","white","white","white","black","white","white","black","white","black","black","white","white","white","black","black","black","white","black","black","white","white","white","black","black","black","white","white","black","white","black","white","black","white","white","white","white","black","white","black","black","black","black","white","black","white","white","white","black","black","black","white","black","white","white","white","black","white","black","black","black","black","black","black","white","white","black","white","white","white","white","white","white","white","black","white","white","white","black","white","black","black","white","white","black","white","white","white","white","white","black","black","white","black","black","black","white","black","white","black","black","white","black","black","black","black","black","black","black","black","white","black","black","white","white","black","black","black","black","white","white","black","white","white","black","black","black","white","black","white","white","black","white","black","black","white","black","black","black","white","black","black","white","white","black","black","black","black","white","black","white","white","white","black","white","white","white","white","black","white","black","black","white","black","black","white","white","white","black","white","white","white","white","white","white","black","white","black","white","black","black","white","white","black","black","black"],"dot_shape":"circle","background_color":"#AAA","RDK_type":3,"aperture_type":2,"reinsert_type":2,"frame_rate":16.708333333333332,"frame_rate_array":[7,16,17,17,17,16,17,17,17,17,17,17,17,17,17,17,17,17,16,18,16,17,16,16,17,17,16,17,17,16,17,17,17,17,16,18,16,17,17,17,16,17,17,17,17,17,17,16,17,17,17,17,16,17,15,17,17,17,17,17,17,16,17,17,16,17,17,17,17,17,17,17,17,16,17,17,17,16,17,17,17,17,17,18,17,16,16,16,17,17,16,17,17,17,17,17,17,16,17,17,17,17,17,16,17,17,17,17,17,17,17,17,17,17,17,17,15,17,16,17],"number_of_frames":120,"aperture_center_x":750,"aperture_center_y":500,"fixation_cross":true,"fixation_cross_width":15,"fixation_cross_height":15,"fixation_cross_color":"#111","fixation_cross_thickness":1,"border":true,"border_thickness":2,"border_color":"transparent","canvas_width":1500,"canvas_height":1000,"trial_type":"rdk","trial_index":104,"plugin_version":"2.0.0","time_elapsed":259538},{"rt":2647,"stimulus":"\n        <div class=\"response-container\">\n          <div class=\"response-instruction\">\n            <p>rotate the bar by using the left and right arrow keys.</p>\n            <p>when you are determined, press the Enter key.</p>\n          </div>\n          <div class=\"response-circle\">\n            <div class=\"response-fixation\"></div>\n            <div id=\"bar\" class=\"rotating-bar\"></div>\n          </div>\n        </div>\n      ","response":"Enter","trial_type":"html-keyboard-response","trial_index":105,"plugin_version":"2.1.0","time_elapsed":262186,"random_initial_angle":342,"response_angle_css":392,"response_angle_rdk":58,"angular_error_target":86,"angular_error_distractor":-13,"target_direction":332,"target_group":"black","reward_points":0},{"rt":null,"stimulus":"\n          <p style=\"color: #FF3333;\">Your reward: 0 points</p>\n        ","response":null,"trial_type":"html-keyboard-response","trial_index":106,"plugin_versio