[{"rt":2326,"stimulus":"Welcome to the experiment. Press any key to begin.","response":" ","trial_type":"html-keyboard-response","trial_index":0,"plugin_version":"2.1.0","time_elapsed":2329},{"rt":62898,"stimulus":"\n        <div class=\"instructions-container\">\n          <h2>Instructions</h2>\n\n          <p>\n          In this experiment, you will see <strong>two Random Dot Kinematograms (RDKs)</strong> displayed simultaneously.\n          </p>\n\n          <p>\n          An RDK is a visual stimulus consisting of many small dots that move coherently in a single direction. \n          In this experiment, the dots will be either <strong>white</strong> or <strong>black</strong> \n          (see the short demo below for an example of an RDK stimulus).\n          </p>\n\n          <p>\n          On each trial, the two RDKs will move in different directions. \n          Your task is to decide <strong>which RDK appears to contain more dots</strong>.\n          </p>\n\n          <p>\n          The RDK that you judge to have more dots is called the <strong>target RDK</strong>. \n          For example, if the white RDK appears to have more dots than the black RDK, \n          you should report the motion direction of the white RDK.\n          </p>\n\n          <p>\n          After viewing the RDKs, you will rotate a bar to indicate the perceived direction of the target RDK \n          using the <strong>left</strong> and <strong>right arrow keys</strong>. \n          Press <strong>Enter</strong> when you are satisfied with your response.\n          When the bar is held down, the rotation speed increases.\n          </p>\n\n          <p>\n          You will receive points based on the <strong>accuracy of your response</strong>, \n          and your final <strong>bonus reward</strong> may depend on your overall performance. \n          Please try to respond as accurately as possible.\n          </p>\n\n          <p>\n          You will first complete <strong>16 practice trials</strong>. \n          Press the <strong>Enter</strong> key to start the practice phase.\n          </p>\n\n          <canvas id=\"instruction-demo-rdk\" width=\"200\" height=\"200\"style=\"display:block;margin:12px auto; border-radius: 50%;\"></canvas>\n        </div>\n      ","response":"Enter","trial_type":"html-keyboard-response","trial_index":1,"plugin_version":"2.1.0","time_elapsed":65228},{"rt":null,"stimulus":"<div class=\"fixation\" style=\"font-size: 60px;\">+</div>","response":null,"trial_type":"html-keyboard-response","trial_index":2,"plugin_version":"2.1.0","time_elapsed":66231},{"target_group":"white","target_index":0,"condition_label":"practice","rt":-1,"response":"","correct":false,"choices":"ALL_KEYS","correct_choice":["a"],"trial_duration":2000,"flip_timestamps":[],"response_ends_trial":false,"number_of_apertures":2,"number_of_dots":[100,73],"number_of_sets":1,"coherent_direction":[121,288],"coherence":1,"opposite_coherence":0,"dot_radius":2,"dot_side_length":1,"dot_life":-1,"move_distance":1,"aperture_width":300,"aperture_height":300,"dot_color":["white","black"],"dot_shape":"circle","background_color":"#AAA","RDK_type":3,"aperture_type":2,"reinsert_type":2,"frame_rate":16.974789915966387,"frame_rate_array":[21,17,16,17,17,17,17,17,17,17,17,17,17,17,17,17,17,16,17,17,17,17,17,17,17,17,17,17,17,17,17,17,17,17,17,17,17,16,17,17,17,17,17,17,17,17,17,17,17,17,16,17,17,17,17,17,17,17,17,17,17,17,17,17,17,17,17,17,17,17,17,17,17,17,16,17,17,17,17,17,17,17,17,17,17,17,17,17,17,17,17,17,17,17,17,17,17,17,17,17,16,17,16,17,17,17,17,17,17,17,17,17,17,17,17,17,17,17,17],"number_of_frames":119,"aperture_center_x":735,"aperture_center_y":460,"fixation_cross":true,"fixation_cross_width":15,"fixation_cross_height":15,"fixation_cross_color":"#111","fixation_cross_thickness":1,"border":true,"border_thickness":2,"border_color":"transparent","canvas_width":1470,"canvas_height":920,"trial_type":"rdk","trial_index":3,"plugin_version":"2.0.0","time_elapsed":68237,"phase":"practice","target_direction":121,"distractor_direction":288},{"rt":10642,"stimulus":"\n        <div class=\"response-container\">\n          <div class=\"response-instruction\">\n            <p>rotate the bar by using the left and right arrow keys.</p>\n            <p>when you are determined, press the Enter key.</p>\n          </div>\n          <div class=\"response-circle\">\n            <div class=\"response-fixation\"></div>\n            <div id=\"bar\" class=\"rotating-bar\"></div>\n          </div>\n        </div>\n      ","response":"Enter","trial_type":"html-keyboard-response","trial_index":4,"plugin_version":"2.1.0","time_elapsed":78881,"random_initial_angle":303,"response_angle_css":130,"response_angle_rdk":320,"angular_error_target":-161,"angular_error_distractor":32,"target_direction":121,"target_group":"white","reward_points":0},{"rt":null,"stimulus":"\n          <p style=\"color: #FF3333;\">Your reward: 0 points</p>\n        ","response":null,"trial_type":"html-keyboard-response","trial_index":5,"plugin_version":"2.1.0","time_elapsed":80884},{"rt":null,"stimulus":"<div class=\"fixation\" style=\"font-size: 60px;\">+</div>","response":null,"trial_type":"html-keyboard-response","trial_index":6,"plugin_version":"2.1.0","time_elapsed":81887},{"target_group":"white","target_index":0,"condition_label":"practice","rt":-1,"response":"","correct":false,"choices":"ALL_KEYS","correct_choice":["a"],"trial_duration":2000,"flip_timestamps":[],"response_ends_trial":false,"number_of_apertures":2,"number_of_dots":[100,96],"number_of_sets":1,"coherent_direction":[7,273],"coherence":1,"opposite_coherence":0,"dot_radius":2,"dot_side_length":1,"dot_life":-1,"move_distance":1,"aperture_width":300,"aperture_height":300,"dot_color":["white","black"],"dot_shape":"circle","background_color":"#AAA","RDK_type":3,"aperture_type":2,"reinsert_type":2,"frame_rate":16.958333333333332,"frame_rate_array":[17,17,17,16,18,17,17,17,17,17,17,17,17,17,17,17,17,17,17,17,17,17,16,17,17,17,17,17,17,17,17,17,17,17,16,18,17,17,17,17,17,17,17,17,17,17,17,17,17,17,17,17,16,17,17,16,18,16,17,17,17,17,17,17,17,17,17,17,17,16,18,17,17,17,17,17,17,17,17,17,17,17,17,16,17,17,17,17,17,17,17,17,17,17,17,17,17,17,17,17,17,17,17,17,17,16,18,17,17,17,17,17,17,17,16,17,17,17,16,18],"number_of_frames":120,"aperture_center_x":735,"aperture_center_y":460,"fixation_cross":true,"fixation_cross_width":15,"fixation_cross_height":15,"fixation_cross_color":"#111","fixation_cross_thickness":1,"border":true,"border_thickness":2,"border_color":"transparent","canvas_width":1470,"canvas_height":920,"trial_type":"rdk","trial_index":7,"plugin_version":"2.0.0","time_elapsed":83892,"phase":"practice","target_direction":7,"distractor_direction":273},{"rt":3243,"stimulus":"\n        <div class=\"response-container\">\n          <div class=\"response-instruction\">\n            <p>rotate the bar by using the left and right arrow keys.</p>\n            <p>when you are determined, press the Enter key.</p>\n          </div>\n          <div class=\"response-circle\">\n            <div class=\"response-fixation\"></div>\n            <div id=\"bar\" class=\"rotating-bar\"></div>\n          </div>\n        </div>\n      ","response":"Enter","trial_type":"html-keyboard-response","trial_index":8,"plugin_version":"2.1.0","time_elapsed":87137,"random_initial_angle":324,"response_angle_css":404,"response_angle_rdk":46,"angular_error_target":39,"angular_error_distractor":133,"target_direction":7,"target_group":"white","reward_points":2},{"rt":null,"stimulus":"\n          <p style=\"color: #FF3333;\">Your reward: 2 points</p>\n        ","response":null,"trial_type":"html-keyboard-response","trial_index":9,"plugin_version":"2.1.0","time_elapsed":89140},{"rt":null,"stimulus":"<div class=\"fixation\" style=\"font-size: 60px;\">+</div>","response":null,"trial_type":"html-keyboard-response","trial_index":10,"plugin_version":"2.1.0","time_elapsed":90143},{"target_group":"black","target_index":1,"condition_label":"practice","rt":-1,"response":"","correct":false,"choices":"ALL_KEYS","correct_choice":["a"],"trial_duration":2000,"flip_timestamps":[],"response_ends_trial":false,"number_of_apertures":2,"number_of_dots":[77,100],"number_of_sets":1,"coherent_direction":[60,191],"coherence":1,"opposite_coherence":0,"dot_radius":2,"dot_side_length":1,"dot_life":-1,"move_distance":1,"aperture_width":300,"aperture_height":300,"dot_color":["white","black"],"dot_shape":"circle","background_color":"#AAA","RDK_type":3,"aperture_type":2,"reinsert_type":2,"frame_rate":16.908333333333335,"frame_rate_array":[11,17,17,17,17,17,17,17,17,17,17,17,16,17,17,17,17,16,17,17,17,17,17,17,17,17,17,17,17,17,17,17,17,17,17,17,17,17,17,17,17,17,17,17,17,17,17,17,17,17,16,17,17,17,17,17,17,17,17,17,17,17,17,17,17,17,17,17,17,17,17,17,17,17,17,17,17,17,17,16,18,17,16,18,17,17,17,17,17,17,17,17,17,17,17,17,17,17,17,17,17,17,17,17,16,17,17,17,17,17,16,17,17,17,17,17,17,17,17,17],"number_of_frames":120,"aperture_center_x":735,"aperture_center_y":460,"fixation_cross":true,"fixation_cross_width":15,"fixation_cross_height":15,"fixation_cross_color":"#111","fixation_cross_thickness":1,"border":true,"border_thickness":2,"border_color":"transparent","canvas_width":1470,"canvas_height":920,"trial_type":"rdk","trial_index":11,"plugin_version":"2.0.0","time_elapsed":92148,"phase":"practice","target_direction":191,"distractor_direction":60},{"rt":6713,"stimulus":"\n        <div class=\"response-container\">\n          <div class=\"response-instruction\">\n            <p>rotate the bar by using the left and right arrow keys.</p>\n            <p>when you are determined, press the Enter key.</p>\n          </div>\n          <div class=\"response-circle\">\n            <div class=\"response-fixation\"></div>\n            <div id=\"bar\" class=\"rotating-bar\"></div>\n          </div>\n        </div>\n      ","response":"Enter","trial_type":"html-keyboard-response","trial_index":12,"plugin_version":"2.1.0","time_elapsed":98862,"random_initial_angle":219,"response_angle_css":275,"response_angle_rdk":175,"angular_error_target":-16,"angular_error_distractor":115,"target_direction":191,"target_group":"black","reward_points":6},{"rt":null,"stimulus":"\n          <p style=\"color: #00FF00;\">Your reward: 6 points</p>\n        ","response":null,"trial_type":"html-keyboard-response","trial_index":13,"plugin_version":"2.1.0","time_elapsed":100865},{"rt":null,"stimulus":"<div class=\"fixation\" style=\"font-size: 60px;\">+</div>","response":null,"trial_type":"html-keyboard-response","trial_index":14,"plugin_version":"2.1.0","time_elapsed":101867},{"target_group":"black","target_index":1,"condition_label":"practice","rt":-1,"response":"","correct":false,"choices":"ALL_KEYS","correct_choice":["a"],"trial_duration":2000,"flip_timestamps":[],"response_ends_trial":false,"number_of_apertures":2,"number_of_dots":[81,100],"number_of_sets":1,"coherent_direction":[105,242],"coherence":1,"opposite_coherence":0,"dot_radius":2,"dot_side_length":1,"dot_life":-1,"move_distance":1,"aperture_width":300,"aperture_height":300,"dot_color":["white","black"],"dot_shape":"circle","background_color":"#AAA","RDK_type":3,"aperture_type":2,"reinsert_type":2,"frame_rate":17,"frame_rate_array":[21,17,17,17,17,17,17,17,17,17,17,17,17,17,17,17,17,17,17,17,17,16,17,17,17,17,17,17,17,17,17,17,17,17,17,17,17,17,17,17,17,17,17,17,17,16,18,17,17,17,17,16,17,17,17,17,17,17,16,18,16,18,17,17,17,17,17,17,17,17,17,17,17,17,17,17,17,17,17,17,17,17,16,17,17,17,17,17,17,17,16,18,17,17,17,17,17,17,17,17,17,17,17,17,17,17,17,17,17,17,17,17,17,16,17,17,17,17,17],"number_of_frames":119,"aperture_center_x":735,"aperture_center_y":460,"fixation_cross":true,"fixation_cross_width":15,"fixation_cross_height":15,"fixation_cross_color":"#111","fixation_cross_thickness":1,"border":true,"border_thickness":2,"border_color":"transparent","canvas_width":1470,"canvas_height":920,"trial_type":"rdk","trial_index":15,"plugin_version":"2.0.0","time_elapsed":103872,"phase":"practice","target_direction":242,"distractor_direction":105},{"rt":6049,"stimulus":"\n        <div class=\"response-container\">\n          <div class=\"response-instruction\">\n            <p>rotate the bar by using the left and right arrow keys.</p>\n            <p>when you are determined, press the Enter key.</p>\n          </div>\n          <div class=\"response-circle\">\n            <div class=\"response-fixation\"></div>\n            <div id=\"bar\" class=\"rotating-bar\"></div>\n          </div>\n        </div>\n      ","response":"Enter","trial_type":"html-keyboard-response","trial_index":16,"plugin_version":"2.1.0","time_elapsed":109922,"random_initial_angle":85,"response_angle_css":176,"response_angle_rdk":274,"angular_error_target":32,"angular_error_distractor":169,"target_direction":242,"target_group":"black","reward_points":3},{"rt":null,"stimulus":"\n          <p style=\"color: #00FF00;\">Your reward: 3 points</p>\n        ","response":null,"trial_type":"html-keyboard-response","trial_index":17,"plugin_version":"2.1.0","time_elapsed":111924},{"rt":null,"stimulus":"<div class=\"fixation\" style=\"font-size: 60px;\">+</div>","response":null,"trial_type":"html-keyboard-response","trial_index":18,"plugin_version":"2.1.0","time_elapsed":112926},{"target_group":"black","target_index":1,"condition_label":"practice","rt":-1,"response":"","correct":false,"choices":"ALL_KEYS","correct_choice":["a"],"trial_duration":2000,"flip_timestamps":[],"response_ends_trial":false,"number_of_apertures":2,"number_of_dots":[58,100],"number_of_sets":1,"coherent_direction":[54,164],"coherence":1,"opposite_coherence":0,"dot_radius":2,"dot_side_length":1,"dot_life":-1,"move_distance":1,"aperture_width":300,"aperture_height":300,"dot_color":["white","black"],"dot_shape":"circle","background_color":"#AAA","RDK_type":3,"aperture_type":2,"reinsert_type":2,"frame_rate":16.941666666666666,"frame_rate_array":[13,17,17,17,17,17,17,17,17,17,17,17,17,17,17,17,17,17,17,17,17,17,17,17,17,17,17,17,17,17,17,17,17,17,16,17,17,17,17,17,17,17,17,17,17,17,17,17,17,17,17,17,17,17,16,17,17,17,17,17,17,17,17,17,16,17,17,17,17,17,17,17,17,17,17,17,17,17,17,17,17,17,17,17,17,17,17,17,17,17,17,17,17,17,17,17,17,17,17,17,17,17,17,17,17,17,17,17,17,17,17,17,17,17,17,17,17,17,17,17],"number_of_frames":120,"aperture_center_x":735,"aperture_center_y":460,"fixation_cross":true,"fixation_cross_width":15,"fixation_cross_height":15,"fixation_cross_color":"#111","fixation_cross_thickness":1,"border":true,"border_thickness":2,"border_color":"transparent","canvas_width":1470,"canvas_height":920,"trial_type":"rdk","trial_index":19,"plugin_version":"2.0.0","time_elapsed":114928,"phase":"practice","target_direction":164,"distractor_direction":54},{"rt":3752,"stimulus":"\n        <div class=\"response-container\">\n          <div class=\"response-instruction\">\n            <p>rotate the bar by using the left and right arrow keys.</p>\n            <p>when you are determined, press the Enter key.</p>\n          </div>\n          <div class=\"response-circle\">\n            <div class=\"response-fixation\"></div>\n            <div id=\"bar\" class=\"rotating-bar\"></div>\n          </div>\n        </div>\n      ","response":"Enter","trial_type":"html-keyboard-response","trial_index":20,"plugin_version":"2.1.0","time_elapsed":118681,"random_initial_angle":345,"response_angle_css":303,"response_angle_rdk":147,"angular_error_target":-17,"angular_error_distractor":93,"target_direction":164,"target_group":"black","reward_points":6},{"rt":null,"stimulus":"\n          <p style=\"color: #00FF00;\">Your reward: 6 points</p>\n        ","response":null,"trial_type":"html-keyboard-response","trial_index":21,"plugin_version":"2.1.0","time_elapsed":120683},{"rt":null,"stimulus":"<div class=\"fixation\" style=\"font-size: 60px;\">+</div>","response":null,"trial_type":"html-keyboard-response","trial_index":22,"plugin_version":"2.1.0","time_elapsed":121685},{"target_group":"white","target_index":0,"condition_label":"practice","rt":-1,"response":"","correct":false,"choices":"ALL_KEYS","correct_choice":["a"],"trial_duration":2000,"flip_timestamps":[],"response_ends_trial":false,"number_of_apertures":2,"number_of_dots":[100,54],"number_of_sets":1,"coherent_direction":[56,294],"coherence":1,"opposite_coherence":0,"dot_radius":2,"dot_side_length":1,"dot_life":-1,"move_distance":1,"aperture_width":300,"aperture_height":300,"dot_color":["white","black"],"dot_shape":"circle","background_color":"#AAA","RDK_type":3,"aperture_type":2,"reinsert_type":2,"frame_rate":16.991596638655462,"frame_rate_array":[20,17,17,17,17,17,17,17,17,17,17,17,17,17,17,16,17,17,17,17,17,17,17,17,17,17,17,17,17,17,17,17,17,17,17,17,17,17,17,17,17,17,17,17,17,17,17,17,17,17,17,17,17,17,17,17,17,17,17,16,17,17,17,17,17,17,17,17,17,17,17,17,17,17,16,17,17,17,17,16,17,17,17,17,17,17,17,17,17,17,17,17,17,17,17,17,17,17,17,17,17,17,17,17,17,17,17,17,17,17,17,17,17,17,17,17,16,18,17],"number_of_frames":119,"aperture_center_x":735,"aperture_center_y":460,"fixation_cross":true,"fixation_cross_width":15,"fixation_cross_height":15,"fixation_cross_color":"#111","fixation_cross_thickness":1,"border":true,"border_thickness":2,"border_color":"transparent","canvas_width":1470,"canvas_height":920,"trial_type":"rdk","trial_index":23,"plugin_version":"2.0.0","time_elapsed":123688,"phase":"practice","target_direction":56,"distractor_direction":294},{"rt":4468,"stimulus":"\n        <div class=\"response-container\">\n          <div class=\"response-instruction\">\n            <p>rotate the bar by using the left and right arrow keys.</p>\n            <p>when you are determined, press the Enter key.</p>\n          </div>\n          <div class=\"response-circle\">\n            <div class=\"response-fixation\"></div>\n            <div id=\"bar\" class=\"rotating-bar\"></div>\n          </div>\n        </div>\n      ","response":"Enter","trial_type":"html-keyboard-response","trial_index":24,"plugin_version":"2.1.0","time_elapsed":128157,"random_initial_angle":257,"response_angle_css":176,"response_angle_rdk":274,"angular_error_target":-142,"angular_error_distractor":-20,"target_direction":56,"target_group":"white","reward_points":0},{"rt":null,"stimulus":"\n          <p style=\"color: #FF3333;\">Your reward: 0 points</p>\n        ","response":null,"trial_type":"html-keyboard-response","trial_index":25,"plugin_version":"2.1.0","time_elapsed":130160},{"rt":null,"stimulus":"<div class=\"fixation\" style=\"font-size: 60px;\">+</div>","response":null,"trial_type":"html-keyboard-response","trial_index":26,"plugin_version":"2.1.0","time_elapsed":131162},{"target_group":"black","target_index":1,"condition_label":"practice","rt":-1,"response":"","correct":false,"choices":"ALL_KEYS","correct_choice":["a"],"trial_duration":2000,"flip_timestamps":[],"response_ends_trial":false,"number_of_apertures":2,"number_of_dots":[91,100],"number_of_sets":1,"coherent_direction":[78,290],"coherence":1,"opposite_coherence":0,"dot_radius":2,"dot_side_length":1,"dot_life":-1,"move_distance":1,"aperture_width":300,"aperture_height":300,"dot_color":["white","black"],"dot_shape":"circle","background_color":"#AAA","RDK_type":3,"aperture_type":2,"reinsert_type":2,"frame_rate":16.9,"frame_rate_array":[9,17,17,17,17,17,17,17,17,17,17,17,17,17,17,17,17,17,17,17,17,17,17,17,17,17,17,17,17,17,17,17,17,17,17,17,17,17,17,17,17,17,17,17,17,17,17,17,17,17,17,17,17,17,17,17,17,17,17,17,17,17,17,17,17,17,17,17,17,17,16,17,17,17,17,17,17,17,17,17,17,17,17,17,17,16,17,17,17,17,17,17,17,17,17,17,16,17,17,17,17,17,17,17,17,17,17,17,16,17,17,17,17,17,17,17,17,17,17,17],"number_of_frames":120,"aperture_center_x":735,"aperture_center_y":460,"fixation_cross":true,"fixation_cross_width":15,"fixation_cross_height":15,"fixation_cross_color":"#111","fixation_cross_thickness":1,"border":true,"border_thickness":2,"border_color":"transparent","canvas_width":1470,"canvas_height":920,"trial_type":"rdk","trial_index":27,"plugin_version":"2.0.0","time_elapsed":133166,"phase":"practice","target_direction":290,"distractor_direction":78},{"rt":4074,"stimulus":"\n        <div class=\"response-container\">\n          <div class=\"response-instruction\">\n            <p>rotate the bar by using the left and right arrow keys.</p>\n            <p>when you are determined, press the Enter key.</p>\n          </div>\n          <div class=\"response-circle\">\n            <div class=\"response-fixation\"></div>\n            <div id=\"bar\" class=\"rotating-bar\"></div>\n          </div>\n        </div>\n      ","response":"Enter","trial_type":"html-keyboard-response","trial_index":28,"plugin_version":"2.1.0","time_elapsed":137242,"random_initial_angle":244,"response_angle_css":177,"response_angle_rdk":273,"angular_error_target":-17,"angular_error_distractor":-165,"target_direction":290,"target_group":"black","reward_points":6},{"rt":null,"stimulus":"\n          <p style=\"color: #00FF00;\">Your reward: 6 points</p>\n        ","response":null,"trial_type":"html-keyboard-response","trial_index":29,"plugin_version":"2.1.0","time_elapsed":139245},{"rt":null,"stimulus":"<div class=\"fixation\" style=\"font-size: 60px;\">+</div>","response":null,"trial_type":"html-keyboard-response","trial_index":30,"plugin_version":"2.1.0","time_elapsed":140247},{"target_group":"black","target_index":1,"condition_label":"practice","rt":-1,"response":"","correct":false,"choices":"ALL_KEYS","correct_choice":["a"],"trial_duration":2000,"flip_timestamps":[],"response_ends_trial":false,"number_of_apertures":2,"number_of_dots":[61,100],"number_of_sets":1,"coherent_direction":[84,313],"coherence":1,"opposite_coherence":0,"dot_radius":2,"dot_side_length":1,"dot_life":-1,"move_distance":1,"aperture_width":300,"aperture_height":300,"dot_color":["white","black"],"dot_shape":"circle","background_color":"#AAA","RDK_type":3,"aperture_type":2,"reinsert_type":2,"frame_rate":17.025210084033613,"frame_rate_array":[24,17,17,17,17,17,17,17,17,17,17,17,17,17,17,17,17,17,17,17,17,17,16,18,17,17,17,17,17,17,17,17,17,17,17,17,17,17,16,17,17,17,17,17,17,17,17,17,17,17,17,17,17,17,17,17,17,17,17,16,17,17,17,17,17,16,18,17,17,17,17,17,17,17,17,17,17,17,17,17,17,17,17,17,17,17,17,17,17,17,17,17,17,17,17,17,17,17,17,17,17,16,17,17,17,17,17,17,17,17,17,17,17,17,16,17,17,17,17],"number_of_frames":119,"aperture_center_x":735,"aperture_center_y":460,"fixation_cross":true,"fixation_cross_width":15,"fixation_cross_height":15,"fixation_cross_color":"#111","fixation_cross_thickness":1,"border":true,"border_thickness":2,"border_color":"transparent","canvas_width":1470,"canvas_height":920,"trial_type":"rdk","trial_index":31,"plugin_version":"2.0.0","time_elapsed":142251,"phase":"practice","target_direction":313,"distractor_direction":84},{"rt":4409,"stimulus":"\n        <div class=\"response-container\">\n          <div class=\"response-instruction\">\n            <p>rotate the bar by using the left and right arrow keys.</p>\n            <p>when you are determined, press the Enter key.</p>\n          </div>\n          <div class=\"response-circle\">\n            <div class=\"response-fixation\"></div>\n            <div id=\"bar\" class=\"rotating-bar\"></div>\n          </div>\n        </div>\n      ","response":"Enter","trial_type":"html-keyboard-response","trial_index":32,"plugin_version":"2.1.0","time_elapsed":146661,"random_initial_angle":316,"response_angle_css":501,"response_angle_rdk":309,"angular_error_target":-4,"angular_error_distractor":-135,"target_direction":313,"target_group":"black","reward_points":9},{"rt":null,"stimulus":"\n          <p style=\"color: #00FF00;\">Your reward: 9 points</p>\n        ","response":null,"trial_type":"html-keyboard-response","trial_index":33,"plugin_version":"2.1.0","time_elapsed":148664},{"rt":null,"stimulus":"<div class=\"fixation\" style=\"font-size: 60px;\">+</div>","response":null,"trial_type":"html-keyboard-response","trial_index":34,"plugin_version":"2.1.0","time_elapsed":149666},{"target_group":"black","target_index":1,"condition_label":"practice","rt":-1,"response":"","correct":false,"choices":"ALL_KEYS","correct_choice":["a"],"trial_duration":2000,"flip_timestamps":[],"response_ends_trial":false,"number_of_apertures":2,"number_of_dots":[89,100],"number_of_sets":1,"coherent_direction":[19,203],"coherence":1,"opposite_coherence":0,"dot_radius":2,"dot_side_length":1,"dot_life":-1,"move_distance":1,"aperture_width":300,"aperture_height":300,"dot_color":["white","black"],"dot_shape":"circle","background_color":"#AAA","RDK_type":3,"aperture_type":2,"reinsert_type":2,"frame_rate":17.025210084033613,"frame_rate_array":[22,17,17,17,17,17,17,17,17,17,17,17,17,17,17,17,17,17,17,17,17,16,17,17,17,17,17,17,17,17,17,17,17,17,17,17,17,17,17,17,17,17,17,17,17,17,17,17,17,17,17,17,17,17,17,17,17,17,17,17,17,17,17,17,17,17,17,17,17,17,17,17,17,17,17,17,17,17,17,17,17,17,17,17,17,16,17,17,17,17,17,17,17,17,17,17,17,17,17,17,17,17,17,17,17,17,17,17,17,17,17,17,17,17,17,17,16,18,17],"number_of_frames":119,"aperture_center_x":735,"aperture_center_y":460,"fixation_cross":true,"fixation_cross_width":15,"fixation_cross_height":15,"fixation_cross_color":"#111","fixation_cross_thickness":1,"border":true,"border_thickness":2,"border_color":"transparent","canvas_width":1470,"canvas_height":920,"trial_type":"rdk","trial_index":35,"plugin_version":"2.0.0","time_elapsed":151670,"phase":"practice","target_direction":203,"distractor_direction":19},{"rt":2360,"stimulus":"\n        <div class=\"response-container\">\n          <div class=\"response-instruction\">\n            <p>rotate the bar by using the left and right arrow keys.</p>\n            <p>when you are determined, press the Enter key.</p>\n          </div>\n          <div class=\"response-circle\">\n            <div class=\"response-fixation\"></div>\n            <div id=\"bar\" class=\"rotating-bar\"></div>\n          </div>\n        </div>\n      ","response":"Enter","trial_type":"html-keyboard-response","trial_index":36,"plugin_version":"2.1.0","time_elapsed":154031,"random_initial_angle":272,"response_angle_css":228,"response_angle_rdk":222,"angular_error_target":19,"angular_error_distractor":-157,"target_direction":203,"target_group":"black","reward_points":6},{"rt":null,"stimulus":"\n          <p style=\"color: #00FF00;\">Your reward: 6 points</p>\n        ","response":null,"trial_type":"html-keyboard-response","trial_index":37,"plugin_version":"2.1.0","time_elapsed":156034},{"rt":null,"stimulus":"<div class=\"fixation\" style=\"font-size: 60px;\">+</div>","response":null,"trial_type":"html-keyboard-response","trial_index":38,"plugin_version":"2.1.0","time_elapsed":157036},{"target_group":"black","target_index":1,"condition_label":"practice","rt":-1,"response":"","correct":false,"choices":"ALL_KEYS","correct_choice":["a"],"trial_duration":2000,"flip_timestamps":[],"response_ends_trial":false,"number_of_apertures":2,"number_of_dots":[73,100],"number_of_sets":1,"coherent_direction":[183,43],"coherence":1,"opposite_coherence":0,"dot_radius":2,"dot_side_length":1,"dot_life":-1,"move_distance":1,"aperture_width":300,"aperture_height":300,"dot_color":["white","black"],"dot_shape":"circle","background_color":"#AAA","RDK_type":3,"aperture_type":2,"reinsert_type":2,"frame_rate":17.008403361344538,"frame_rate_array":[19,17,17,17,17,17,17,17,17,17,17,17,17,17,17,17,17,17,17,17,17,17,17,17,17,17,17,17,17,17,17,17,17,17,17,17,17,17,17,17,17,16,18,17,17,17,17,17,17,17,17,17,17,16,17,17,17,17,17,17,17,17,17,17,17,17,17,17,17,17,17,16,17,18,17,17,17,17,16,18,17,16,18,17,17,17,17,16,18,17,17,17,16,18,16,18,17,17,17,16,18,17,17,17,17,17,17,17,17,17,17,17,17,16,18,17,17,17,17],"number_of_frames":119,"aperture_center_x":735,"aperture_center_y":460,"fixation_cross":true,"fixation_cross_width":15,"fixation_cross_height":15,"fixation_cross_color":"#111","fixation_cross_thickness":1,"border":true,"border_thickness":2,"border_color":"transparent","canvas_width":1470,"canvas_height":920,"trial_type":"rdk","trial_index":39,"plugin_version":"2.0.0","time_elapsed":159040,"phase":"practice","target_direction":43,"distractor_direction":183},{"rt":3793,"stimulus":"\n        <div class=\"response-container\">\n          <div class=\"response-instruction\">\n            <p>rotate the bar by using the left and right arrow keys.</p>\n            <p>when you are determined, press the Enter key.</p>\n          </div>\n          <div class=\"response-circle\">\n            <div class=\"response-fixation\"></div>\n            <div id=\"bar\" class=\"rotating-bar\"></div>\n          </div>\n        </div>\n      ","response":"Enter","trial_type":"html-keyboard-response","trial_index":40,"plugin_version":"2.1.0","time_elapsed":162835,"random_initial_angle":276,"response_angle_css":409,"response_angle_rdk":41,"angular_error_target":-2,"angular_error_distractor":-142,"target_direction":43,"target_group":"black","reward_points":9},{"rt":null,"stimulus":"\n          <p style=\"color: #00FF00;\">Your reward: 9 points</p>\n        ","response":null,"trial_type":"html-keyboard-response","trial_index":41,"plugin_version":"2.1.0","time_elapsed":164837},{"rt":null,"stimulus":"<div class=\"fixation\" style=\"font-size: 60px;\">+</div>","response":null,"trial_type":"html-keyboard-response","trial_index":42,"plugin_version":"2.1.0","time_elapsed":165840},{"target_group":"white","target_index":0,"condition_label":"practice","rt":-1,"response":"","correct":false,"choices":"ALL_KEYS","correct_choice":["a"],"trial_duration":2000,"flip_timestamps":[],"response_ends_trial":false,"number_of_apertures":2,"number_of_dots":[100,76],"number_of_sets":1,"coherent_direction":[60,219],"coherence":1,"opposite_coherence":0,"dot_radius":2,"dot_side_length":1,"dot_life":-1,"move_distance":1,"aperture_width":300,"aperture_height":300,"dot_color":["white","black"],"dot_shape":"circle","background_color":"#AAA","RDK_type":3,"aperture_type":2,"reinsert_type":2,"frame_rate":16.941666666666666,"frame_rate_array":[14,17,18,17,17,17,17,17,17,17,17,17,17,17,16,18,17,16,17,17,17,17,17,17,17,17,17,17,17,17,17,17,17,17,16,18,17,17,17,17,17,17,17,17,17,17,17,17,17,17,17,17,17,16,17,17,17,17,17,17,17,17,17,17,16,17,17,17,17,17,17,17,17,17,17,17,17,17,17,17,16,18,17,17,17,17,17,17,17,17,17,17,17,17,17,17,17,16,17,17,17,17,17,16,17,17,17,17,17,17,17,17,17,17,17,17,17,17,17,17],"number_of_frames":120,"aperture_center_x":735,"aperture_center_y":460,"fixation_cross":true,"fixation_cross_width":15,"fixation_cross_height":15,"fixation_cross_color":"#111","fixation_cross_thickness":1,"border":true,"border_thickness":2,"border_color":"transparent","canvas_width":1470,"canvas_height":920,"trial_type":"rdk","trial_index":43,"plugin_version":"2.0.0","time_elapsed":167843,"phase":"practice","target_direction":60,"distractor_direction":219},{"rt":5267,"stimulus":"\n        <div class=\"response-container\">\n          <div class=\"response-instruction\">\n            <p>rotate the bar by using the left and right arrow keys.</p>\n            <p>when you are determined, press the Enter key.</p>\n          </div>\n          <div class=\"response-circle\">\n            <div class=\"response-fixation\"></div>\n            <div id=\"bar\" class=\"rotating-bar\"></div>\n          </div>\n        </div>\n      ","response":"Enter","trial_type":"html-keyboard-response","trial_index":44,"plugin_version":"2.1.0","time_elapsed":173111,"random_initial_angle":98,"response_angle_css":-135,"response_angle_rdk":225,"angular_error_target":165,"angular_error_distractor":6,"target_direction":60,"target_group":"white","reward_points":0},{"rt":null,"stimulus":"\n          <p style=\"color: #FF3333;\">Your reward: 0 points</p>\n        ","response":null,"trial_type":"html-keyboard-response","trial_index":45,"plugin_version":"2.1.0","time_elapsed":175113},{"rt":null,"stimulus":"<div class=\"fixation\" style=\"font-size: 60px;\">+</div>","response":null,"trial_type":"html-keyboard-response","trial_index":46,"plugin_version":"2.1.0","time_elapsed":176116},{"target_group":"white","target_index":0,"condition_label":"practice","rt":-1,"response":"","correct":false,"choices":"ALL_KEYS","correct_choice":["a"],"trial_duration":2000,"flip_timestamps":[],"response_ends_trial":false,"number_of_apertures":2,"number_of_dots":[100,67],"number_of_sets":1,"coherent_direction":[341,214],"coherence":1,"opposite_coherence":0,"dot_radius":2,"dot_side_length":1,"dot_life":-1,"move_distance":1,"aperture_width":300,"aperture_height":300,"dot_color":["white","black"],"dot_shape":"circle","background_color":"#AAA","RDK_type":3,"aperture_type":2,"reinsert_type":2,"frame_rate":16.983193277310924,"frame_rate_array":[22,17,17,17,17,17,17,17,17,17,17,16,17,18,17,17,17,17,17,17,16,17,17,17,17,17,16,17,16,17,17,17,17,17,17,17,17,17,17,17,17,17,17,17,17,17,17,17,17,17,17,16,17,17,17,16,17,17,17,17,17,17,17,17,17,17,17,17,17,17,17,17,17,17,17,17,17,17,17,17,17,16,17,17,17,17,17,17,17,17,17,17,17,17,17,17,17,17,17,16,18,17,17,17,17,17,16,16,18,17,17,17,17,17,17,17,17,17,17],"number_of_frames":119,"aperture_center_x":735,"aperture_center_y":460,"fixation_cross":true,"fixation_cross_width":15,"fixation_cross_height":15,"fixation_cross_color":"#111","fixation_cross_thickness":1,"border":true,"border_thickness":2,"border_color":"transparent","canvas_width":1470,"canvas_height":920,"trial_type":"rdk","trial_index":47,"plugin_version":"2.0.0","time_elapsed":178120,"phase":"practice","target_direction":341,"distractor_direction":214},{"rt":2863,"stimulus":"\n        <div class=\"response-container\">\n          <div class=\"response-instruction\">\n            <p>rotate the bar by using the left and right arrow keys.</p>\n            <p>when you are determined, press the Enter key.</p>\n          </div>\n          <div class=\"response-circle\">\n            <div class=\"response-fixation\"></div>\n            <div id=\"bar\" class=\"rotating-bar\"></div>\n          </div>\n        </div>\n      ","response":"Enter","trial_type":"html-keyboard-response","trial_index":48,"plugin_version":"2.1.0","time_elapsed":180984,"random_initial_angle":220,"response_angle_css":230,"response_angle_rdk":220,"angular_error_target":-121,"angular_error_distractor":6,"target_direction":341,"target_group":"white","reward_points":0},{"rt":null,"stimulus":"\n          <p style=\"color: #FF3333;\">Your reward: 0 points</p>\n        ","response":null,"trial_type":"html-keyboard-response","trial_index":49,"plugin_version":"2.1.0","time_elapsed":182986},{"rt":null,"stimulus":"<div class=\"fixation\" style=\"font-size: 60px;\">+</div>","response":null,"trial_type":"html-keyboard-response","trial_index":50,"plugin_version":"2.1.0","time_elapsed":183988},{"target_group":"white","target_index":0,"condition_label":"practice","rt":-1,"response":"","correct":false,"choices":"ALL_KEYS","correct_choice":["a"],"trial_duration":2000,"flip_timestamps":[],"response_ends_trial":false,"number_of_apertures":2,"number_of_dots":[100,87],"number_of_sets":1,"coherent_direction":[304,78],"coherence":1,"opposite_coherence":0,"dot_radius":2,"dot_side_length":1,"dot_life":-1,"move_distance":1,"aperture_width":300,"aperture_height":300,"dot_color":["white","black"],"dot_shape":"circle","background_color":"#AAA","RDK_type":3,"aperture_type":2,"reinsert_type":2,"frame_rate":16.966666666666665,"frame_rate_array":[17,17,16,17,17,17,17,17,17,17,17,17,17,17,17,17,17,17,17,17,17,16,17,17,17,17,17,17,17,17,17,17,17,17,17,17,17,17,16,18,16,17,17,17,17,17,17,17,17,17,17,17,17,17,17,17,17,17,17,17,17,17,16,17,17,17,17,17,17,17,17,17,17,17,17,17,17,17,17,17,17,17,17,17,17,17,17,17,17,17,17,17,17,17,17,17,17,17,17,17,17,17,17,17,17,17,17,17,17,17,17,17,17,17,17,17,17,17,17,17],"number_of_frames":120,"aperture_center_x":735,"aperture_center_y":460,"fixation_cross":true,"fixation_cross_width":15,"fixation_cross_height":15,"fixation_cross_color":"#111","fixation_cross_thickness":1,"border":true,"border_thickness":2,"border_color":"transparent","canvas_width":1470,"canvas_height":920,"trial_type":"rdk","trial_index":51,"plugin_version":"2.0.0","time_elapsed":185991,"phase":"practice","target_direction":304,"distractor_direction":78},{"rt":4903,"stimulus":"\n        <div class=\"response-container\">\n          <div class=\"response-instruction\">\n            <p>rotate the bar by using the left and right arrow keys.</p>\n            <p>when you are determined, press the Enter key.</p>\n          </div>\n          <div class=\"response-circle\">\n            <div class=\"response-fixation\"></div>\n            <div id=\"bar\" class=\"rotating-bar\"></div>\n          </div>\n        </div>\n      ","response":"Enter","trial_type":"html-keyboard-response","trial_index":52,"plugin_version":"2.1.0","time_elapsed":190896,"random_initial_angle":328,"response_angle_css":357,"response_angle_rdk":93,"angular_error_target":149,"angular_error_distractor":15,"target_direction":304,"target_group":"white","reward_points":0},{"rt":null,"stimulus":"\n          <p style=\"color: #FF3333;\">Your reward: 0 points</p>\n        ","response":null,"trial_type":"html-keyboard-response","trial_index":53,"plugin_version":"2.1.0","time_elapsed":192898},{"rt":null,"stimulus":"<div class=\"fixation\" style=\"font-size: 60px;\">+</div>","response":null,"trial_type":"html-keyboard-response","trial_index":54,"plugin_version":"2.1.0","time_elapsed":193901},{"target_group":"white","target_index":0,"condition_label":"practice","rt":-1,"response":"","correct":false,"choices":"ALL_KEYS","correct_choice":["a"],"trial_duration":2000,"flip_timestamps":[],"response_ends_trial":false,"number_of_apertures":2,"number_of_dots":[100,87],"number_of_sets":1,"coherent_direction":[28,265],"coherence":1,"opposite_coherence":0,"dot_radius":2,"dot_side_length":1,"dot_life":-1,"move_distance":1,"aperture_width":300,"aperture_height":300,"dot_color":["white","black"],"dot_shape":"circle","background_color":"#AAA","RDK_type":3,"aperture_type":2,"reinsert_type":2,"frame_rate":17.008403361344538,"frame_rate_array":[21,17,17,17,17,17,17,17,17,16,18,17,17,17,17,17,17,17,17,17,17,17,17,17,17,17,17,17,16,17,17,17,17,17,17,17,17,17,17,17,17,17,17,17,17,17,17,17,17,17,17,17,17,17,17,17,17,17,17,17,17,17,17,17,17,17,17,17,17,17,16,17,17,17,17,17,17,17,17,17,17,17,17,17,17,17,17,17,17,17,17,17,17,17,17,17,17,17,17,17,17,17,16,17,17,17,17,17,17,17,17,17,17,17,17,17,17,17,17],"number_of_frames":119,"aperture_center_x":735,"aperture_center_y":460,"fixation_cross":true,"fixation_cross_width":15,"fixation_cross_height":15,"fixation_cross_color":"#111","fixation_cross_thickness":1,"border":true,"border_thickness":2,"border_color":"transparent","canvas_width":1470,"canvas_height":920,"trial_type":"rdk","trial_index":55,"plugin_version":"2.0.0","time_elapsed":195904,"phase":"practice","target_direction":28,"distractor_direction":265},{"rt":2613,"stimulus":"\n        <div class=\"response-container\">\n          <div class=\"response-instruction\">\n            <p>rotate the bar by using the left and right arrow keys.</p>\n            <p>when you are determined, press the Enter key.</p>\n          </div>\n          <div class=\"response-circle\">\n            <div class=\"response-fixation\"></div>\n            <div id=\"bar\" class=\"rotating-bar\"></div>\n          </div>\n        </div>\n      ","response":"Enter","trial_type":"html-keyboard-response","trial_index":56,"plugin_version":"2.1.0","time_elapsed":198518,"random_initial_angle":66,"response_angle_css":50,"response_angle_rdk":40,"angular_error_target":12,"angular_error_distractor":135,"target_direction":28,"target_group":"white","reward_points":7},{"rt":null,"stimulus":"\n          <p style=\"color: #00FF00;\">Your reward: 7 points</p>\n        ","response":null,"trial_type":"html-keyboard-response","trial_index":57,"plugin_version":"2.1.0","time_elapsed":200520},{"rt":null,"stimulus":"<div class=\"fixation\" style=\"font-size: 60px;\">+</div>","response":null,"trial_type":"html-keyboard-response","trial_index":58,"plugin_version":"2.1.0","time_elapsed":201523},{"target_group":"white","target_index":0,"condition_label":"practice","rt":-1,"response":"","correct":false,"choices":"ALL_KEYS","correct_choice":["a"],"trial_duration":2000,"flip_timestamps":[],"response_ends_trial":false,"number_of_apertures":2,"number_of_dots":[100,99],"number_of_sets":1,"coherent_direction":[117,23],"coherence":1,"opposite_coherence":0,"dot_radius":2,"dot_side_length":1,"dot_life":-1,"move_distance":1,"aperture_width":300,"aperture_height":300,"dot_color":["white","black"],"dot_shape":"circle","background_color":"#AAA","RDK_type":3,"aperture_type":2,"reinsert_type":2,"frame_rate":16.958333333333332,"frame_rate_array":[15,17,17,17,17,17,17,17,17,16,18,17,17,17,17,17,17,17,17,17,17,17,17,17,17,17,16,17,17,17,17,17,17,17,17,17,17,17,17,17,17,17,17,17,17,17,17,17,17,17,17,17,17,17,17,17,17,17,17,17,17,17,16,17,16,18,17,17,17,17,17,17,17,17,17,17,17,17,17,17,17,17,17,17,17,17,17,17,17,17,17,17,17,17,17,17,17,17,17,17,17,17,17,17,17,17,17,17,17,17,16,17,17,17,17,17,17,17,17,17],"number_of_frames":120,"aperture_center_x":735,"aperture_center_y":460,"fixation_cross":true,"fixation_cross_width":15,"fixation_cross_height":15,"fixation_cross_color":"#111","fixation_cross_thickness":1,"border":true,"border_thickness":2,"border_color":"transparent","canvas_width":1470,"canvas_height":920,"trial_type":"rdk","trial_index":59,"plugin_version":"2.0.0","time_elapsed":203526,"phase":"practice","target_direction":117,"distractor_direction":23},{"rt":2082,"stimulus":"\n        <div class=\"response-container\">\n          <div class=\"response-instruction\">\n            <p>rotate the bar by using the left and right arrow keys.</p>\n            <p>when you are determined, press the Enter key.</p>\n          </div>\n          <div class=\"response-circle\">\n            <div class=\"response-fixation\"></div>\n            <div id=\"bar\" class=\"rotating-bar\"></div>\n          </div>\n        </div>\n      ","response":"Enter","trial_type":"html-keyboard-response","trial_index":60,"plugin_version":"2.1.0","time_elapsed":205609,"random_initial_angle":30,"response_angle_css":44,"response_angle_rdk":46,"angular_error_target":-71,"angular_error_distractor":23,"target_direction":117,"target_group":"white","reward_points":0},{"rt":null,"stimulus":"\n          <p style=\"color: #FF3333;\">Your reward: 0 points</p>\n        ","response":null,"trial_type":"html-keyboard-response","trial_index":61,"plugin_version":"2.1.0","time_elapsed":207611},{"rt":null,"stimulus":"<div class=\"fixation\" style=\"font-size: 60px;\">+</div>","response":null,"trial_type":"html-keyboard-response","trial_index":62,"plugin_version":"2.1.0","time_elapsed":208614},{"target_group":"black","target_index":1,"condition_label":"practice","rt":-1,"response":"","correct":false,"choices":"ALL_KEYS","correct_choice":["a"],"trial_duration":2000,"flip_timestamps":[],"response_ends_trial":false,"number_of_apertures":2,"number_of_dots":[68,100],"number_of_sets":1,"coherent_direction":[145,27],"coherence":1,"opposite_coherence":0,"dot_radius":2,"dot_side_length":1,"dot_life":-1,"move_distance":1,"aperture_width":300,"aperture_height":300,"dot_color":["white","black"],"dot_shape":"circle","background_color":"#AAA","RDK_type":3,"aperture_type":2,"reinsert_type":2,"frame_rate":17.03361344537815,"frame_rate_array":[24,17,17,17,17,17,17,17,17,17,17,17,17,17,17,17,17,17,17,17,17,17,17,17,16,17,17,17,17,17,17,17,17,17,17,16,17,17,17,17,17,17,17,17,17,17,17,17,17,17,17,17,17,17,17,17,17,17,17,17,17,17,17,17,17,17,17,17,17,17,17,17,17,17,17,17,17,17,17,17,17,17,17,17,16,17,17,17,17,17,17,17,17,17,17,17,17,17,17,17,17,17,17,17,17,17,17,17,17,17,17,17,17,17,17,17,17,17,17],"number_of_frames":119,"aperture_center_x":735,"aperture_center_y":460,"fixation_cross":true,"fixation_cross_width":15,"fixation_cross_height":15,"fixation_cross_color":"#111","fixation_cross_thickness":1,"border":true,"border_thickness":2,"border_color":"transparent","canvas_width":1470,"canvas_height":920,"trial_type":"rdk","trial_index":63,"plugin_version":"2.0.0","time_elapsed":210617,"phase":"practice","target_direction":27,"distractor_direction":145},{"rt":4040,"stimulus":"\n        <div class=\"response-container\">\n          <div class=\"response-instruction\">\n            <p>rotate the bar by using the left and right arrow keys.</p>\n            <p>when you are determined, press the Enter key.</p>\n          </div>\n          <div class=\"response-circle\">\n            <div class=\"response-fixation\"></div>\n            <div id=\"bar\" class=\"rotating-bar\"></div>\n          </div>\n        </div>\n      ","response":"Enter","trial_type":"html-keyboard-response","trial_index":64,"plugin_version":"2.1.0","time_elapsed":214658,"random_initial_angle":185,"response_angle_css":-49,"response_angle_rdk":139,"angular_error_target":112,"angular_error_distractor":-6,"target_direction":27,"target_group":"black","reward_points":0},{"rt":null,"stimulus":"\n          <p style=\"color: #FF3333;\">Your reward: 0 points</p>\n        ","response":null,"trial_type":"html-keyboard-response","trial_index":65,"plugin_version":"2.1.0","time_elapsed":216660},{"rt":1541,"stimulus":"\n        <div class=\"instructions-container\">\n          <h2>End of Practice</h2>\n          <p>You have completed the practice trials.</p>\n          <p>Press <strong>Enter</strong> key to begin the main experiment.</p>\n        </div>\n      ","response":"Enter","trial_type":"html-keyboard-response","trial_index":66,"plugin_version":"2.1.0","time_elapsed":218202},{"rt":null,"stimulus":"<div class=\"fixation\" style=\"font-size: 60px;\">+</div>","response":null,"trial_type":"html-keyboard-response","trial_index":67,"plugin_version":"2.1.0","time_elapsed":219205},{"phase":"learning-awareness","target_group":"black","condition_label":"B_H_vs_W_L_rep2","target_direction":161,"distractor_direction":261,"session_rotation":55,"rt":-1,"response":"","correct":false,"choices":"ALL_KEYS","correct_choice":["a"],"trial_duration":2000,"flip_timestamps":[],"response_ends_trial":false,"number_of_apertures":200,"number_of_dots":[1,1,1,1,1,1,1,1,1,1,1,1,1,1,1,1,1,1,1,1,1,1,1,1,1,1,1,1,1,1,1,1,1,1,1,1,1,1,1,1,1,1,1,1,1,1,1,1,1,1,1,1,1,1,1,1,1,1,1,1,1,1,1,1,1,1,1,1,1,1,1,1,1,1,1,1,1,1,1,1,1,1,1,1,1,1,1,1,1,1,1,1,1,1,1,1,1,1,1,1,1,1,1,1,1,1,1,1,1,1,1,1,1,1,1,1,1,1,1,1,1,1,1,1,1,1,1,1,1,1,1,1,1,1,1,1,1,1,1,1,1,1,1,1,1,1,1,1,1,1,1,1,1,1,1,1,1,1,1,1,1,1,1,1,1,1,1,1,1,1,1,1,1,1,1,1,1,1,1,1,1,1,1,1,1,1,1,1,1,1,1,1,1,1,1,1,1,1,1,1],"number_of_sets":1,"coherent_direction":[161,161,261,161,161,261,161,161,261,261,261,261,161,261,161,161,261,161,261,161,161,161,261,161,161,161,261,161,261,161,161,161,161,161,161,261,161,161,261,261,261,161,161,261,161,261,161,261,161,261,161,261,161,261,261,261,261,261,161,161,261,161,161,161,261,261,261,161,161,261,261,161,161,161,261,161,161,161,261,261,161,261,261,161,161,261,261,261,161,161,161,161,261,161,261,161,161,261,161,261,261,161,261,161,261,161,161,161,261,261,161,261,261,161,261,161,261,261,261,261,261,261,161,261,161,161,161,261,261,261,261,161,161,161,261,261,161,161,161,161,261,261,261,261,161,161,261,261,261,261,261,161,261,161,261,161,261,261,161,161,261,161,261,261,161,261,261,161,161,261,161,261,161,161,161,261,261,161,261,261,261,161,261,261,161,161,161,261,161,261,261,261,161,261,261,261,161,261,161,161],"coherence":1,"opposite_coherence":0,"dot_radius":2,"dot_side_length":1,"dot_life":-1,"move_distance":1,"aperture_width":300,"aperture_height":300,"dot_color":["black","black","white","black","black","white","black","black","white","white","white","white","black","white","black","black","white","black","white","black","black","black","white","black","black","black","white","black","white","black","black","black","black","black","black","white","black","black","white","white","white","black","black","white","black","white","black","white","black","white","black","white","black","white","white","white","white","white","black","black","white","black","black","black","white","white","white","black","black","white","white","black","black","black","white","black","black","black","white","white","black","white","white","black","black","white","white","white","black","black","black","black","white","black","white","black","black","white","black","white","white","black","white","black","white","black","black","black","white","white","black","white","white","black","white","black","white","white","white","white","white","white","black","white","black","black","black","white","white","white","white","black","black","black","white","white","black","black","black","black","white","white","white","white","black","black","white","white","white","white","white","black","white","black","white","black","white","white","black","black","white","black","white","white","black","white","white","black","black","white","black","white","black","black","black","white","white","black","white","white","white","black","white","white","black","black","black","white","black","white","white","white","black","white","white","white","black","white","black","black"],"dot_shape":"circle","background_color":"#AAA","RDK_type":3,"aperture_type":2,"reinsert_type":2,"frame_rate":16.875,"frame_rate_array":[14,17,17,17,17,17,17,17,17,17,16,17,17,17,16,17,17,17,17,17,17,17,16,17,17,17,17,17,16,17,17,17,17,17,17,17,17,17,17,17,17,17,17,17,17,16,17,17,17,16,17,17,17,17,17,17,17,17,17,17,17,17,17,17,17,16,17,17,17,17,16,17,17,17,17,17,16,17,17,17,17,17,17,17,17,17,17,17,17,17,16,17,17,17,17,17,17,17,17,17,17,17,16,16,18,17,17,15,18,17,17,17,17,17,17,17,17,17,17,17],"number_of_frames":120,"aperture_center_x":735,"aperture_center_y":460,"fixation_cross":true,"fixation_cross_width":15,"fixation_cross_height":15,"fixation_cross_color":"#111","fixation_cross_thickness":1,"border":true,"border_thickness":2,"border_color":"transparent","canvas_width":1470,"canvas_height":920,"trial_type":"rdk","trial_index":68,"plugin_version":"2.0.0","time_elapsed":221210},{"rt":3469,"stimulus":"\n        <div class=\"response-container\">\n          <div class=\"response-instruction\">\n            <p>rotate the bar by using the left and right arrow keys.</p>\n            <p>when you are determined, press the Enter key.</p>\n          </div>\n          <div class=\"response-circle\">\n            <div class=\"response-fixation\"></div>\n            <div id=\"bar\" class=\"rotating-bar\"></div>\n          </div>\n        </div>\n      ","response":"Enter","trial_type":"html-keyboard-response","trial_index":69,"plugin_version":"2.1.0","time_elapsed":224679,"random_initial_angle":233,"response_angle_css":313,"response_angle_rdk":137,"angular_error_target":-24,"angular_error_distractor":-124,"target_direction":161,"target_group":"black","reward_points":5},{"rt":null,"stimulus":"\n          <p style=\"color: #00FF00;\">Your reward: 5 points</p>\n        ","response":null,"trial_type":"html-keyboard-response","trial_index":70,"plugin_version":"2.1.0","time_elapsed":226682},{"rt":null,"stimulus":"<div class=\"fixation\" style=\"font-size: 60px;\">+</div>","response":null,"trial_type":"html-keyboard-response","trial_index":71,"plugin_version":"2.1.0","time_elapsed":227685},{"phase":"learning-awareness","target_group":"white","condition_label":"W_H_vs_B_L_rep22","target_direction":93,"distractor_direction":332,"session_rotation":55,"rt":-1,"response":"","correct":false,"choices":"ALL_KEYS","correct_choice":["a"],"trial_duration":2000,"flip_timestamps":[],"response_ends_trial":false,"number_of_apertures":200,"number_of_dots":[1,1,1,1,1,1,1,1,1,1,1,1,1,1,1,1,1,1,1,1,1,1,1,1,1,1,1,1,1,1,1,1,1,1,1,1,1,1,1,1,1,1,1,1,1,1,1,1,1,1,1,1,1,1,1,1,1,1,1,1,1,1,1,1,1,1,1,1,1,1,1,1,1,1,1,1,1,1,1,1,1,1,1,1,1,1,1,1,1,1,1,1,1,1,1,1,1,1,1,1,1,1,1,1,1,1,1,1,1,1,1,1,1,1,1,1,1,1,1,1,1,1,1,1,1,1,1,1,1,1,1,1,1,1,1,1,1,1,1,1,1,1,1,1,1,1,1,1,1,1,1,1,1,1,1,1,1,1,1,1,1,1,1,1,1,1,1,1,1,1,1,1,1,1,1,1,1,1,1,1,1,1,1,1,1,1,1,1,1,1,1,1,1,1,1,1,1,1,1,1],"number_of_sets":1,"coherent_direction":[332,332,93,93,93,332,332,93,93,93,332,93,93,332,93,332,93,93,93,93,332,332,93,93,93,332,332,332,93,93,332,332,332,93,93,332,332,93,93,332,93,93,93,93,93,93,93,93,93,93,93,93,93,332,332,93,332,93,93,93,93,93,332,332,93,332,332,93,93,332,93,93,332,332,93,332,93,332,332,93,332,93,332,332,332,332,332,93,93,332,93,93,332,93,332,93,93,332,93,93,332,332,332,332,332,93,93,332,93,93,332,332,93,332,332,332,93,93,332,93,93,332,332,332,332,93,332,332,332,93,93,93,93,93,332,332,332,93,93,93,93,332,93,332,332,332,93,332,332,93,332,93,93,93,332,332,93,93,332,332,332,332,332,93,332,93,332,93,332,332,332,332,93,93,93,93,332,332,332,332,332,332,332,93,332,332,332,332,332,332,332,93,332,332,93,93,93,332,93,93],"coherence":1,"opposite_coherence":0,"dot_radius":2,"dot_side_length":1,"dot_life":-1,"move_distance":1,"aperture_width":300,"aperture_height":300,"dot_color":["black","black","white","white","white","black","black","white","white","white","black","white","white","black","white","black","white","white","white","white","black","black","white","white","white","black","black","black","white","white","black","black","black","white","white","black","black","white","white","black","white","white","white","white","white","white","white","white","white","white","white","white","white","black","black","white","black","white","white","white","white","white","black","black","white","black","black","white","white","black","white","white","black","black","white","black","white","black","black","white","black","white","black","black","black","black","black","white","white","black","white","white","black","white","black","white","white","black","white","white","black","black","black","black","black","white","white","black","white","white","black","black","white","black","black","black","white","white","black","white","white","black","black","black","black","white","black","black","black","white","white","white","white","white","black","black","black","white","white","white","white","black","white","black","black","black","white","black","black","white","black","white","white","white","black","black","white","white","black","black","black","black","black","white","black","white","black","white","black","black","black","black","white","white","white","white","black","black","black","black","black","black","black","white","black","black","black","black","black","black","black","white","black","black","white","white","white","black","white","white"],"dot_shape":"circle","background_color":"#AAA","RDK_type":3,"aperture_type":2,"reinsert_type":2,"frame_rate":16.69747899159664,"frame_rate_array":[20,17,17,17,17,17,16,16,17,17,16,17,17,16,17,16,17,17,17,17,16,17,16,17,17,17,16,16,17,17,17,17,17,16,17,16,17,17,16,17,17,16,17,17,16,17,16,17,17,16,17,16,17,17,16,17,16,17,16,16,17,17,17,17,16,17,16,17,17,16,17,17,17,16,17,16,17,17,16,17,17,17,17,16,17,17,16,17,17,16,17,17,17,17,16,17,16,17,17,17,17,16,17,16,17,17,17,16,17,16,17,16,17,16,17,17,17,16,17],"number_of_frames":119,"aperture_center_x":735,"aperture_center_y":460,"fixation_cross":true,"fixation_cross_width":15,"fixation_cross_height":15,"fixation_cross_color":"#111","fixation_cross_thickness":1,"border":true,"border_thickness":2,"border_color":"transparent","canvas_width":1470,"canvas_height":920,"trial_type":"rdk","trial_index":72,"plugin_version":"2.0.0","time_elapsed":229688},{"rt":4391,"stimulus":"\n        <div class=\"response-container\">\n          <div class=\"response-instruction\">\n            <p>rotate the bar by using the left and right arrow keys.</p>\n            <p>when you are determined, press the Enter key.</p>\n          </div>\n          <div class=\"response-circle\">\n            <div class=\"response-fixation\"></div>\n            <div id=\"bar\" class=\"rotating-bar\"></div>\n          </div>\n        </div>\n      ","response":"Enter","trial_type":"html-keyboard-response","trial_index":73,"plugin_version":"2.1.0","time_elapsed":234080,"random_initial_angle":348,"response_angle_css":502,"response_angle_rdk":308,"angular_error_target":-145,"angular_error_distractor":-24,"target_direction":93,"target_group":"white","reward_points":0},{"rt":null,"stimulus":"\n          <p style=\"color: #FF3333;\">Your reward: 0 points</p>\n        ","response":null,"trial_type":"html-keyboard-response","trial_index":74,"plugin_version":"2.1.0","time_elapsed":236083},{"rt":null,"stimulus":"<div class=\"fixation\" style=\"font-size: 60px;\">+</div>","response":null,"trial_type":"html-keyboard-response","trial_index":75,"plugin_version":"2.1.0","time_elapsed":237086},{"phase":"learning-awareness","target_group":"white","condition_label":"W_H_vs_B_L_rep7","target_direction":98,"distractor_direction":325,"session_rotation":55,"rt":-1,"response":"","correct":false,"choices":"ALL_KEYS","correct_choice":["a"],"trial_duration":2000,"flip_timestamps":[],"response_ends_trial":false,"number_of_apertures":200,"number_of_dots":[1,1,1,1,1,1,1,1,1,1,1,1,1,1,1,1,1,1,1,1,1,1,1,1,1,1,1,1,1,1,1,1,1,1,1,1,1,1,1,1,1,1,1,1,1,1,1,1,1,1,1,1,1,1,1,1,1,1,1,1,1,1,1,1,1,1,1,1,1,1,1,1,1,1,1,1,1,1,1,1,1,1,1,1,1,1,1,1,1,1,1,1,1,1,1,1,1,1,1,1,1,1,1,1,1,1,1,1,1,1,1,1,1,1,1,1,1,1,1,1,1,1,1,1,1,1,1,1,1,1,1,1,1,1,1,1,1,1,1,1,1,1,1,1,1,1,1,1,1,1,1,1,1,1,1,1,1,1,1,1,1,1,1,1,1,1,1,1,1,1,1,1,1,1,1,1,1,1,1,1,1,1,1,1,1,1,1,1,1,1,1,1,1,1,1,1,1,1,1,1],"number_of_sets":1,"coherent_direction":[98,98,98,98,325,325,325,98,325,98,98,98,98,325,325,98,98,98,98,98,98,325,325,325,98,98,325,325,325,98,98,325,325,325,325,325,325,325,98,325,98,98,98,98,98,98,98,98,98,98,98,325,98,325,325,325,325,325,325,325,98,98,325,98,325,325,98,325,98,325,325,325,98,98,325,325,325,325,325,98,98,325,325,325,98,98,98,98,98,325,325,98,325,325,325,325,325,325,325,98,98,98,325,98,98,325,325,98,98,98,98,98,98,98,325,325,325,98,325,325,98,98,325,325,98,98,325,325,325,325,98,98,325,98,325,325,98,98,98,98,325,98,98,98,325,98,98,325,325,98,325,325,325,325,325,325,325,325,325,325,325,325,325,325,325,98,98,325,98,325,98,98,98,98,325,98,325,325,98,98,98,98,325,98,98,98,98,98,98,325,325,98,98,325,325,98,325,98,98,325],"coherence":1,"opposite_coherence":0,"dot_radius":2,"dot_side_length":1,"dot_life":-1,"move_distance":1,"aperture_width":300,"aperture_height":300,"dot_color":["white","white","white","white","black","black","black","white","black","white","white","white","white","black","black","white","white","white","white","white","white","black","black","black","white","white","black","black","black","white","white","black","black","black","black","black","black","black","white","black","white","white","white","white","white","white","white","white","white","white","white","black","white","black","black","black","black","black","black","black","white","white","black","white","black","black","white","black","white","black","black","black","white","white","black","black","black","black","black","white","white","black","black","black","white","white","white","white","white","black","black","white","black","black","black","black","black","black","black","white","white","white","black","white","white","black","black","white","white","white","white","white","white","white","black","black","black","white","black","black","white","white","black","black","white","white","black","black","black","black","white","white","black","white","black","black","white","white","white","white","black","white","white","white","black","white","white","black","black","white","black","black","black","black","black","black","black","black","black","black","black","black","black","black","black","white","white","black","white","black","white","white","white","white","black","white","black","black","white","white","white","white","black","white","white","white","white","white","white","black","black","white","white","black","black","white","black","white","white","black"],"dot_shape":"circle","background_color":"#AAA","RDK_type":3,"aperture_type":2,"reinsert_type":2,"frame_rate":16.80672268907563,"frame_rate_array":[19,17,17,17,17,17,17,16,17,16,17,16,17,17,17,17,15,17,17,17,17,17,17,17,17,16,17,17,17,17,17,16,17,17,17,17,17,17,17,16,17,17,17,17,17,17,16,17,17,17,17,17,17,16,17,16,17,16,17,17,17,17,17,17,16,17,17,17,17,16,16,17,16,17,17,17,17,16,16,17,17,17,17,17,17,17,17,16,17,17,17,17,17,16,17,17,17,16,17,17,16,17,17,16,17,17,17,16,16,18,17,17,17,17,17,16,17,17,17],"number_of_frames":119,"aperture_center_x":735,"aperture_center_y":460,"fixation_cross":true,"fixation_cross_width":15,"fixation_cross_height":15,"fixation_cross_color":"#111","fixation_cross_thickness":1,"border":true,"border_thickness":2,"border_color":"transparent","canvas_width":1470,"canvas_height":920,"trial_type":"rdk","trial_index":76,"plugin_version":"2.0.0","time_elapsed":239090},{"rt":2481,"stimulus":"\n        <div class=\"response-container\">\n          <div class=\"response-instruction\">\n            <p>rotate the bar by using the left and right arrow keys.</p>\n            <p>when you are determined, press the Enter key.</p>\n          </div>\n          <div class=\"response-circle\">\n            <div class=\"response-fixation\"></div>\n            <div id=\"bar\" class=\"rotating-bar\"></div>\n          </div>\n        </div>\n      ","response":"Enter","trial_type":"html-keyboard-response","trial_index":77,"plugin_version":"2.1.0","time_elapsed":241571,"random_initial_angle":160,"response_angle_css":139,"response_angle_rdk":311,"angular_error_target":-147,"angular_error_distractor":-14,"target_direction":98,"target_group":"white","reward_points":0},{"rt":null,"stimulus":"\n          <p style=\"color: #FF3333;\">Your reward: 0 points</p>\n        ","response":null,"trial_type":"html-keyboard-response","trial_index":78,"plugin_version":"2.1.0","time_elapsed":243573},{"rt":null,"stimulus":"<div class=\"fixation\" style=\"font-size: 60px;\">+</div>","response":null,"trial_type":"html-keyboard-response","trial_index":79,"plugin_version":"2.1.0","time_elapsed":244575},{"phase":"learning-awareness","target_group":"white","condition_label":"W_H_vs_B_L_rep16","target_direction":75,"distractor_direction":338,"session_rotation":55,"rt":-1,"response":"","correct":false,"choices":"ALL_KEYS","correct_choice":["a"],"trial_duration":2000,"flip_timestamps":[],"response_ends_trial":false,"number_of_apertures":200,"number_of_dots":[1,1,1,1,1,1,1,1,1,1,1,1,1,1,1,1,1,1,1,1,1,1,1,1,1,1,1,1,1,1,1,1,1,1,1,1,1,1,1,1,1,1,1,1,1,1,1,1,1,1,1,1,1,1,1,1,1,1,1,1,1,1,1,1,1,1,1,1,1,1,1,1,1,1,1,1,1,1,1,1,1,1,1,1,1,1,1,1,1,1,1,1,1,1,1,1,1,1,1,1,1,1,1,1,1,1,1,1,1,1,1,1,1,1,1,1,1,1,1,1,1,1,1,1,1,1,1,1,1,1,1,1,1,1,1,1,1,1,1,1,1,1,1,1,1,1,1,1,1,1,1,1,1,1,1,1,1,1,1,1,1,1,1,1,1,1,1,1,1,1,1,1,1,1,1,1,1,1,1,1,1,1,1,1,1,1,1,1,1,1,1,1,1,1,1,1,1,1,1,1],"number_of_sets":1,"coherent_direction":[338,338,75,75,75,338,75,338,338,75,75,75,338,75,75,338,75,75,338,75,338,338,75,75,338,338,75,75,75,338,338,75,75,75,75,338,75,338,75,75,338,75,75,338,338,338,75,338,75,338,75,75,338,338,338,75,75,338,338,75,75,338,75,338,338,338,338,338,75,338,75,75,338,338,338,75,75,75,75,75,338,75,75,75,338,75,75,75,338,75,338,338,338,75,75,338,75,338,338,75,75,338,338,75,338,75,338,75,338,338,338,338,338,75,338,338,338,338,75,338,75,75,338,338,338,75,338,75,75,338,338,75,75,338,338,75,338,338,75,338,75,75,338,75,338,338,338,338,338,338,75,75,75,338,75,75,338,338,75,75,75,338,75,75,75,338,338,338,75,338,338,75,75,338,338,75,75,338,338,338,338,338,338,75,75,75,338,75,338,75,338,75,75,75,338,75,338,75,75,75],"coherence":1,"opposite_coherence":0,"dot_radius":2,"dot_side_length":1,"dot_life":-1,"move_distance":1,"aperture_width":300,"aperture_height":300,"dot_color":["black","black","white","white","white","black","white","black","black","white","white","white","black","white","white","black","white","white","black","white","black","black","white","white","black","black","white","white","white","black","black","white","white","white","white","black","white","black","white","white","black","white","white","black","black","black","white","black","white","black","white","white","black","black","black","white","white","black","black","white","white","black","white","black","black","black","black","black","white","black","white","white","black","black","black","white","white","white","white","white","black","white","white","white","black","white","white","white","black","white","black","black","black","white","white","black","white","black","black","white","white","black","black","white","black","white","black","white","black","black","black","black","black","white","black","black","black","black","white","black","white","white","black","black","black","white","black","white","white","black","black","white","white","black","black","white","black","black","white","black","white","white","black","white","black","black","black","black","black","black","white","white","white","black","white","white","black","black","white","white","white","black","white","white","white","black","black","black","white","black","black","white","white","black","black","white","white","black","black","black","black","black","black","white","white","white","black","white","black","white","black","white","white","white","black","white","black","white","white","white"],"dot_shape":"circle","background_color":"#AAA","RDK_type":3,"aperture_type":2,"reinsert_type":2,"frame_rate":16.716666666666665,"frame_rate_array":[13,17,17,17,17,18,16,17,17,16,17,16,17,16,17,17,16,17,17,17,16,17,17,16,17,17,17,16,17,17,17,17,16,17,17,17,17,17,17,17,16,17,16,17,16,17,16,17,17,17,17,17,17,17,17,17,16,17,16,17,17,17,17,17,16,16,17,17,17,17,16,17,17,16,17,17,16,17,17,16,17,17,16,17,17,16,16,18,16,17,17,17,17,17,17,16,17,17,17,16,17,16,17,17,17,17,17,16,17,17,17,17,17,15,18,17,16,17,17,16],"number_of_frames":120,"aperture_center_x":735,"aperture_center_y":460,"fixation_cross":true,"fixation_cross_width":15,"fixation_cross_height":15,"fixation_cross_color":"#111","fixation_cross_thickness":1,"border":true,"border_thickness":2,"border_color":"transparent","canvas_width":1470,"canvas_height":920,"trial_type":"rdk","trial_index":80,"plugin_version":"2.0.0","time_elapsed":246577},{"rt":2308,"stimulus":"\n        <div class=\"response-container\">\n          <div class=\"response-instruction\">\n            <p>rotate the bar by using the left and right arrow keys.</p>\n            <p>when you are determined, press the Enter key.</p>\n          </div>\n          <div class=\"response-circle\">\n            <div class=\"response-fixation\"></div>\n            <div id=\"bar\" class=\"rotating-bar\"></div>\n          </div>\n        </div>\n      ","response":"Enter","trial_type":"html-keyboard-response","trial_index":81,"plugin_version":"2.1.0","time_elapsed":248886,"random_initial_angle":79,"response_angle_css":114,"response_angle_rdk":336,"angular_error_target":-99,"angular_error_distractor":-2,"target_direction":75,"target_group":"white","reward_points":0},{"rt":null,"stimulus":"\n          <p style=\"color: #FF3333;\">Your reward: 0 points</p>\n        ","response":null,"trial_type":"html-keyboard-response","trial_index":82,"plugin_version":"2.1.0","time_elapsed":250888},{"rt":null,"stimulus":"<div class=\"fixation\" style=\"font-size: 60px;\">+</div>","response":null,"trial_type":"html-keyboard-response","trial_index":83,"plugin_version":"2.1.0","time_elapsed":251891},{"phase":"learning-awareness","target_group":"white","condition_label":"W_H_vs_B_L_rep24","target_direction":88,"distractor_direction":348,"session_rotation":55,"rt":-1,"response":"","correct":false,"choices":"ALL_KEYS","correct_choice":["a"],"trial_duration":2000,"flip_timestamps":[],"response_ends_trial":false,"number_of_apertures":200,"number_of_dots":[1,1,1,1,1,1,1,1,1,1,1,1,1,1,1,1,1,1,1,1,1,1,1,1,1,1,1,1,1,1,1,1,1,1,1,1,1,1,1,1,1,1,1,1,1,1,1,1,1,1,1,1,1,1,1,1,1,1,1,1,1,1,1,1,1,1,1,1,1,1,1,1,1,1,1,1,1,1,1,1,1,1,1,1,1,1,1,1,1,1,1,1,1,1,1,1,1,1,1,1,1,1,1,1,1,1,1,1,1,1,1,1,1,1,1,1,1,1,1,1,1,1,1,1,1,1,1,1,1,1,1,1,1,1,1,1,1,1,1,1,1,1,1,1,1,1,1,1,1,1,1,1,1,1,1,1,1,1,1,1,1,1,1,1,1,1,1,1,1,1,1,1,1,1,1,1,1,1,1,1,1,1,1,1,1,1,1,1,1,1,1,1,1,1,1,1,1,1,1,1],"number_of_sets":1,"coherent_direction":[348,348,348,88,88,348,348,88,88,88,88,88,88,348,88,88,88,88,88,348,88,348,88,348,348,88,348,348,88,88,348,88,88,348,88,348,348,348,88,88,88,88,348,348,88,88,348,88,348,348,348,88,348,348,88,348,348,348,348,348,88,88,348,88,88,88,348,348,348,348,348,348,348,348,88,348,88,88,88,348,348,88,88,348,348,88,348,88,88,348,348,88,348,88,88,348,348,348,88,88,348,88,88,88,88,348,348,88,88,348,88,348,348,348,348,348,88,88,348,88,88,348,88,88,348,348,348,88,348,88,88,88,348,348,88,348,348,88,88,348,88,88,88,88,348,88,348,348,348,348,348,348,88,88,88,348,88,348,88,348,348,348,88,88,348,88,348,88,348,88,88,88,88,88,88,88,348,88,88,88,88,88,88,88,348,348,348,88,348,348,348,348,348,348,348,88,88,348,348,348],"coherence":1,"opposite_coherence":0,"dot_radius":2,"dot_side_length":1,"dot_life":-1,"move_distance":1,"aperture_width":300,"aperture_height":300,"dot_color":["black","black","black","white","white","black","black","white","white","white","white","white","white","black","white","white","white","white","white","black","white","black","white","black","black","white","black","black","white","white","black","white","white","black","white","black","black","black","white","white","white","white","black","black","white","white","black","white","black","black","black","white","black","black","white","black","black","black","black","black","white","white","black","white","white","white","black","black","black","black","black","black","black","black","white","black","white","white","white","black","black","white","white","black","black","white","black","white","white","black","black","white","black","white","white","black","black","black","white","white","black","white","white","white","white","black","black","white","white","black","white","black","black","black","black","black","white","white","black","white","white","black","white","white","black","black","black","white","black","white","white","white","black","black","white","black","black","white","white","black","white","white","white","white","black","white","black","black","black","black","black","black","white","white","white","black","white","black","white","black","black","black","white","white","black","white","black","white","black","white","white","white","white","white","white","white","black","white","white","white","white","white","white","white","black","black","black","white","black","black","black","black","black","black","black","white","white","black","black","black"],"dot_shape":"circle","background_color":"#AAA","RDK_type":3,"aperture_type":2,"reinsert_type":2,"frame_rate":16.725,"frame_rate_array":[14,16,18,17,17,17,17,16,17,17,17,16,17,17,16,17,16,17,16,17,17,17,17,17,16,17,17,16,16,17,17,16,17,16,17,17,17,16,17,16,17,17,16,17,17,17,16,17,17,16,17,17,17,17,17,16,17,16,17,17,17,16,17,17,16,18,16,17,17,17,16,17,17,17,16,17,16,17,17,16,17,17,17,17,17,17,17,17,16,17,17,17,17,16,17,17,17,16,17,17,17,16,17,17,17,16,18,16,17,15,17,18,17,17,17,17,17,16,17,17],"number_of_frames":120,"aperture_center_x":735,"aperture_center_y":460,"fixation_cross":true,"fixation_cross_width":15,"fixation_cross_height":15,"fixation_cross_color":"#111","fixation_cross_thickness":1,"border":true,"border_thickness":2,"border_color":"transparent","canvas_width":1470,"canvas_height":920,"trial_type":"rdk","trial_index":84,"plugin_version":"2.0.0","time_elapsed":253894},{"rt":4363,"stimulus":"\n        <div class=\"response-container\">\n          <div class=\"response-instruction\">\n            <p>rotate the bar by using the left and right arrow keys.</p>\n            <p>when you are determined, press the Enter key.</p>\n          </div>\n          <div class=\"response-circle\">\n            <div class=\"response-fixation\"></div>\n            <div id=\"bar\" class=\"rotating-bar\"></div>\n          </div>\n        </div>\n      ","response":"Enter","trial_type":"html-keyboard-response","trial_index":85,"plugin_version":"2.1.0","time_elapsed":258258,"random_initial_angle":303,"response_angle_css":448,"response_angle_rdk":2,"angular_error_target":-86,"angular_error_distractor":14,"target_direction":88,"target_group":"white","reward_points":0},{"rt":null,"stimulus":"\n          <p style=\"color: #FF3333;\">Your reward: 0 points</p>\n        ","response":null,"trial_type":"html-keyboard-response","trial_index":86,"plugin_version":"2.1.0","time_elapsed":260261},{"rt":null,"stimulus":"<div class=\"fixation\" style=\"font-size: 60px;\">+</div>","response":null,"trial_type":"html-keyboard-response","trial_index":87,"plugin_version":"2.1.0","time_elapsed":261263},{"phase":"learning-awareness","target_group":"white","condition_label":"W_H_vs_B_L_rep1","target_direction":88,"distractor_direction":327,"session_rotation":55,"rt":-1,"response":"","correct":false,"choices":"ALL_KEYS","correct_choice":["a"],"trial_duration":2000,"flip_timestamps":[],"response_ends_trial":false,"number_of_apertures":200,"number_of_dots":[1,1,1,1,1,1,1,1,1,1,1,1,1,1,1,1,1,1,1,1,1,1,1,1,1,1,1,1,1,1,1,1,1,1,1,1,1,1,1,1,1,1,1,1,1,1,1,1,1,1,1,1,1,1,1,1,1,1,1,1,1,1,1,1,1,1,1,1,1,1,1,1,1,1,1,1,1,1,1,1,1,1,1,1,1,1,1,1,1,1,1,1,1,1,1,1,1,1,1,1,1,1,1,1,1,1,1,1,1,1,1,1,1,1,1,1,1,1,1,1,1,1,1,1,1,1,1,1,1,1,1,1,1,1,1,1,1,1,1,1,1,1,1,1,1,1,1,1,1,1,1,1,1,1,1,1,1,1,1,1,1,1,1,1,1,1,1,1,1,1,1,1,1,1,1,1,1,1,1,1,1,1,1,1,1,1,1,1,1,1,1,1,1,1,1,1,1,1,1,1],"number_of_sets":1,"coherent_direction":[327,327,327,88,88,88,327,88,327,88,327,327,327,88,327,327,88,88,327,327,327,88,88,327,88,88,88,88,88,88,88,88,327,88,88,327,327,88,88,327,327,88,327,88,88,327,327,327,88,88,327,88,88,88,88,327,327,88,88,327,327,327,327,327,88,327,327,88,327,327,327,327,327,88,327,327,327,327,327,327,327,88,327,327,88,88,327,88,88,327,327,327,88,327,327,327,327,88,327,327,88,327,88,327,88,327,88,88,88,327,88,327,327,327,88,88,88,327,88,88,88,88,327,327,88,327,88,88,327,88,327,88,88,88,327,327,88,327,327,88,88,88,88,88,327,327,327,327,88,327,88,88,327,88,88,88,88,327,88,88,88,88,327,327,88,327,327,327,88,88,327,88,327,88,327,88,88,327,88,88,327,88,88,327,327,88,327,327,327,327,327,88,88,88,327,88,327,88,88,88],"coherence":1,"opposite_coherence":0,"dot_radius":2,"dot_side_length":1,"dot_life":-1,"move_distance":1,"aperture_width":300,"aperture_height":300,"dot_color":["black","black","black","white","white","white","black","white","black","white","black","black","black","white","black","black","white","white","black","black","black","white","white","black","white","white","white","white","white","white","white","white","black","white","white","black","black","white","white","black","black","white","black","white","white","black","black","black","white","white","black","white","white","white","white","black","black","white","white","black","black","black","black","black","white","black","black","white","black","black","black","black","black","white","black","black","black","black","black","black","black","white","black","black","white","white","black","white","white","black","black","black","white","black","black","black","black","white","black","black","white","black","white","black","white","black","white","white","white","black","white","black","black","black","white","white","white","black","white","white","white","white","black","black","white","black","white","white","black","white","black","white","white","white","black","black","white","black","black","white","white","white","white","white","black","black","black","black","white","black","white","white","black","white","white","white","white","black","white","white","white","white","black","black","white","black","black","black","white","white","black","white","black","white","black","white","white","black","white","white","black","white","white","black","black","white","black","black","black","black","black","white","white","white","black","white","black","white","white","white"],"dot_shape":"circle","background_color":"#AAA","RDK_type":3,"aperture_type":2,"reinsert_type":2,"frame_rate":16.625,"frame_rate_array":[7,17,17,17,17,17,16,17,16,17,17,17,17,17,16,17,16,17,17,17,16,17,16,17,17,16,17,16,17,17,17,16,17,15,18,16,18,17,16,17,17,17,17,17,17,16,17,16,17,17,17,17,16,16,18,17,17,16,17,17,17,16,17,16,17,16,17,16,17,16,18,17,17,17,16,17,17,16,17,16,17,17,16,17,16,17,17,15,18,17,17,16,17,17,16,17,17,17,16,17,15,17,17,17,17,17,16,17,17,16,17,16,17,17,16,17,17,16,17,17],"number_of_frames":120,"aperture_center_x":735,"aperture_center_y":460,"fixation_cross":true,"fixation_cross_width":15,"fixation_cross_height":15,"fixation_cross_color":"#111","fixation_cross_thickness":1,"border":true,"border_thickness":2,"border_color":"transparent","canvas_width":1470,"canvas_height":920,"trial_type":"rdk","trial_index":88,"plugin_version":"2.0.0","time_elapsed":263268},{"rt":4731,"stimulus":"\n        <div class=\"response-container\">\n          <div class=\"response-instruction\">\n            <p>rotate the bar by using the left and right arrow keys.</p>\n            <p>when you are determined, press the Enter key.</p>\n          </div>\n          <div class=\"response-circle\">\n            <div class=\"response-fixation\"></div>\n            <div id=\"bar\" class=\"rotating-bar\"></div>\n          </div>\n        </div>\n      ","response":"Enter","trial_type":"html-keyboard-response","trial_index":89,"plugin_version":"2.1.0","time_elapsed":268000,"random_initial_angle":198,"response_angle_css":355,"response_angle_rdk":95,"angular_error_target":7,"angular_error_distractor":128,"target_direction":88,"target_group":"white","reward_points":8},{"rt":null,"stimulus":"\n          <p style=\"color: #00FF00;\">Your reward: 8 points</p>\n        ","response":null,"trial_type":"html-keyboard-response","trial_index":90,"plugin_version":"2.1.0","time_elapsed":270003},{"rt":null,"stimulus":"<div class=\"fixation\" style=\"font-size: 60px;\">+</div>","response":null,"trial_type":"html-keyboard-response","trial_index":91,"plugin_version":"2.1.0","time_elapsed":271005},{"phase":"learning-awareness","target_group":"black","condition_label":"B_H_vs_W_L_rep20","target_direction":162,"distractor_direction":270,"session_rotation":55,"rt":-1,"response":"","correct":false,"choices":"ALL_KEYS","correct_choice":["a"],"trial_duration":2000,"flip_timestamps":[],"response_ends_trial":false,"number_of_apertures":200,"number_of_dots":[1,1,1,1,1,1,1,1,1,1,1,1,1,1,1,1,1,1,1,1,1,1,1,1,1,1,1,1,1,1,1,1,1,1,1,1,1,1,1,1,1,1,1,1,1,1,1,1,1,1,1,1,1,1,1,1,1,1,1,1,1,1,1,1,1,1,1,1,1,1,1,1,1,1,1,1,1,1,1,1,1,1,1,1,1,1,1,1,1,1,1,1,1,1,1,1,1,1,1,1,1,1,1,1,1,1,1,1,1,1,1,1,1,1,1,1,1,1,1,1,1,1,1,1,1,1,1,1,1,1,1,1,1,1,1,1,1,1,1,1,1,1,1,1,1,1,1,1,1,1,1,1,1,1,1,1,1,1,1,1,1,1,1,1,1,1,1,1,1,1,1,1,1,1,1,1,1,1,1,1,1,1,1,1,1,1,1,1,1,1,1,1,1,1,1,1,1,1,1,1],"number_of_sets":1,"coherent_direction":[162,270,270,270,162,162,162,270,162,162,162,270,270,270,162,270,270,270,270,270,270,162,270,162,162,162,270,162,162,270,162,162,162,270,270,270,270,270,270,270,270,162,270,270,270,162,162,162,162,270,270,162,162,162,270,270,270,162,162,162,162,270,270,162,270,162,162,162,270,162,270,162,270,270,162,162,162,270,270,162,270,162,270,270,270,270,270,162,162,162,162,270,270,162,270,270,162,270,270,162,270,162,162,270,270,270,162,270,162,162,270,270,162,162,270,270,270,162,162,270,162,270,270,270,162,162,270,270,270,162,270,270,270,270,162,270,270,270,270,162,162,162,162,162,270,162,162,162,162,270,270,270,162,162,270,162,162,270,162,162,270,162,270,162,162,162,162,270,162,162,162,270,162,162,270,270,162,162,162,162,270,162,162,270,162,162,162,162,162,270,162,270,270,270,270,270,270,162,162,270],"coherence":1,"opposite_coherence":0,"dot_radius":2,"dot_side_length":1,"dot_life":-1,"move_distance":1,"aperture_width":300,"aperture_height":300,"dot_color":["black","white","white","white","black","black","black","white","black","black","black","white","white","white","black","white","white","white","white","white","white","black","white","black","black","black","white","black","black","white","black","black","black","white","white","white","white","white","white","white","white","black","white","white","white","black","black","black","black","white","white","black","black","black","white","white","white","black","black","black","black","white","white","black","white","black","black","black","white","black","white","black","white","white","black","black","black","white","white","black","white","black","white","white","white","white","white","black","black","black","black","white","white","black","white","white","black","white","white","black","white","black","black","white","white","white","black","white","black","black","white","white","black","black","white","white","white","black","black","white","black","white","white","white","black","black","white","white","white","black","white","white","white","white","black","white","white","white","white","black","black","black","black","black","white","black","black","black","black","white","white","white","black","black","white","black","black","white","black","black","white","black","white","black","black","black","black","white","black","black","black","white","black","black","white","white","black","black","black","black","white","black","black","white","black","black","black","black","black","white","black","white","white","white","white","white","white","black","black","white"],"dot_shape":"circle","background_color":"#AAA","RDK_type":3,"aperture_type":2,"reinsert_type":2,"frame_rate":16.841666666666665,"frame_rate_array":[16,17,16,18,17,17,16,17,17,17,17,16,17,17,17,17,17,16,17,17,17,17,17,16,17,17,17,17,17,17,17,17,17,16,17,17,17,16,17,16,18,17,17,17,17,17,17,17,17,17,17,17,17,17,16,17,17,16,17,16,17,17,17,17,17,17,17,17,16,17,17,17,17,17,17,16,16,17,17,17,17,17,17,17,17,17,17,17,17,16,17,17,17,17,17,17,17,17,16,17,17,17,16,17,17,17,17,17,17,17,17,17,16,17,16,17,17,17,17,16],"number_of_frames":120,"aperture_center_x":735,"aperture_center_y":460,"fixation_cross":true,"fixation_cross_width":15,"fixation_cross_height":15,"fixation_cross_color":"#111","fixation_cross_thickness":1,"border":true,"border_thickness":2,"border_color":"transparent","canvas_width":1470,"canvas_height":920,"trial_type":"rdk","trial_index":92,"plugin_version":"2.0.0","time_elapsed":273008},{"rt":4051,"stimulus":"\n        <div class=\"response-container\">\n          <div class=\"response-instruction\">\n            <p>rotate the bar by using the left and right arrow keys.</p>\n            <p>when you are determined, press the Enter key.</p>\n          </div>\n          <div class=\"response-circle\">\n            <div class=\"response-fixation\"></div>\n            <div id=\"bar\" class=\"rotating-bar\"></div>\n          </div>\n        </div>\n      ","response":"Enter","trial_type":"html-keyboard-response","trial_index":93,"plugin_version":"2.1.0","time_elapsed":277061,"random_initial_angle":201,"response_angle_css":160,"response_angle_rdk":290,"angular_error_target":128,"angular_error_distractor":20,"target_direction":162,"target_group":"black","reward_points":0},{"rt":null,"stimulus":"\n          <p style=\"color: #FF3333;\">Your reward: 0 points</p>\n        ","response":null,"trial_type":"html-keyboard-response","trial_index":94,"plugin_version":"2.1.0","time_elapsed":279063},{"rt":null,"stimulus":"<div class=\"fixation\" style=\"font-size: 60px;\">+</div>","response":null,"trial_type":"html-keyboard-response","trial_index":95,"plugin_version":"2.1.0","time_elapsed":280065},{"phase":"learning-awareness","target_group":"white","condition_label":"W_H_vs_B_L_rep15","target_direction":90,"distractor_direction":358,"session_rotation":55,"rt":-1,"response":"","correct":false,"choices":"ALL_KEYS","correct_choice":["a"],"trial_duration":2000,"flip_timestamps":[],"response_ends_trial":false,"number_of_apertures":200,"number_of_dots":[1,1,1,1,1,1,1,1,1,1,1,1,1,1,1,1,1,1,1,1,1,1,1,1,1,1,1,1,1,1,1,1,1,1,1,1,1,1,1,1,1,1,1,1,1,1,1,1,1,1,1,1,1,1,1,1,1,1,1,1,1,1,1,1,1,1,1,1,1,1,1,1,1,1,1,1,1,1,1,1,1,1,1,1,1,1,1,1,1,1,1,1,1,1,1,1,1,1,1,1,1,1,1,1,1,1,1,1,1,1,1,1,1,1,1,1,1,1,1,1,1,1,1,1,1,1,1,1,1,1,1,1,1,1,1,1,1,1,1,1,1,1,1,1,1,1,1,1,1,1,1,1,1,1,1,1,1,1,1,1,1,1,1,1,1,1,1,1,1,1,1,1,1,1,1,1,1,1,1,1,1,1,1,1,1,1,1,1,1,1,1,1,1,1,1,1,1,1,1,1],"number_of_sets":1,"coherent_direction":[90,358,358,90,358,90,90,358,358,358,90,90,90,90,358,90,90,358,358,90,90,358,90,90,358,358,358,90,358,358,90,358,358,358,358,90,90,358,90,90,358,90,358,358,90,90,90,90,358,358,90,358,90,90,90,358,358,358,90,358,90,358,90,90,358,358,358,358,358,90,358,90,358,358,90,358,90,90,358,358,358,358,358,358,90,90,90,90,90,90,358,90,358,358,90,90,90,90,90,358,90,90,358,358,358,90,358,358,358,358,90,358,358,90,358,358,90,358,358,358,90,90,90,90,358,90,90,358,90,358,90,90,358,358,90,90,90,90,90,358,358,358,90,358,90,90,90,90,90,358,358,358,358,90,358,358,90,90,90,358,90,90,358,90,358,90,90,358,358,358,358,90,358,90,90,90,358,358,358,358,90,358,90,90,358,90,90,90,90,90,358,90,358,358,90,90,358,358,358,358],"coherence":1,"opposite_coherence":0,"dot_radius":2,"dot_side_length":1,"dot_life":-1,"move_distance":1,"aperture_width":300,"aperture_height":300,"dot_color":["white","black","black","white","black","white","white","black","black","black","white","white","white","white","black","white","white","black","black","white","white","black","white","white","black","black","black","white","black","black","white","black","black","black","black","white","white","black","white","white","black","white","black","black","white","white","white","white","black","black","white","black","white","white","white","black","black","black","white","black","white","black","white","white","black","black","black","black","black","white","black","white","black","black","white","black","white","white","black","black","black","black","black","black","white","white","white","white","white","white","black","white","black","black","white","white","white","white","white","black","white","white","black","black","black","white","black","black","black","black","white","black","black","white","black","black","white","black","black","black","white","white","white","white","black","white","white","black","white","black","white","white","black","black","white","white","white","white","white","black","black","black","white","black","white","white","white","white","white","black","black","black","black","white","black","black","white","white","white","black","white","white","black","white","black","white","white","black","black","black","black","white","black","white","white","white","black","black","black","black","white","black","white","white","black","white","white","white","white","white","black","white","black","black","white","white","black","black","black","black"],"dot_shape":"circle","background_color":"#AAA","RDK_type":3,"aperture_type":2,"reinsert_type":2,"frame_rate":16.764705882352942,"frame_rate_array":[24,17,17,17,17,17,17,16,16,17,17,16,16,17,17,16,17,17,17,17,16,17,17,16,17,17,16,17,17,16,17,16,17,17,16,17,17,16,17,16,17,16,17,16,17,16,16,17,17,17,17,17,17,16,17,16,17,17,17,17,16,17,17,16,17,16,17,17,17,16,17,17,16,17,17,16,17,17,17,17,17,17,16,17,17,17,17,17,16,17,17,17,17,16,17,16,17,16,17,17,16,17,17,16,17,17,17,16,17,17,16,17,17,17,17,17,16,17,17],"number_of_frames":119,"aperture_center_x":735,"aperture_center_y":460,"fixation_cross":true,"fixation_cross_width":15,"fixation_cross_height":15,"fixation_cross_color":"#111","fixation_cross_thickness":1,"border":true,"border_thickness":2,"border_color":"transparent","canvas_width":1470,"canvas_height":920,"trial_type":"rdk","trial_index":96,"plugin_version":"2.0.0","time_elapsed":282068},{"rt":4367,"stimulus":"\n        <div class=\"response-container\">\n          <div class=\"response-instruction\">\n            <p>rotate the bar by using the left and right arrow keys.</p>\n            <p>when you are determined, press the Enter key.</p>\n          </div>\n          <div class=\"response-circle\">\n            <div class=\"response-fixation\"></div>\n            <div id=\"bar\" class=\"rotating-bar\"></div>\n          </div>\n        </div>\n      ","response":"Enter","trial_type":"html-keyboard-response","trial_index":97,"plugin_version":"2.1.0","time_elapsed":286436,"random_initial_angle":103,"response_angle_css":90,"response_angle_rdk":0,"angular_error_target":-90,"angular_error_distractor":2,"target_direction":90,"target_group":"white","reward_points":0},{"rt":null,"stimulus":"\n          <p style=\"color: #FF3333;\">Your reward: 0 points</p>\n        ","response":null,"trial_type":"html-keyboard-response","trial_index":98,"plugin_version":"2.1.0","time_elapsed":288439},{"rt":null,"stimulus":"<div class=\"fixation\" style=\"font-size: 60px;\">+</div>","response":null,"trial_type":"html-keyboard-response","trial_index":99,"plugin_version":"2.1.0","time_elapsed":289441},{"phase":"learning-awareness","target_group":"white","condition_label":"W_H_vs_B_L_rep5","target_direction":76,"distractor_direction":340,"session_rotation":55,"rt":-1,"response":"","correct":false,"choices":"ALL_KEYS","correct_choice":["a"],"trial_duration":2000,"flip_timestamps":[],"response_ends_trial":false,"number_of_apertures":200,"number_of_dots":[1,1,1,1,1,1,1,1,1,1,1,1,1,1,1,1,1,1,1,1,1,1,1,1,1,1,1,1,1,1,1,1,1,1,1,1,1,1,1,1,1,1,1,1,1,1,1,1,1,1,1,1,1,1,1,1,1,1,1,1,1,1,1,1,1,1,1,1,1,1,1,1,1,1,1,1,1,1,1,1,1,1,1,1,1,1,1,1,1,1,1,1,1,1,1,1,1,1,1,1,1,1,1,1,1,1,1,1,1,1,1,1,1,1,1,1,1,1,1,1,1,1,1,1,1,1,1,1,1,1,1,1,1,1,1,1,1,1,1,1,1,1,1,1,1,1,1,1,1,1,1,1,1,1,1,1,1,1,1,1,1,1,1,1,1,1,1,1,1,1,1,1,1,1,1,1,1,1,1,1,1,1,1,1,1,1,1,1,1,1,1,1,1,1,1,1,1,1,1,1],"number_of_sets":1,"coherent_direction":[340,340,76,76,340,76,340,76,76,76,340,340,76,76,340,76,340,76,340,76,76,340,76,340,76,340,340,76,340,76,340,340,340,340,76,76,76,340,76,340,76,76,340,76,76,340,76,76,76,76,340,340,340,340,340,76,76,340,76,76,76,76,340,340,340,76,340,340,76,76,76,340,340,76,340,76,340,340,340,340,340,76,340,340,340,340,76,340,76,76,76,76,76,76,76,76,340,340,340,340,340,76,76,340,340,340,340,340,76,76,340,340,76,340,76,76,76,340,76,76,76,76,340,340,340,76,76,76,76,340,340,76,340,340,76,340,340,340,340,76,340,340,76,76,340,340,76,340,340,340,76,340,76,340,340,76,76,340,76,76,76,340,76,340,340,76,76,76,340,76,76,340,76,340,76,340,76,76,76,76,340,76,340,340,340,76,340,340,76,340,340,76,76,76,76,76,76,340,340,340],"coherence":1,"opposite_coherence":0,"dot_radius":2,"dot_side_length":1,"dot_life":-1,"move_distance":1,"aperture_width":300,"aperture_height":300,"dot_color":["black","black","white","white","black","white","black","white","white","white","black","black","white","white","black","white","black","white","black","white","white","black","white","black","white","black","black","white","black","white","black","black","black","black","white","white","white","black","white","black","white","white","black","white","white","black","white","white","white","white","black","black","black","black","black","white","white","black","white","white","white","white","black","black","black","white","black","black","white","white","white","black","black","white","black","white","black","black","black","black","black","white","black","black","black","black","white","black","white","white","white","white","white","white","white","white","black","black","black","black","black","white","white","black","black","black","black","black","white","white","black","black","white","black","white","white","white","black","white","white","white","white","black","black","black","white","white","white","white","black","black","white","black","black","white","black","black","black","black","white","black","black","white","white","black","black","white","black","black","black","white","black","white","black","black","white","white","black","white","white","white","black","white","black","black","white","white","white","black","white","white","black","white","black","white","black","white","white","white","white","black","white","black","black","black","white","black","black","white","black","black","white","white","white","white","white","white","black","black","black"],"dot_shape":"circle","background_color":"#AAA","RDK_type":3,"aperture_type":2,"reinsert_type":2,"frame_rate":16.733333333333334,"frame_rate_array":[13,16,17,17,17,17,15,17,17,17,17,16,17,17,17,17,17,16,17,17,17,17,17,17,17,17,17,16,17,17,17,17,17,16,17,16,17,16,17,17,17,17,16,17,17,17,16,17,17,17,16,17,16,17,17,17,17,17,16,17,16,17,17,17,17,17,16,17,17,17,17,17,17,16,17,16,17,16,17,17,17,16,17,17,17,17,16,17,17,17,16,16,17,16,17,17,17,16,17,17,17,17,17,17,17,17,17,17,16,17,16,17,17,17,17,17,17,17,16,17],"number_of_frames":120,"aperture_center_x":735,"aperture_center_y":460,"fixation_cross":true,"fixation_cross_width":15,"fixation_cross_height":15,"fixation_cross_color":"#111","fixation_cross_thickness":1,"border":true,"border_thickness":2,"border_color":"transparent","canvas_width":1470,"canvas_height":920,"trial_type":"rdk","trial_index":100,"plugin_version":"2.0.0","time_elapsed":291444},{"rt":4062,"stimulus":"\n        <div class=\"response-container\">\n          <div class=\"response-instruction\">\n            <p>rotate the bar by using the left and right arrow keys.</p>\n            <p>when you are determined, press the Enter key.</p>\n          </div>\n          <div class=\"response-circle\">\n            <div class=\"response-fixation\"></div>\n            <div id=\"bar\" class=\"rotating-bar\"></div>\n          </div>\n        </div>\n      ","response":"Enter","trial_type":"html-keyboard-response","trial_index":101,"plugin_version":"2.1.0","time_elapsed":295507,"random_initial_angle":140,"response_angle_css":-4,"response_angle_rdk":94,"angular_error_target":18,"angular_error_distractor":114,"target_direction":76,"target_group":"white","reward_points":6},{"rt":null,"stimulus":"\n          <p style=\"color: #00FF00;\">Your reward: 6 points</p>\n        ","response":null,"trial_type":"html-keyboard-response","trial_index":102,"plugin_version":"2.1.0","time_elapsed":297509},{"rt":null,"stimulus":"<div class=\"fixation\" style=\"font-size: 60px;\">+</div>","response":null,"trial_type":"html-keyboard-response","trial_index":103,"plugin_version":"2.1.0","time_elapsed":298512},{"phase":"learning-awareness","target_group":"black","condition_label":"B_H_vs_W_L_rep15","target_direction":172,"distractor_direction":272,"session_rotation":55,"rt":-1,"response":"","correct":false,"choices":"ALL_KEYS","correct_choice":["a"],"trial_duration":2000,"flip_timestamps":[],"response_ends_trial":false,"number_of_apertures":200,"number_of_dots":[1,1,1,1,1,1,1,1,1,1,1,1,1,1,1,1,1,1,1,1,1,1,1,1,1,1,1,1,1,1,1,1,1,1,1,1,1,1,1,1,1,1,1,1,1,1,1,1,1,1,1,1,1,1,1,1,1,1,1,1,1,1,1,1,1,1,1,1,1,1,1,1,1,1,1,1,1,1,1,1,1,1,1,1,1,1,1,1,1,1,1,1,1,1,1,1,1,1,1,1,1,1,1,1,1,1,1,1,1,1,1,1,1,1,1,1,1,1,1,1,1,1,1,1,1,1,1,1,1,1,1,1,1,1,1,1,1,1,1,1,1,1,1,1,1,1,1,1,1,1,1,1,1,1,1,1,1,1,1,1,1,1,1,1,1,1,1,1,1,1,1,1,1,1,1,1,1,1,1,1,1,1,1,1,1,1,1,1,1,1,1,1,1,1,1,1,1,1,1,1],"number_of_sets":1,"coherent_direction":[172,272,272,272,172,172,272,272,272,172,172,172,272,172,172,172,172,172,272,272,172,172,172,272,272,272,172,272,272,272,172,272,172,172,172,172,172,172,172,272,172,172,172,272,272,272,272,272,172,272,172,272,272,172,272,272,172,172,172,272,172,172,172,272,272,172,172,172,272,172,172,272,172,172,272,272,172,172,172,272,272,172,272,272,172,172,272,172,172,172,272,272,272,272,172,272,272,272,172,172,272,172,272,272,272,272,172,272,272,172,172,172,272,272,272,272,272,272,272,172,272,272,272,272,172,172,272,272,272,272,272,272,272,272,272,172,272,172,172,272,172,172,272,172,172,172,172,272,272,172,272,272,172,272,272,272,172,272,172,172,172,272,172,172,172,272,272,172,172,172,172,272,272,172,272,172,272,172,272,172,272,172,272,272,172,172,172,272,272,172,172,272,172,272,272,172,172,172,172,172],"coherence":1,"opposite_coherence":0,"dot_radius":2,"dot_side_length":1,"dot_life":-1,"move_distance":1,"aperture_width":300,"aperture_height":300,"dot_color":["black","white","white","white","black","black","white","white","white","black","black","black","white","black","black","black","black","black","white","white","black","black","black","white","white","white","black","white","white","white","black","white","black","black","black","black","black","black","black","white","black","black","black","white","white","white","white","white","black","white","black","white","white","black","white","white","black","black","black","white","black","black","black","white","white","black","black","black","white","black","black","white","black","black","white","white","black","black","black","white","white","black","white","white","black","black","white","black","black","black","white","white","white","white","black","white","white","white","black","black","white","black","white","white","white","white","black","white","white","black","black","black","white","white","white","white","white","white","white","black","white","white","white","white","black","black","white","white","white","white","white","white","white","white","white","black","white","black","black","white","black","black","white","black","black","black","black","white","white","black","white","white","black","white","white","white","black","white","black","black","black","white","black","black","black","white","white","black","black","black","black","white","white","black","white","black","white","black","white","black","white","black","white","white","black","black","black","white","white","black","black","white","black","white","white","black","black","black","black","black"],"dot_shape":"circle","background_color":"#AAA","RDK_type":3,"aperture_type":2,"reinsert_type":2,"frame_rate":16.633333333333333,"frame_rate_array":[8,17,17,17,17,17,16,17,16,17,16,17,16,17,16,17,17,17,17,16,17,16,17,17,17,16,17,16,17,16,17,17,17,17,17,17,17,16,17,16,17,16,17,17,16,17,15,17,17,17,17,17,17,17,17,16,17,17,17,17,17,16,17,16,17,17,16,16,17,16,17,16,17,17,16,17,17,17,17,17,17,17,16,17,16,17,17,17,17,16,17,16,17,17,17,17,17,17,16,17,17,16,16,17,17,17,16,16,17,17,17,17,17,16,17,16,17,17,17,17],"number_of_frames":120,"aperture_center_x":735,"aperture_center_y":460,"fixation_cross":true,"fixation_cross_width":15,"fixation_cross_height":15,"fixation_cross_color":"#111","fixation_cross_thickness":1,"border":true,"border_thickness":2,"border_color":"transparent","canvas_width":1470,"canvas_height":920,"trial_type":"rdk","trial_index":104,"plugin_version":"2.0.0","time_elapsed":300516},{"rt":3581,"stimulus":"\n        <div class=\"response-container\">\n          <div class=\"response-instruction\">\n            <p>rotate the bar by using the left and right arrow keys.</p>\n            <p>when you are determined, press the Enter key.</p>\n          </div>\n          <div class=\"response-circle\">\n            <div class=\"response-fixation\"></div>\n            <div id=\"bar\" class=\"rotating-bar\"></div>\n          </div>\n        </div>\n      ","response":"Enter","trial_type":"html-keyboard-response","trial_index":105,"plugin_version":"2.1.0","time_elapsed":304098,"random_initial_angle":236,"response_angle_css":178,"response_angle_rdk":272,"angular_error_target":100,"angular_error_distractor":0,"target_direction":172,"target_group":"black","reward_points":0},{"rt":null,"stimulus":"\n          <p style=\"color: #FF3333;\">Your reward: 0 points</p>\n        ","response":null,"trial_type":"html-keyboard-response","trial_index":106,"plugin_version":"2.1.0","time_elapsed":306100},{"rt":null,"stimulus":"<div class=\"fixation\" style=\"font-size: 60px;\">+</div>","response":null,"trial_type":"html-keyboard-response","trial_index":107,"plugin_version":"2.1.0","time_elapsed":307103},{"phase":"learning-awareness","target_group":"white","condition_label":"W_H_vs_B_L_rep8","target_direction