[{"rt":2712,"stimulus":"Welcome to the experiment. Press any key to begin.","response":" ","trial_type":"html-keyboard-response","trial_index":0,"plugin_version":"2.1.0","time_elapsed":2715},{"rt":24261,"stimulus":"\n        <div class=\"instructions-container\">\n          <h2>Instructions</h2>\n\n          <p>\n          In this experiment, you will see <strong>two Random Dot Kinematograms (RDKs)</strong> displayed simultaneously.\n          </p>\n\n          <p>\n          An RDK is a visual stimulus consisting of many small dots that move coherently in a single direction. \n          In this experiment, the dots will be either <strong>white</strong> or <strong>black</strong> \n          (see the short demo below for an example of an RDK stimulus).\n          </p>\n\n          <p>\n          On each trial, the two RDKs will move in different directions. \n          Your task is to decide <strong>which RDK appears to contain more dots</strong>.\n          </p>\n\n          <p>\n          The RDK that you judge to have more dots is called the <strong>target RDK</strong>. \n          For example, if the white RDK appears to have more dots than the black RDK, \n          you should report the motion direction of the white RDK.\n          </p>\n\n          <p>\n          After viewing the RDKs, you will rotate a bar to indicate the perceived direction of the target RDK \n          using the <strong>left</strong> and <strong>right arrow keys</strong>. \n          Press <strong>Enter</strong> when you are satisfied with your response.\n          When the bar is held down, the rotation speed increases.\n          </p>\n\n          <p>\n          You will receive points based on the <strong>accuracy of your response</strong>, \n          and your final <strong>bonus reward</strong> may depend on your overall performance. \n          Please try to respond as accurately as possible.\n          </p>\n\n          <p>\n          You will first complete <strong>16 practice trials</strong>. \n          Press the <strong>Enter</strong> key to start the practice phase.\n          </p>\n\n          <canvas id=\"instruction-demo-rdk\" width=\"200\" height=\"200\"style=\"display:block;margin:12px auto; border-radius: 50%;\"></canvas>\n        </div>\n      ","response":"Enter","trial_type":"html-keyboard-response","trial_index":1,"plugin_version":"2.1.0","time_elapsed":26978},{"rt":null,"stimulus":"<div class=\"fixation\" style=\"font-size: 60px;\">+</div>","response":null,"trial_type":"html-keyboard-response","trial_index":2,"plugin_version":"2.1.0","time_elapsed":27996},{"target_group":"black","target_index":1,"condition_label":"practice","rt":-1,"response":"","correct":false,"choices":"ALL_KEYS","correct_choice":["a"],"trial_duration":2000,"flip_timestamps":[],"response_ends_trial":false,"number_of_apertures":2,"number_of_dots":[84,100],"number_of_sets":1,"coherent_direction":[169,48],"coherence":1,"opposite_coherence":0,"dot_radius":2,"dot_side_length":1,"dot_life":-1,"move_distance":1,"aperture_width":300,"aperture_height":300,"dot_color":["white","black"],"dot_shape":"circle","background_color":"#AAA","RDK_type":3,"aperture_type":2,"reinsert_type":2,"frame_rate":16.658333333333335,"frame_rate_array":[26,3,15,21,13,18,16,16,17,17,16,16,17,17,16,18,16,16,18,15,16,18,17,16,18,17,15,17,17,16,17,17,16,18,17,17,16,17,16,17,18,16,16,17,16,18,16,17,17,17,16,17,17,16,17,17,17,17,17,16,17,17,17,16,17,16,17,16,17,17,17,17,16,17,16,17,17,17,16,17,17,17,17,15,18,17,17,17,17,17,15,18,17,16,16,17,17,17,16,17,16,17,17,17,16,17,17,16,17,16,18,17,16,17,17,16,17,17,16,16],"number_of_frames":120,"aperture_center_x":768,"aperture_center_y":480,"fixation_cross":true,"fixation_cross_width":15,"fixation_cross_height":15,"fixation_cross_color":"#111","fixation_cross_thickness":1,"border":true,"border_thickness":2,"border_color":"transparent","canvas_width":1536,"canvas_height":960,"trial_type":"rdk","trial_index":3,"plugin_version":"2.0.0","time_elapsed":30008,"phase":"practice","target_direction":48,"distractor_direction":169},{"rt":23512,"stimulus":"\n        <div class=\"response-container\">\n          <div class=\"response-instruction\">\n            <p>rotate the bar by using the left and right arrow keys.</p>\n            <p>when you are determined, press the Enter key.</p>\n          </div>\n          <div class=\"response-circle\">\n            <div class=\"response-fixation\"></div>\n            <div id=\"bar\" class=\"rotating-bar\"></div>\n          </div>\n        </div>\n      ","response":"Enter","trial_type":"html-keyboard-response","trial_index":4,"plugin_version":"2.1.0","time_elapsed":53521,"random_initial_angle":131,"response_angle_css":85,"response_angle_rdk":5,"angular_error_target":-43,"angular_error_distractor":-164,"target_direction":48,"target_group":"black","reward_points":1},{"rt":null,"stimulus":"\n          <p style=\"color: #FF3333;\">Your reward: 1 points</p>\n        ","response":null,"trial_type":"html-keyboard-response","trial_index":5,"plugin_version":"2.1.0","time_elapsed":55527},{"rt":null,"stimulus":"<div class=\"fixation\" style=\"font-size: 60px;\">+</div>","response":null,"trial_type":"html-keyboard-response","trial_index":6,"plugin_version":"2.1.0","time_elapsed":56532},{"target_group":"black","target_index":1,"condition_label":"practice","rt":-1,"response":"","correct":false,"choices":"ALL_KEYS","correct_choice":["a"],"trial_duration":2000,"flip_timestamps":[],"response_ends_trial":false,"number_of_apertures":2,"number_of_dots":[55,100],"number_of_sets":1,"coherent_direction":[98,204],"coherence":1,"opposite_coherence":0,"dot_radius":2,"dot_side_length":1,"dot_life":-1,"move_distance":1,"aperture_width":300,"aperture_height":300,"dot_color":["white","black"],"dot_shape":"circle","background_color":"#AAA","RDK_type":3,"aperture_type":2,"reinsert_type":2,"frame_rate":16.725,"frame_rate_array":[9,17,17,17,17,17,16,17,17,17,17,17,15,17,17,17,17,16,17,16,18,16,18,17,17,16,17,17,17,17,17,16,17,18,17,16,16,18,16,17,16,17,16,17,17,17,17,17,16,17,17,17,16,17,17,17,17,17,17,17,17,16,18,16,17,17,17,17,17,17,17,16,17,17,17,16,16,18,17,17,17,17,17,16,16,18,17,16,17,17,17,16,17,17,17,17,17,16,17,16,16,17,17,16,17,17,17,16,17,18,17,17,16,17,16,17,17,16,17,16],"number_of_frames":120,"aperture_center_x":768,"aperture_center_y":480,"fixation_cross":true,"fixation_cross_width":15,"fixation_cross_height":15,"fixation_cross_color":"#111","fixation_cross_thickness":1,"border":true,"border_thickness":2,"border_color":"transparent","canvas_width":1536,"canvas_height":960,"trial_type":"rdk","trial_index":7,"plugin_version":"2.0.0","time_elapsed":58538,"phase":"practice","target_direction":204,"distractor_direction":98},{"rt":6000,"stimulus":"\n        <div class=\"response-container\">\n          <div class=\"response-instruction\">\n            <p>rotate the bar by using the left and right arrow keys.</p>\n            <p>when you are determined, press the Enter key.</p>\n          </div>\n          <div class=\"response-circle\">\n            <div class=\"response-fixation\"></div>\n            <div id=\"bar\" class=\"rotating-bar\"></div>\n          </div>\n        </div>\n      ","response":"Enter","trial_type":"html-keyboard-response","trial_index":8,"plugin_version":"2.1.0","time_elapsed":64539,"random_initial_angle":327,"response_angle_css":358,"response_angle_rdk":92,"angular_error_target":-112,"angular_error_distractor":-6,"target_direction":204,"target_group":"black","reward_points":0},{"rt":null,"stimulus":"\n          <p style=\"color: #FF3333;\">Your reward: 0 points</p>\n        ","response":null,"trial_type":"html-keyboard-response","trial_index":9,"plugin_version":"2.1.0","time_elapsed":66548},{"rt":null,"stimulus":"<div class=\"fixation\" style=\"font-size: 60px;\">+</div>","response":null,"trial_type":"html-keyboard-response","trial_index":10,"plugin_version":"2.1.0","time_elapsed":67555},{"target_group":"black","target_index":1,"condition_label":"practice","rt":-1,"response":"","correct":false,"choices":"ALL_KEYS","correct_choice":["a"],"trial_duration":2000,"flip_timestamps":[],"response_ends_trial":false,"number_of_apertures":2,"number_of_dots":[56,100],"number_of_sets":1,"coherent_direction":[6,226],"coherence":1,"opposite_coherence":0,"dot_radius":2,"dot_side_length":1,"dot_life":-1,"move_distance":1,"aperture_width":300,"aperture_height":300,"dot_color":["white","black"],"dot_shape":"circle","background_color":"#AAA","RDK_type":3,"aperture_type":2,"reinsert_type":2,"frame_rate":16.906779661016948,"frame_rate_array":[37,18,15,17,17,17,16,17,17,16,16,18,16,17,17,18,15,17,16,17,17,17,16,17,17,17,17,17,17,16,17,16,17,17,17,17,17,15,18,17,16,17,15,17,17,17,17,17,17,17,17,17,17,16,17,20,14,17,16,17,17,16,17,17,16,16,17,16,17,18,16,17,17,15,17,18,17,16,17,17,17,17,16,17,17,17,16,17,17,16,16,17,16,17,17,17,16,16,18,16,17,17,17,16,17,16,18,16,17,17,17,17,17,17,17,16,17,17],"number_of_frames":118,"aperture_center_x":768,"aperture_center_y":480,"fixation_cross":true,"fixation_cross_width":15,"fixation_cross_height":15,"fixation_cross_color":"#111","fixation_cross_thickness":1,"border":true,"border_thickness":2,"border_color":"transparent","canvas_width":1536,"canvas_height":960,"trial_type":"rdk","trial_index":11,"plugin_version":"2.0.0","time_elapsed":69559,"phase":"practice","target_direction":226,"distractor_direction":6},{"rt":6946,"stimulus":"\n        <div class=\"response-container\">\n          <div class=\"response-instruction\">\n            <p>rotate the bar by using the left and right arrow keys.</p>\n            <p>when you are determined, press the Enter key.</p>\n          </div>\n          <div class=\"response-circle\">\n            <div class=\"response-fixation\"></div>\n            <div id=\"bar\" class=\"rotating-bar\"></div>\n          </div>\n        </div>\n      ","response":"Enter","trial_type":"html-keyboard-response","trial_index":12,"plugin_version":"2.1.0","time_elapsed":76507,"random_initial_angle":304,"response_angle_css":270,"response_angle_rdk":180,"angular_error_target":-46,"angular_error_distractor":174,"target_direction":226,"target_group":"black","reward_points":0},{"rt":null,"stimulus":"\n          <p style=\"color: #FF3333;\">Your reward: 0 points</p>\n        ","response":null,"trial_type":"html-keyboard-response","trial_index":13,"plugin_version":"2.1.0","time_elapsed":78521},{"rt":null,"stimulus":"<div class=\"fixation\" style=\"font-size: 60px;\">+</div>","response":null,"trial_type":"html-keyboard-response","trial_index":14,"plugin_version":"2.1.0","time_elapsed":79527},{"target_group":"white","target_index":0,"condition_label":"practice","rt":-1,"response":"","correct":false,"choices":"ALL_KEYS","correct_choice":["a"],"trial_duration":2000,"flip_timestamps":[],"response_ends_trial":false,"number_of_apertures":2,"number_of_dots":[100,73],"number_of_sets":1,"coherent_direction":[143,271],"coherence":1,"opposite_coherence":0,"dot_radius":2,"dot_side_length":1,"dot_life":-1,"move_distance":1,"aperture_width":300,"aperture_height":300,"dot_color":["white","black"],"dot_shape":"circle","background_color":"#AAA","RDK_type":3,"aperture_type":2,"reinsert_type":2,"frame_rate":16.708333333333332,"frame_rate_array":[15,16,18,17,16,17,16,17,17,16,17,17,16,17,17,16,17,16,18,16,17,17,17,17,16,17,17,21,12,17,17,16,17,17,17,17,17,17,17,16,17,16,17,16,17,17,17,16,16,17,18,16,18,16,17,16,16,17,16,16,17,18,15,18,17,17,17,17,16,17,17,17,17,16,17,17,17,17,17,17,17,15,17,17,17,17,17,16,16,18,17,17,16,17,16,17,17,17,16,17,17,16,17,16,17,16,17,17,16,17,17,15,17,17,18,17,17,17,16,16],"number_of_frames":120,"aperture_center_x":768,"aperture_center_y":480,"fixation_cross":true,"fixation_cross_width":15,"fixation_cross_height":15,"fixation_cross_color":"#111","fixation_cross_thickness":1,"border":true,"border_thickness":2,"border_color":"transparent","canvas_width":1536,"canvas_height":960,"trial_type":"rdk","trial_index":15,"plugin_version":"2.0.0","time_elapsed":81542,"phase":"practice","target_direction":143,"distractor_direction":271},{"rt":6774,"stimulus":"\n        <div class=\"response-container\">\n          <div class=\"response-instruction\">\n            <p>rotate the bar by using the left and right arrow keys.</p>\n            <p>when you are determined, press the Enter key.</p>\n          </div>\n          <div class=\"response-circle\">\n            <div class=\"response-fixation\"></div>\n            <div id=\"bar\" class=\"rotating-bar\"></div>\n          </div>\n        </div>\n      ","response":"Enter","trial_type":"html-keyboard-response","trial_index":16,"plugin_version":"2.1.0","time_elapsed":88318,"random_initial_angle":36,"response_angle_css":-3,"response_angle_rdk":93,"angular_error_target":-50,"angular_error_distractor":-178,"target_direction":143,"target_group":"white","reward_points":0},{"rt":null,"stimulus":"\n          <p style=\"color: #FF3333;\">Your reward: 0 points</p>\n        ","response":null,"trial_type":"html-keyboard-response","trial_index":17,"plugin_version":"2.1.0","time_elapsed":90324},{"rt":null,"stimulus":"<div class=\"fixation\" style=\"font-size: 60px;\">+</div>","response":null,"trial_type":"html-keyboard-response","trial_index":18,"plugin_version":"2.1.0","time_elapsed":91328},{"target_group":"black","target_index":1,"condition_label":"practice","rt":-1,"response":"","correct":false,"choices":"ALL_KEYS","correct_choice":["a"],"trial_duration":2000,"flip_timestamps":[],"response_ends_trial":false,"number_of_apertures":2,"number_of_dots":[64,100],"number_of_sets":1,"coherent_direction":[284,101],"coherence":1,"opposite_coherence":0,"dot_radius":2,"dot_side_length":1,"dot_life":-1,"move_distance":1,"aperture_width":300,"aperture_height":300,"dot_color":["white","black"],"dot_shape":"circle","background_color":"#AAA","RDK_type":3,"aperture_type":2,"reinsert_type":2,"frame_rate":16.666666666666668,"frame_rate_array":[20,9,17,17,16,18,16,16,16,18,17,16,17,17,17,16,16,17,17,17,18,16,18,16,16,16,16,18,17,16,17,16,17,17,17,16,16,17,17,16,17,17,17,16,17,18,16,17,16,17,17,17,16,17,17,17,22,11,17,17,16,17,17,16,18,17,17,17,16,18,15,16,17,17,17,17,17,16,17,16,16,17,16,16,16,18,17,17,16,18,17,16,17,17,17,16,17,18,17,16,17,16,16,16,18,17,16,17,17,16,17,16,17,18,16,17,16,16,16,17],"number_of_frames":120,"aperture_center_x":768,"aperture_center_y":480,"fixation_cross":true,"fixation_cross_width":15,"fixation_cross_height":15,"fixation_cross_color":"#111","fixation_cross_thickness":1,"border":true,"border_thickness":2,"border_color":"transparent","canvas_width":1536,"canvas_height":960,"trial_type":"rdk","trial_index":19,"plugin_version":"2.0.0","time_elapsed":93341,"phase":"practice","target_direction":101,"distractor_direction":284},{"rt":4723,"stimulus":"\n        <div class=\"response-container\">\n          <div class=\"response-instruction\">\n            <p>rotate the bar by using the left and right arrow keys.</p>\n            <p>when you are determined, press the Enter key.</p>\n          </div>\n          <div class=\"response-circle\">\n            <div class=\"response-fixation\"></div>\n            <div id=\"bar\" class=\"rotating-bar\"></div>\n          </div>\n        </div>\n      ","response":"Enter","trial_type":"html-keyboard-response","trial_index":20,"plugin_version":"2.1.0","time_elapsed":98066,"random_initial_angle":285,"response_angle_css":180,"response_angle_rdk":270,"angular_error_target":169,"angular_error_distractor":-14,"target_direction":101,"target_group":"black","reward_points":0},{"rt":null,"stimulus":"\n          <p style=\"color: #FF3333;\">Your reward: 0 points</p>\n        ","response":null,"trial_type":"html-keyboard-response","trial_index":21,"plugin_version":"2.1.0","time_elapsed":100080},{"rt":null,"stimulus":"<div class=\"fixation\" style=\"font-size: 60px;\">+</div>","response":null,"trial_type":"html-keyboard-response","trial_index":22,"plugin_version":"2.1.0","time_elapsed":101084},{"target_group":"white","target_index":0,"condition_label":"practice","rt":-1,"response":"","correct":false,"choices":"ALL_KEYS","correct_choice":["a"],"trial_duration":2000,"flip_timestamps":[],"response_ends_trial":false,"number_of_apertures":2,"number_of_dots":[100,88],"number_of_sets":1,"coherent_direction":[87,190],"coherence":1,"opposite_coherence":0,"dot_radius":2,"dot_side_length":1,"dot_life":-1,"move_distance":1,"aperture_width":300,"aperture_height":300,"dot_color":["white","black"],"dot_shape":"circle","background_color":"#AAA","RDK_type":3,"aperture_type":2,"reinsert_type":2,"frame_rate":16.831932773109244,"frame_rate_array":[33,6,18,17,16,17,17,17,17,17,16,17,17,17,17,16,16,17,16,18,16,17,18,17,17,15,17,17,18,17,17,16,18,16,18,17,16,17,16,17,17,17,17,17,16,17,17,16,16,16,17,17,17,17,16,17,17,17,17,17,17,16,17,17,16,17,17,17,17,17,17,17,17,17,16,17,17,15,17,18,16,17,17,17,16,16,18,16,17,17,17,17,16,17,17,17,17,17,17,16,16,18,16,18,17,16,16,17,16,17,17,17,16,17,17,15,17,18,17],"number_of_frames":119,"aperture_center_x":768,"aperture_center_y":480,"fixation_cross":true,"fixation_cross_width":15,"fixation_cross_height":15,"fixation_cross_color":"#111","fixation_cross_thickness":1,"border":true,"border_thickness":2,"border_color":"transparent","canvas_width":1536,"canvas_height":960,"trial_type":"rdk","trial_index":23,"plugin_version":"2.0.0","time_elapsed":103094,"phase":"practice","target_direction":87,"distractor_direction":190},{"rt":5435,"stimulus":"\n        <div class=\"response-container\">\n          <div class=\"response-instruction\">\n            <p>rotate the bar by using the left and right arrow keys.</p>\n            <p>when you are determined, press the Enter key.</p>\n          </div>\n          <div class=\"response-circle\">\n            <div class=\"response-fixation\"></div>\n            <div id=\"bar\" class=\"rotating-bar\"></div>\n          </div>\n        </div>\n      ","response":"Enter","trial_type":"html-keyboard-response","trial_index":24,"plugin_version":"2.1.0","time_elapsed":108530,"random_initial_angle":187,"response_angle_css":360,"response_angle_rdk":90,"angular_error_target":3,"angular_error_distractor":-100,"target_direction":87,"target_group":"white","reward_points":9},{"rt":null,"stimulus":"\n          <p style=\"color: #00FF00;\">Your reward: 9 points</p>\n        ","response":null,"trial_type":"html-keyboard-response","trial_index":25,"plugin_version":"2.1.0","time_elapsed":110541},{"rt":null,"stimulus":"<div class=\"fixation\" style=\"font-size: 60px;\">+</div>","response":null,"trial_type":"html-keyboard-response","trial_index":26,"plugin_version":"2.1.0","time_elapsed":111556},{"target_group":"black","target_index":1,"condition_label":"practice","rt":-1,"response":"","correct":false,"choices":"ALL_KEYS","correct_choice":["a"],"trial_duration":2000,"flip_timestamps":[],"response_ends_trial":false,"number_of_apertures":2,"number_of_dots":[67,100],"number_of_sets":1,"coherent_direction":[182,56],"coherence":1,"opposite_coherence":0,"dot_radius":2,"dot_side_length":1,"dot_life":-1,"move_distance":1,"aperture_width":300,"aperture_height":300,"dot_color":["white","black"],"dot_shape":"circle","background_color":"#AAA","RDK_type":3,"aperture_type":2,"reinsert_type":2,"frame_rate":16.733333333333334,"frame_rate_array":[28,6,17,17,16,17,17,17,17,17,16,18,16,16,17,17,16,17,17,17,16,17,17,15,17,17,16,17,16,17,18,16,17,17,16,18,17,17,17,16,17,16,17,17,17,17,16,17,17,17,17,16,17,17,16,17,16,17,17,18,17,16,18,16,16,16,18,17,17,16,17,16,17,17,17,16,17,16,17,16,17,17,17,16,17,16,18,17,15,17,17,17,17,17,17,16,16,17,17,17,17,17,16,17,16,18,17,16,17,17,16,17,17,17,16,17,16,16,18,16],"number_of_frames":120,"aperture_center_x":768,"aperture_center_y":480,"fixation_cross":true,"fixation_cross_width":15,"fixation_cross_height":15,"fixation_cross_color":"#111","fixation_cross_thickness":1,"border":true,"border_thickness":2,"border_color":"transparent","canvas_width":1536,"canvas_height":960,"trial_type":"rdk","trial_index":27,"plugin_version":"2.0.0","time_elapsed":113559,"phase":"practice","target_direction":56,"distractor_direction":182},{"rt":6192,"stimulus":"\n        <div class=\"response-container\">\n          <div class=\"response-instruction\">\n            <p>rotate the bar by using the left and right arrow keys.</p>\n            <p>when you are determined, press the Enter key.</p>\n          </div>\n          <div class=\"response-circle\">\n            <div class=\"response-fixation\"></div>\n            <div id=\"bar\" class=\"rotating-bar\"></div>\n          </div>\n        </div>\n      ","response":"Enter","trial_type":"html-keyboard-response","trial_index":28,"plugin_version":"2.1.0","time_elapsed":119752,"random_initial_angle":47,"response_angle_css":91,"response_angle_rdk":359,"angular_error_target":-57,"angular_error_distractor":177,"target_direction":56,"target_group":"black","reward_points":0},{"rt":null,"stimulus":"\n          <p style=\"color: #FF3333;\">Your reward: 0 points</p>\n        ","response":null,"trial_type":"html-keyboard-response","trial_index":29,"plugin_version":"2.1.0","time_elapsed":121767},{"rt":null,"stimulus":"<div class=\"fixation\" style=\"font-size: 60px;\">+</div>","response":null,"trial_type":"html-keyboard-response","trial_index":30,"plugin_version":"2.1.0","time_elapsed":122774},{"target_group":"white","target_index":0,"condition_label":"practice","rt":-1,"response":"","correct":false,"choices":"ALL_KEYS","correct_choice":["a"],"trial_duration":2000,"flip_timestamps":[],"response_ends_trial":false,"number_of_apertures":2,"number_of_dots":[100,66],"number_of_sets":1,"coherent_direction":[197,326],"coherence":1,"opposite_coherence":0,"dot_radius":2,"dot_side_length":1,"dot_life":-1,"move_distance":1,"aperture_width":300,"aperture_height":300,"dot_color":["white","black"],"dot_shape":"circle","background_color":"#AAA","RDK_type":3,"aperture_type":2,"reinsert_type":2,"frame_rate":16.708333333333332,"frame_rate_array":[16,17,17,17,18,15,18,16,17,17,18,15,17,16,17,17,17,17,16,17,16,17,16,18,16,18,15,17,16,17,17,17,16,17,17,17,17,17,16,17,17,17,17,17,15,17,18,17,16,17,17,17,16,17,17,16,17,17,17,16,16,17,17,15,18,17,17,17,16,17,17,17,16,17,17,17,16,18,17,17,16,17,17,16,17,17,17,16,17,15,18,17,16,16,17,17,16,17,17,17,17,16,17,17,15,17,17,17,16,18,16,16,16,17,17,17,17,16,16,17],"number_of_frames":120,"aperture_center_x":768,"aperture_center_y":480,"fixation_cross":true,"fixation_cross_width":15,"fixation_cross_height":15,"fixation_cross_color":"#111","fixation_cross_thickness":1,"border":true,"border_thickness":2,"border_color":"transparent","canvas_width":1536,"canvas_height":960,"trial_type":"rdk","trial_index":31,"plugin_version":"2.0.0","time_elapsed":124777,"phase":"practice","target_direction":197,"distractor_direction":326},{"rt":6107,"stimulus":"\n        <div class=\"response-container\">\n          <div class=\"response-instruction\">\n            <p>rotate the bar by using the left and right arrow keys.</p>\n            <p>when you are determined, press the Enter key.</p>\n          </div>\n          <div class=\"response-circle\">\n            <div class=\"response-fixation\"></div>\n            <div id=\"bar\" class=\"rotating-bar\"></div>\n          </div>\n        </div>\n      ","response":"Enter","trial_type":"html-keyboard-response","trial_index":32,"plugin_version":"2.1.0","time_elapsed":130885,"random_initial_angle":114,"response_angle_css":-90,"response_angle_rdk":180,"angular_error_target":-17,"angular_error_distractor":-146,"target_direction":197,"target_group":"white","reward_points":6},{"rt":null,"stimulus":"\n          <p style=\"color: #00FF00;\">Your reward: 6 points</p>\n        ","response":null,"trial_type":"html-keyboard-response","trial_index":33,"plugin_version":"2.1.0","time_elapsed":132887},{"rt":null,"stimulus":"<div class=\"fixation\" style=\"font-size: 60px;\">+</div>","response":null,"trial_type":"html-keyboard-response","trial_index":34,"plugin_version":"2.1.0","time_elapsed":133900},{"target_group":"black","target_index":1,"condition_label":"practice","rt":-1,"response":"","correct":false,"choices":"ALL_KEYS","correct_choice":["a"],"trial_duration":2000,"flip_timestamps":[],"response_ends_trial":false,"number_of_apertures":2,"number_of_dots":[55,100],"number_of_sets":1,"coherent_direction":[73,213],"coherence":1,"opposite_coherence":0,"dot_radius":2,"dot_side_length":1,"dot_life":-1,"move_distance":1,"aperture_width":300,"aperture_height":300,"dot_color":["white","black"],"dot_shape":"circle","background_color":"#AAA","RDK_type":3,"aperture_type":2,"reinsert_type":2,"frame_rate":16.80672268907563,"frame_rate_array":[25,14,18,16,16,17,17,17,16,18,16,18,16,16,18,17,17,15,22,13,17,16,17,17,17,17,16,18,21,11,18,16,16,17,17,16,16,17,17,17,15,17,18,17,17,17,17,16,17,17,17,16,17,17,17,17,17,17,16,17,17,17,16,16,17,17,17,16,17,17,17,17,16,16,17,17,17,17,16,18,16,17,16,16,16,17,18,17,15,19,15,17,17,17,17,17,15,18,18,17,16,17,17,15,16,18,17,17,17,16,18,16,17,16,17,17,17,17,17],"number_of_frames":119,"aperture_center_x":768,"aperture_center_y":480,"fixation_cross":true,"fixation_cross_width":15,"fixation_cross_height":15,"fixation_cross_color":"#111","fixation_cross_thickness":1,"border":true,"border_thickness":2,"border_color":"transparent","canvas_width":1536,"canvas_height":960,"trial_type":"rdk","trial_index":35,"plugin_version":"2.0.0","time_elapsed":135905,"phase":"practice","target_direction":213,"distractor_direction":73},{"rt":4765,"stimulus":"\n        <div class=\"response-container\">\n          <div class=\"response-instruction\">\n            <p>rotate the bar by using the left and right arrow keys.</p>\n            <p>when you are determined, press the Enter key.</p>\n          </div>\n          <div class=\"response-circle\">\n            <div class=\"response-fixation\"></div>\n            <div id=\"bar\" class=\"rotating-bar\"></div>\n          </div>\n        </div>\n      ","response":"Enter","trial_type":"html-keyboard-response","trial_index":36,"plugin_version":"2.1.0","time_elapsed":140677,"random_initial_angle":35,"response_angle_css":-131,"response_angle_rdk":221,"angular_error_target":8,"angular_error_distractor":148,"target_direction":213,"target_group":"black","reward_points":8},{"rt":null,"stimulus":"\n          <p style=\"color: #00FF00;\">Your reward: 8 points</p>\n        ","response":null,"trial_type":"html-keyboard-response","trial_index":37,"plugin_version":"2.1.0","time_elapsed":142683},{"rt":null,"stimulus":"<div class=\"fixation\" style=\"font-size: 60px;\">+</div>","response":null,"trial_type":"html-keyboard-response","trial_index":38,"plugin_version":"2.1.0","time_elapsed":143695},{"target_group":"white","target_index":0,"condition_label":"practice","rt":-1,"response":"","correct":false,"choices":"ALL_KEYS","correct_choice":["a"],"trial_duration":2000,"flip_timestamps":[],"response_ends_trial":false,"number_of_apertures":2,"number_of_dots":[100,96],"number_of_sets":1,"coherent_direction":[168,294],"coherence":1,"opposite_coherence":0,"dot_radius":2,"dot_side_length":1,"dot_life":-1,"move_distance":1,"aperture_width":300,"aperture_height":300,"dot_color":["white","black"],"dot_shape":"circle","background_color":"#AAA","RDK_type":3,"aperture_type":2,"reinsert_type":2,"frame_rate":16.675,"frame_rate_array":[16,10,17,17,17,17,17,16,17,17,17,17,17,17,16,17,17,16,17,17,18,16,16,16,18,16,17,17,16,17,17,16,17,16,17,16,17,16,16,18,17,16,17,17,16,17,17,17,17,16,16,18,17,17,16,16,18,17,17,16,17,17,17,17,17,16,17,17,17,15,18,17,17,17,16,16,16,17,17,17,17,17,17,17,17,16,16,17,18,16,17,17,17,17,17,17,17,17,16,16,16,18,17,16,17,17,16,17,17,16,17,17,17,17,15,17,17,17,16,16],"number_of_frames":120,"aperture_center_x":768,"aperture_center_y":480,"fixation_cross":true,"fixation_cross_width":15,"fixation_cross_height":15,"fixation_cross_color":"#111","fixation_cross_thickness":1,"border":true,"border_thickness":2,"border_color":"transparent","canvas_width":1536,"canvas_height":960,"trial_type":"rdk","trial_index":39,"plugin_version":"2.0.0","time_elapsed":145704,"phase":"practice","target_direction":168,"distractor_direction":294},{"rt":2815,"stimulus":"\n        <div class=\"response-container\">\n          <div class=\"response-instruction\">\n            <p>rotate the bar by using the left and right arrow keys.</p>\n            <p>when you are determined, press the Enter key.</p>\n          </div>\n          <div class=\"response-circle\">\n            <div class=\"response-fixation\"></div>\n            <div id=\"bar\" class=\"rotating-bar\"></div>\n          </div>\n        </div>\n      ","response":"Enter","trial_type":"html-keyboard-response","trial_index":40,"plugin_version":"2.1.0","time_elapsed":148520,"random_initial_angle":138,"response_angle_css":138,"response_angle_rdk":312,"angular_error_target":144,"angular_error_distractor":18,"target_direction":168,"target_group":"white","reward_points":0},{"rt":null,"stimulus":"\n          <p style=\"color: #FF3333;\">Your reward: 0 points</p>\n        ","response":null,"trial_type":"html-keyboard-response","trial_index":41,"plugin_version":"2.1.0","time_elapsed":150535},{"rt":null,"stimulus":"<div class=\"fixation\" style=\"font-size: 60px;\">+</div>","response":null,"trial_type":"html-keyboard-response","trial_index":42,"plugin_version":"2.1.0","time_elapsed":151543},{"target_group":"white","target_index":0,"condition_label":"practice","rt":-1,"response":"","correct":false,"choices":"ALL_KEYS","correct_choice":["a"],"trial_duration":2000,"flip_timestamps":[],"response_ends_trial":false,"number_of_apertures":2,"number_of_dots":[100,58],"number_of_sets":1,"coherent_direction":[176,70],"coherence":1,"opposite_coherence":0,"dot_radius":2,"dot_side_length":1,"dot_life":-1,"move_distance":1,"aperture_width":300,"aperture_height":300,"dot_color":["white","black"],"dot_shape":"circle","background_color":"#AAA","RDK_type":3,"aperture_type":2,"reinsert_type":2,"frame_rate":16.725,"frame_rate_array":[30,16,2,15,17,16,17,17,16,17,17,16,17,17,17,17,17,17,15,17,21,13,17,17,16,15,18,17,16,17,17,17,17,17,17,17,16,17,17,16,17,17,17,16,18,16,18,16,16,17,17,17,17,17,17,17,15,17,16,18,17,17,17,17,17,16,17,17,17,17,17,16,17,17,16,17,17,17,17,16,16,17,17,17,17,16,17,17,15,18,17,17,17,17,17,16,16,17,18,15,18,17,17,16,18,17,16,17,17,17,16,17,17,17,17,16,17,15,17,17],"number_of_frames":120,"aperture_center_x":768,"aperture_center_y":480,"fixation_cross":true,"fixation_cross_width":15,"fixation_cross_height":15,"fixation_cross_color":"#111","fixation_cross_thickness":1,"border":true,"border_thickness":2,"border_color":"transparent","canvas_width":1536,"canvas_height":960,"trial_type":"rdk","trial_index":43,"plugin_version":"2.0.0","time_elapsed":153555,"phase":"practice","target_direction":176,"distractor_direction":70},{"rt":5950,"stimulus":"\n        <div class=\"response-container\">\n          <div class=\"response-instruction\">\n            <p>rotate the bar by using the left and right arrow keys.</p>\n            <p>when you are determined, press the Enter key.</p>\n          </div>\n          <div class=\"response-circle\">\n            <div class=\"response-fixation\"></div>\n            <div id=\"bar\" class=\"rotating-bar\"></div>\n          </div>\n        </div>\n      ","response":"Enter","trial_type":"html-keyboard-response","trial_index":44,"plugin_version":"2.1.0","time_elapsed":159506,"random_initial_angle":9,"response_angle_css":-90,"response_angle_rdk":180,"angular_error_target":4,"angular_error_distractor":110,"target_direction":176,"target_group":"white","reward_points":9},{"rt":null,"stimulus":"\n          <p style=\"color: #00FF00;\">Your reward: 9 points</p>\n        ","response":null,"trial_type":"html-keyboard-response","trial_index":45,"plugin_version":"2.1.0","time_elapsed":161518},{"rt":null,"stimulus":"<div class=\"fixation\" style=\"font-size: 60px;\">+</div>","response":null,"trial_type":"html-keyboard-response","trial_index":46,"plugin_version":"2.1.0","time_elapsed":162525},{"target_group":"black","target_index":1,"condition_label":"practice","rt":-1,"response":"","correct":false,"choices":"ALL_KEYS","correct_choice":["a"],"trial_duration":2000,"flip_timestamps":[],"response_ends_trial":false,"number_of_apertures":2,"number_of_dots":[73,100],"number_of_sets":1,"coherent_direction":[170,334],"coherence":1,"opposite_coherence":0,"dot_radius":2,"dot_side_length":1,"dot_life":-1,"move_distance":1,"aperture_width":300,"aperture_height":300,"dot_color":["white","black"],"dot_shape":"circle","background_color":"#AAA","RDK_type":3,"aperture_type":2,"reinsert_type":2,"frame_rate":16.75,"frame_rate_array":[14,17,17,17,17,17,17,17,17,17,16,17,17,15,18,17,17,16,16,17,17,17,17,17,16,17,17,16,18,17,16,16,18,17,17,16,17,16,17,17,17,17,17,17,17,17,17,16,17,16,17,17,17,16,16,17,17,17,16,17,16,17,17,16,18,17,17,16,17,17,17,16,17,17,17,17,17,16,17,17,17,16,17,17,17,16,17,16,17,17,17,16,17,17,18,15,17,17,17,17,16,17,16,17,16,17,17,17,17,17,17,16,18,17,16,17,17,16,16,18],"number_of_frames":120,"aperture_center_x":768,"aperture_center_y":480,"fixation_cross":true,"fixation_cross_width":15,"fixation_cross_height":15,"fixation_cross_color":"#111","fixation_cross_thickness":1,"border":true,"border_thickness":2,"border_color":"transparent","canvas_width":1536,"canvas_height":960,"trial_type":"rdk","trial_index":47,"plugin_version":"2.0.0","time_elapsed":164527,"phase":"practice","target_direction":334,"distractor_direction":170},{"rt":3973,"stimulus":"\n        <div class=\"response-container\">\n          <div class=\"response-instruction\">\n            <p>rotate the bar by using the left and right arrow keys.</p>\n            <p>when you are determined, press the Enter key.</p>\n          </div>\n          <div class=\"response-circle\">\n            <div class=\"response-fixation\"></div>\n            <div id=\"bar\" class=\"rotating-bar\"></div>\n          </div>\n        </div>\n      ","response":"Enter","trial_type":"html-keyboard-response","trial_index":48,"plugin_version":"2.1.0","time_elapsed":168501,"random_initial_angle":62,"response_angle_css":113,"response_angle_rdk":337,"angular_error_target":3,"angular_error_distractor":167,"target_direction":334,"target_group":"black","reward_points":9},{"rt":null,"stimulus":"\n          <p style=\"color: #00FF00;\">Your reward: 9 points</p>\n        ","response":null,"trial_type":"html-keyboard-response","trial_index":49,"plugin_version":"2.1.0","time_elapsed":170515},{"rt":null,"stimulus":"<div class=\"fixation\" style=\"font-size: 60px;\">+</div>","response":null,"trial_type":"html-keyboard-response","trial_index":50,"plugin_version":"2.1.0","time_elapsed":171531},{"target_group":"white","target_index":0,"condition_label":"practice","rt":-1,"response":"","correct":false,"choices":"ALL_KEYS","correct_choice":["a"],"trial_duration":2000,"flip_timestamps":[],"response_ends_trial":false,"number_of_apertures":2,"number_of_dots":[100,64],"number_of_sets":1,"coherent_direction":[12,135],"coherence":1,"opposite_coherence":0,"dot_radius":2,"dot_side_length":1,"dot_life":-1,"move_distance":1,"aperture_width":300,"aperture_height":300,"dot_color":["white","black"],"dot_shape":"circle","background_color":"#AAA","RDK_type":3,"aperture_type":2,"reinsert_type":2,"frame_rate":16.666666666666668,"frame_rate_array":[7,16,18,15,21,13,17,16,16,18,17,16,17,17,17,17,17,16,17,16,17,16,16,18,16,16,17,18,16,17,16,17,17,17,17,17,17,17,17,16,18,17,16,17,17,17,17,16,16,17,17,16,17,17,16,17,17,16,18,16,17,17,16,17,23,11,17,16,17,17,16,18,17,17,17,16,17,17,16,16,18,17,17,17,17,15,18,17,16,17,17,17,17,17,16,17,17,17,16,17,16,17,17,16,17,17,17,16,17,17,17,17,17,17,17,16,16,17,17,16],"number_of_frames":120,"aperture_center_x":768,"aperture_center_y":480,"fixation_cross":true,"fixation_cross_width":15,"fixation_cross_height":15,"fixation_cross_color":"#111","fixation_cross_thickness":1,"border":true,"border_thickness":2,"border_color":"transparent","canvas_width":1536,"canvas_height":960,"trial_type":"rdk","trial_index":51,"plugin_version":"2.0.0","time_elapsed":173537,"phase":"practice","target_direction":12,"distractor_direction":135},{"rt":3413,"stimulus":"\n        <div class=\"response-container\">\n          <div class=\"response-instruction\">\n            <p>rotate the bar by using the left and right arrow keys.</p>\n            <p>when you are determined, press the Enter key.</p>\n          </div>\n          <div class=\"response-circle\">\n            <div class=\"response-fixation\"></div>\n            <div id=\"bar\" class=\"rotating-bar\"></div>\n          </div>\n        </div>\n      ","response":"Enter","trial_type":"html-keyboard-response","trial_index":52,"plugin_version":"2.1.0","time_elapsed":176951,"random_initial_angle":296,"response_angle_css":303,"response_angle_rdk":147,"angular_error_target":135,"angular_error_distractor":12,"target_direction":12,"target_group":"white","reward_points":0},{"rt":null,"stimulus":"\n          <p style=\"color: #FF3333;\">Your reward: 0 points</p>\n        ","response":null,"trial_type":"html-keyboard-response","trial_index":53,"plugin_version":"2.1.0","time_elapsed":178954},{"rt":null,"stimulus":"<div class=\"fixation\" style=\"font-size: 60px;\">+</div>","response":null,"trial_type":"html-keyboard-response","trial_index":54,"plugin_version":"2.1.0","time_elapsed":179963},{"target_group":"white","target_index":0,"condition_label":"practice","rt":-1,"response":"","correct":false,"choices":"ALL_KEYS","correct_choice":["a"],"trial_duration":2000,"flip_timestamps":[],"response_ends_trial":false,"number_of_apertures":2,"number_of_dots":[100,90],"number_of_sets":1,"coherent_direction":[44,165],"coherence":1,"opposite_coherence":0,"dot_radius":2,"dot_side_length":1,"dot_life":-1,"move_distance":1,"aperture_width":300,"aperture_height":300,"dot_color":["white","black"],"dot_shape":"circle","background_color":"#AAA","RDK_type":3,"aperture_type":2,"reinsert_type":2,"frame_rate":16.840336134453782,"frame_rate_array":[29,13,17,17,16,18,15,17,17,18,17,17,16,17,17,16,16,17,17,17,18,16,18,16,16,16,18,17,16,17,18,17,16,17,17,17,17,17,17,17,16,17,16,17,17,17,17,16,18,17,17,17,16,16,17,16,17,16,18,16,18,16,16,17,16,17,17,17,17,17,16,17,17,17,17,16,17,17,16,17,17,17,16,18,16,17,17,16,16,16,18,17,16,17,17,15,18,17,17,16,16,17,17,17,17,17,17,17,16,16,18,16,17,16,17,17,16,17,18],"number_of_frames":119,"aperture_center_x":768,"aperture_center_y":480,"fixation_cross":true,"fixation_cross_width":15,"fixation_cross_height":15,"fixation_cross_color":"#111","fixation_cross_thickness":1,"border":true,"border_thickness":2,"border_color":"transparent","canvas_width":1536,"canvas_height":960,"trial_type":"rdk","trial_index":55,"plugin_version":"2.0.0","time_elapsed":181969,"phase":"practice","target_direction":44,"distractor_direction":165},{"rt":3108,"stimulus":"\n        <div class=\"response-container\">\n          <div class=\"response-instruction\">\n            <p>rotate the bar by using the left and right arrow keys.</p>\n            <p>when you are determined, press the Enter key.</p>\n          </div>\n          <div class=\"response-circle\">\n            <div class=\"response-fixation\"></div>\n            <div id=\"bar\" class=\"rotating-bar\"></div>\n          </div>\n        </div>\n      ","response":"Enter","trial_type":"html-keyboard-response","trial_index":56,"plugin_version":"2.1.0","time_elapsed":185077,"random_initial_angle":275,"response_angle_css":400,"response_angle_rdk":50,"angular_error_target":6,"angular_error_distractor":-115,"target_direction":44,"target_group":"white","reward_points":8},{"rt":null,"stimulus":"\n          <p style=\"color: #00FF00;\">Your reward: 8 points</p>\n        ","response":null,"trial_type":"html-keyboard-response","trial_index":57,"plugin_version":"2.1.0","time_elapsed":187090},{"rt":null,"stimulus":"<div class=\"fixation\" style=\"font-size: 60px;\">+</div>","response":null,"trial_type":"html-keyboard-response","trial_index":58,"plugin_version":"2.1.0","time_elapsed":188097},{"target_group":"black","target_index":1,"condition_label":"practice","rt":-1,"response":"","correct":false,"choices":"ALL_KEYS","correct_choice":["a"],"trial_duration":2000,"flip_timestamps":[],"response_ends_trial":false,"number_of_apertures":2,"number_of_dots":[61,100],"number_of_sets":1,"coherent_direction":[234,122],"coherence":1,"opposite_coherence":0,"dot_radius":2,"dot_side_length":1,"dot_life":-1,"move_distance":1,"aperture_width":300,"aperture_height":300,"dot_color":["white","black"],"dot_shape":"circle","background_color":"#AAA","RDK_type":3,"aperture_type":2,"reinsert_type":2,"frame_rate":16.80672268907563,"frame_rate_array":[40,2,16,17,17,17,17,17,16,17,16,17,17,16,17,17,17,17,16,16,17,17,17,17,17,16,17,16,17,17,17,17,17,17,17,17,18,14,17,16,18,17,15,17,18,17,16,17,16,16,16,17,16,17,17,17,16,17,17,16,18,22,10,17,17,17,17,16,17,17,17,17,16,17,17,16,17,17,17,16,17,16,18,17,16,18,17,16,16,17,17,17,17,17,16,17,17,16,17,18,16,17,17,17,17,17,16,17,17,17,16,17,16,17,17,17,17,16,17],"number_of_frames":119,"aperture_center_x":768,"aperture_center_y":480,"fixation_cross":true,"fixation_cross_width":15,"fixation_cross_height":15,"fixation_cross_color":"#111","fixation_cross_thickness":1,"border":true,"border_thickness":2,"border_color":"transparent","canvas_width":1536,"canvas_height":960,"trial_type":"rdk","trial_index":59,"plugin_version":"2.0.0","time_elapsed":190102,"phase":"practice","target_direction":122,"distractor_direction":234},{"rt":5314,"stimulus":"\n        <div class=\"response-container\">\n          <div class=\"response-instruction\">\n            <p>rotate the bar by using the left and right arrow keys.</p>\n            <p>when you are determined, press the Enter key.</p>\n          </div>\n          <div class=\"response-circle\">\n            <div class=\"response-fixation\"></div>\n            <div id=\"bar\" class=\"rotating-bar\"></div>\n          </div>\n        </div>\n      ","response":"Enter","trial_type":"html-keyboard-response","trial_index":60,"plugin_version":"2.1.0","time_elapsed":195417,"random_initial_angle":87,"response_angle_css":0,"response_angle_rdk":90,"angular_error_target":-32,"angular_error_distractor":-144,"target_direction":122,"target_group":"black","reward_points":3},{"rt":null,"stimulus":"\n          <p style=\"color: #00FF00;\">Your reward: 3 points</p>\n        ","response":null,"trial_type":"html-keyboard-response","trial_index":61,"plugin_version":"2.1.0","time_elapsed":197418},{"rt":null,"stimulus":"<div class=\"fixation\" style=\"font-size: 60px;\">+</div>","response":null,"trial_type":"html-keyboard-response","trial_index":62,"plugin_version":"2.1.0","time_elapsed":198424},{"target_group":"white","target_index":0,"condition_label":"practice","rt":-1,"response":"","correct":false,"choices":"ALL_KEYS","correct_choice":["a"],"trial_duration":2000,"flip_timestamps":[],"response_ends_trial":false,"number_of_apertures":2,"number_of_dots":[100,96],"number_of_sets":1,"coherent_direction":[32,227],"coherence":1,"opposite_coherence":0,"dot_radius":2,"dot_side_length":1,"dot_life":-1,"move_distance":1,"aperture_width":300,"aperture_height":300,"dot_color":["white","black"],"dot_shape":"circle","background_color":"#AAA","RDK_type":3,"aperture_type":2,"reinsert_type":2,"frame_rate":16.725,"frame_rate_array":[22,9,17,16,17,18,16,17,17,17,17,17,17,17,17,16,16,17,16,17,17,17,17,15,17,17,17,17,16,16,17,17,16,18,17,17,16,17,16,17,17,17,16,17,18,17,16,17,16,16,18,17,16,18,15,16,17,18,18,15,16,17,18,17,16,16,17,17,17,17,16,16,18,17,17,16,18,16,17,17,17,17,17,17,16,17,18,15,17,17,16,17,17,17,17,16,16,17,17,16,17,16,17,17,17,16,17,17,17,16,19,14,17,17,17,17,17,17,16,17],"number_of_frames":120,"aperture_center_x":768,"aperture_center_y":480,"fixation_cross":true,"fixation_cross_width":15,"fixation_cross_height":15,"fixation_cross_color":"#111","fixation_cross_thickness":1,"border":true,"border_thickness":2,"border_color":"transparent","canvas_width":1536,"canvas_height":960,"trial_type":"rdk","trial_index":63,"plugin_version":"2.0.0","time_elapsed":200433,"phase":"practice","target_direction":32,"distractor_direction":227},{"rt":2974,"stimulus":"\n        <div class=\"response-container\">\n          <div class=\"response-instruction\">\n            <p>rotate the bar by using the left and right arrow keys.</p>\n            <p>when you are determined, press the Enter key.</p>\n          </div>\n          <div class=\"response-circle\">\n            <div class=\"response-fixation\"></div>\n            <div id=\"bar\" class=\"rotating-bar\"></div>\n          </div>\n        </div>\n      ","response":"Enter","trial_type":"html-keyboard-response","trial_index":64,"plugin_version":"2.1.0","time_elapsed":203409,"random_initial_angle":201,"response_angle_css":210,"response_angle_rdk":240,"angular_error_target":-152,"angular_error_distractor":13,"target_direction":32,"target_group":"white","reward_points":0},{"rt":null,"stimulus":"\n          <p style=\"color: #FF3333;\">Your reward: 0 points</p>\n        ","response":null,"trial_type":"html-keyboard-response","trial_index":65,"plugin_version":"2.1.0","time_elapsed":205415},{"rt":6241,"stimulus":"\n        <div class=\"instructions-container\">\n          <h2>End of Practice</h2>\n          <p>You have completed the practice trials.</p>\n          <p>Press <strong>Enter</strong> key to begin the main experiment.</p>\n        </div>\n      ","response":"Enter","trial_type":"html-keyboard-response","trial_index":66,"plugin_version":"2.1.0","time_elapsed":211657},{"rt":null,"stimulus":"<div class=\"fixation\" style=\"font-size: 60px;\">+</div>","response":null,"trial_type":"html-keyboard-response","trial_index":67,"plugin_version":"2.1.0","time_elapsed":212670},{"phase":"learning-awareness","target_group":"black","condition_label":"B_H_vs_W_L_rep23","target_direction":196,"distractor_direction":326,"session_rotation":104,"rt":-1,"response":"","correct":false,"choices":"ALL_KEYS","correct_choice":["a"],"trial_duration":2000,"flip_timestamps":[],"response_ends_trial":false,"number_of_apertures":200,"number_of_dots":[1,1,1,1,1,1,1,1,1,1,1,1,1,1,1,1,1,1,1,1,1,1,1,1,1,1,1,1,1,1,1,1,1,1,1,1,1,1,1,1,1,1,1,1,1,1,1,1,1,1,1,1,1,1,1,1,1,1,1,1,1,1,1,1,1,1,1,1,1,1,1,1,1,1,1,1,1,1,1,1,1,1,1,1,1,1,1,1,1,1,1,1,1,1,1,1,1,1,1,1,1,1,1,1,1,1,1,1,1,1,1,1,1,1,1,1,1,1,1,1,1,1,1,1,1,1,1,1,1,1,1,1,1,1,1,1,1,1,1,1,1,1,1,1,1,1,1,1,1,1,1,1,1,1,1,1,1,1,1,1,1,1,1,1,1,1,1,1,1,1,1,1,1,1,1,1,1,1,1,1,1,1,1,1,1,1,1,1,1,1,1,1,1,1,1,1,1,1,1,1],"number_of_sets":1,"coherent_direction":[326,326,196,326,196,196,196,196,326,326,196,196,196,326,326,196,196,326,326,326,326,196,196,326,326,326,196,196,326,196,196,326,326,326,326,196,196,326,326,196,196,326,326,326,326,196,196,326,326,196,196,326,196,196,326,196,326,326,326,326,326,196,196,196,326,326,196,196,196,196,326,326,196,196,196,326,196,326,326,326,196,326,326,196,326,196,196,196,196,326,326,196,196,196,196,326,326,196,326,196,326,196,326,326,326,196,196,196,326,326,326,326,326,196,196,196,196,196,326,196,196,196,326,196,326,196,326,196,326,326,326,196,326,326,196,326,196,196,326,326,196,196,196,326,196,196,196,196,196,196,196,326,326,196,326,196,326,326,196,326,196,196,196,326,196,326,326,326,326,196,196,326,196,326,326,326,326,196,326,326,326,326,326,196,196,196,326,326,326,196,196,196,326,196,196,196,326,326,196,326],"coherence":1,"opposite_coherence":0,"dot_radius":2,"dot_side_length":1,"dot_life":-1,"move_distance":1,"aperture_width":300,"aperture_height":300,"dot_color":["white","white","black","white","black","black","black","black","white","white","black","black","black","white","white","black","black","white","white","white","white","black","black","white","white","white","black","black","white","black","black","white","white","white","white","black","black","white","white","black","black","white","white","white","white","black","black","white","white","black","black","white","black","black","white","black","white","white","white","white","white","black","black","black","white","white","black","black","black","black","white","white","black","black","black","white","black","white","white","white","black","white","white","black","white","black","black","black","black","white","white","black","black","black","black","white","white","black","white","black","white","black","white","white","white","black","black","black","white","white","white","white","white","black","black","black","black","black","white","black","black","black","white","black","white","black","white","black","white","white","white","black","white","white","black","white","black","black","white","white","black","black","black","white","black","black","black","black","black","black","black","white","white","black","white","black","white","white","black","white","black","black","black","white","black","white","white","white","white","black","black","white","black","white","white","white","white","black","white","white","white","white","white","black","black","black","white","white","white","black","black","black","white","black","black","black","white","white","black","white"],"dot_shape":"circle","background_color":"#AAA","RDK_type":3,"aperture_type":2,"reinsert_type":2,"frame_rate":16.708333333333332,"frame_rate_array":[25,8,17,16,17,17,17,15,19,16,17,16,17,16,17,17,16,18,15,16,17,17,16,18,17,16,17,16,18,16,17,17,16,17,16,17,17,17,15,19,16,17,17,16,17,17,17,17,16,17,15,17,18,17,17,17,16,17,16,17,18,15,18,17,17,16,16,17,16,17,17,17,16,17,16,16,18,16,17,17,16,17,16,16,18,17,16,17,17,17,16,16,17,17,17,16,17,16,18,17,17,17,17,17,17,17,16,17,17,17,15,18,17,16,17,16,17,17,17,16],"number_of_frames":120,"aperture_center_x":768,"aperture_center_y":480,"fixation_cross":true,"fixation_cross_width":15,"fixation_cross_height":15,"fixation_cross_color":"#111","fixation_cross_thickness":1,"border":true,"border_thickness":2,"border_color":"transparent","canvas_width":1536,"canvas_height":960,"trial_type":"rdk","trial_index":68,"plugin_version":"2.0.0","time_elapsed":214674},{"rt":6365,"stimulus":"\n        <div class=\"response-container\">\n          <div class=\"response-instruction\">\n            <p>rotate the bar by using the left and right arrow keys.</p>\n            <p>when you are determined, press the Enter key.</p>\n          </div>\n          <div class=\"response-circle\">\n            <div class=\"response-fixation\"></div>\n            <div id=\"bar\" class=\"rotating-bar\"></div>\n          </div>\n        </div>\n      ","response":"Enter","trial_type":"html-keyboard-response","trial_index":69,"plugin_version":"2.1.0","time_elapsed":221041,"random_initial_angle":41,"response_angle_css":138,"response_angle_rdk":312,"angular_error_target":116,"angular_error_distractor":-14,"target_direction":196,"target_group":"black","reward_points":0},{"rt":null,"stimulus":"\n          <p style=\"color: #FF3333;\">Your reward: 0 points</p>\n        ","response":null,"trial_type":"html-keyboard-response","trial_index":70,"plugin_version":"2.1.0","time_elapsed":223053},{"rt":null,"stimulus":"<div class=\"fixation\" style=\"font-size: 60px;\">+</div>","response":null,"trial_type":"html-keyboard-response","trial_index":71,"plugin_version":"2.1.0","time_elapsed":224069},{"phase":"learning-awareness","target_group":"white","condition_label":"W_H_vs_B_L_rep1","target_direction":138,"distractor_direction":30,"session_rotation":104,"rt":-1,"response":"","correct":false,"choices":"ALL_KEYS","correct_choice":["a"],"trial_duration":2000,"flip_timestamps":[],"response_ends_trial":false,"number_of_apertures":200,"number_of_dots":[1,1,1,1,1,1,1,1,1,1,1,1,1,1,1,1,1,1,1,1,1,1,1,1,1,1,1,1,1,1,1,1,1,1,1,1,1,1,1,1,1,1,1,1,1,1,1,1,1,1,1,1,1,1,1,1,1,1,1,1,1,1,1,1,1,1,1,1,1,1,1,1,1,1,1,1,1,1,1,1,1,1,1,1,1,1,1,1,1,1,1,1,1,1,1,1,1,1,1,1,1,1,1,1,1,1,1,1,1,1,1,1,1,1,1,1,1,1,1,1,1,1,1,1,1,1,1,1,1,1,1,1,1,1,1,1,1,1,1,1,1,1,1,1,1,1,1,1,1,1,1,1,1,1,1,1,1,1,1,1,1,1,1,1,1,1,1,1,1,1,1,1,1,1,1,1,1,1,1,1,1,1,1,1,1,1,1,1,1,1,1,1,1,1,1,1,1,1,1,1],"number_of_sets":1,"coherent_direction":[30,30,30,138,30,30,138,30,30,138,30,30,138,138,138,138,138,30,30,138,138,30,138,138,30,138,30,30,138,138,138,138,138,30,30,30,30,30,30,138,30,30,30,138,30,30,30,138,138,138,138,138,30,30,30,30,30,138,30,138,30,138,30,30,30,30,138,138,30,138,30,30,30,30,138,138,138,30,138,30,138,138,30,138,138,30,138,138,138,138,30,30,30,138,30,30,138,138,30,30,138,30,30,30,138,30,138,138,138,30,30,138,30,138,138,30,138,30,138,30,138,138,138,138,138,138,138,138,30,30,30,138,30,138,30,30,138,30,138,138,138,138,138,138,138,138,138,138,30,30,138,138,30,30,138,30,30,30,138,138,138,30,138,30,30,30,30,30,30,138,30,30,30,30,30,30,30,30,138,138,138,138,138,138,138,30,30,30,138,138,138,138,30,30,138,138,138,30,138,30],"coherence":1,"opposite_coherence":0,"dot_radius":2,"dot_side_length":1,"dot_life":-1,"move_distance":1,"aperture_width":300,"aperture_height":300,"dot_color":["black","black","black","white","black","black","white","black","black","white","black","black","white","white","white","white","white","black","black","white","white","black","white","white","black","white","black","black","white","white","white","white","white","black","black","black","black","black","black","white","black","black","black","white","black","black","black","white","white","white","white","white","black","black","black","black","black","white","black","white","black","white","black","black","black","black","white","white","black","white","black","black","black","black","white","white","white","black","white","black","white","white","black","white","white","black","white","white","white","white","black","black","black","white","black","black","white","white","black","black","white","black","black","black","white","black","white","white","white","black","black","white","black","white","white","black","white","black","white","black","white","white","white","white","white","white","white","white","black","black","black","white","black","white","black","black","white","black","white","white","white","white","white","white","white","white","white","white","black","black","white","white","black","black","white","black","black","black","white","white","white","black","white","black","black","black","black","black","black","white","black","black","black","black","black","black","black","black","white","white","white","white","white","white","white","black","black","black","white","white","white","white","black","black","white","white","white","black","white","black"],"dot_shape":"circle","background_color":"#AAA","RDK_type":3,"aperture_type":2,"reinsert_type":2,"frame_rate":16.725,"frame_rate_array":[26,6,18,17,17,17,17,16,16,17,16,18,17,17,17,16,17,17,17,16,16,17,19,16,16,16,18,16,16,18,16,17,16,17,16,17,17,17,16,17,17,17,16,17,16,16,17,17,16,17,17,16,16,18,16,17,16,17,18,15,16,18,17,17,17,17,16,16,17,17,17,16,18,17,17,17,16,17,17,16,17,16,17,15,18,17,16,17,16,17,16,16,16,18,17,17,16,17,17,16,17,18,17,17,16,17,17,17,16,17,17,17,17,17,16,18,17,17,16,17],"number_of_frames":120,"aperture_center_x":768,"aperture_center_y":480,"fixation_cross":true,"fixation_cross_width":15,"fixation_cross_height":15,"fixation_cross_color":"#111","fixation_cross_thickness":1,"border":true,"border_thickness":2,"border_color":"transparent","canvas_width":1536,"canvas_height":960,"trial_type":"rdk","trial_index":72,"plugin_version":"2.0.0","time_elapsed":226074},{"rt":6817,"stimulus":"\n        <div class=\"response-container\">\n          <div class=\"response-instruction\">\n            <p>rotate the bar by using the left and right arrow keys.</p>\n            <p>when you are determined, press the Enter key.</p>\n          </div>\n          <div class=\"response-circle\">\n            <div class=\"response-fixation\"></div>\n            <div id=\"bar\" class=\"rotating-bar\"></div>\n          </div>\n        </div>\n      ","response":"Enter","trial_type":"html-keyboard-response","trial_index":73,"plugin_version":"2.1.0","time_elapsed":232892,"random_initial_angle":131,"response_angle_css":89,"response_angle_rdk":1,"angular_error_target":-137,"angular_error_distractor":-29,"target_direction":138,"target_group":"white","reward_points":0},{"rt":null,"stimulus":"\n          <p style=\"color: #FF3333;\">Your reward: 0 points</p>\n        ","response":null,"trial_type":"html-keyboard-response","trial_index":74,"plugin_version":"2.1.0","time_elapsed":234904},{"rt":null,"stimulus":"<div class=\"fixation\" style=\"font-size: 60px;\">+</div>","response":null,"trial_type":"html-keyboard-response","trial_index":75,"plugin_version":"2.1.0","time_elapsed":235907},{"phase":"learning-awareness","target_group":"white","condition_label":"W_H_vs_B_L_rep23","target_direction":144,"distractor_direction":43,"session_rotation":104,"rt":-1,"response":"","correct":false,"choices":"ALL_KEYS","correct_choice":["a"],"trial_duration":2000,"flip_timestamps":[],"response_ends_trial":false,"number_of_apertures":200,"number_of_dots":[1,1,1,1,1,1,1,1,1,1,1,1,1,1,1,1,1,1,1,1,1,1,1,1,1,1,1,1,1,1,1,1,1,1,1,1,1,1,1,1,1,1,1,1,1,1,1,1,1,1,1,1,1,1,1,1,1,1,1,1,1,1,1,1,1,1,1,1,1,1,1,1,1,1,1,1,1,1,1,1,1,1,1,1,1,1,1,1,1,1,1,1,1,1,1,1,1,1,1,1,1,1,1,1,1,1,1,1,1,1,1,1,1,1,1,1,1,1,1,1,1,1,1,1,1,1,1,1,1,1,1,1,1,1,1,1,1,1,1,1,1,1,1,1,1,1,1,1,1,1,1,1,1,1,1,1,1,1,1,1,1,1,1,1,1,1,1,1,1,1,1,1,1,1,1,1,1,1,1,1,1,1,1,1,1,1,1,1,1,1,1,1,1,1,1,1,1,1,1,1],"number_of_sets":1,"coherent_direction":[144,43,144,43,43,144,144,144,144,144,144,43,144,43,43,43,144,43,144,43,43,43,43,144,43,43,43,43,43,144,144,43,144,144,43,144,144,43,144,144,43,144,144,144,43,144,144,43,43,43,144,43,43,144,43,43,43,144,144,144,43,144,144,144,144,144,43,144,144,144,43,43,144,144,144,43,43,43,144,43,144,43,144,144,144,43,43,43,43,43,144,43,144,43,144,43,144,144,144,144,144,144,43,43,43,43,43,144,43,43,43,43,144,43,43,144,144,144,43,144,144,43,43,43,144,144,144,43,144,43,43,144,43,144,43,43,43,144,144,43,144,144,43,144,43,43,144,144,144,144,43,144,43,144,43,43,43,144,144,144,144,43,144,144,144,144,43,43,43,144,43,43,43,144,43,43,144,144,43,43,43,43,144,43,43,144,43,144,43,43,144,144,43,43,43,144,144,144,43,144],"coherence":1,"opposite_coherence":0,"dot_radius":2,"dot_side_length":1,"dot_life":-1,"move_distance":1,"aperture_width":300,"aperture_height":300,"dot_color":["white","black","white","black","black","white","white","white","white","white","white","black","white","black","black","black","white","black","white","black","black","black","black","white","black","black","black","black","black","white","white","black","white","white","black","white","white","black","white","white","black","white","white","white","black","white","white","black","black","black","white","black","black","white","black","black","black","white","white","white","black","white","white","white","white","white","black","white","white","white","black","black","white","white","white","black","black","black","white","black","white","black","white","white","white","black","black","black","black","black","white","black","white","black","white","black","white","white","white","white","white","white","black","black","black","black","black","white","black","black","black","black","white","black","black","white","white","white","black","white","white","black","black","black","white","white","white","black","white","black","black","white","black","white","black","black","black","white","white","black","white","white","black","white","black","black","white","white","white","white","black","white","black","white","black","black","black","white","white","white","white","black","white","white","white","white","black","black","black","white","black","black","black","white","black","black","white","white","black","black","black","black","white","black","black","white","black","white","black","black","white","white","black","black","black","white","white","white","black","white"],"dot_shape":"circle","background_color":"#AAA","RDK_type":3,"aperture_type":2,"reinsert_type":2,"frame_rate":16.716666666666665,"frame_rate_array":[26,3,16,17,17,17,16,17,16,16,18,16,17,16,16,18,17,17,17,16,16,16,17,18,17,17,15,17,18,16,17,16,17,17,17,17,17,16,17,17,16,17,17,16,18,15,17,18,17,17,16,17,16,17,17,17,17,17,16,17,17,17,16,18,16,17,17,17,17,17,17,17,16,17,16,17,17,16,16,18,16,18,17,17,16,17,16,17,17,17,17,15,18,16,17,16,17,17,16,18,17,17,16,17,18,16,17,17,17,16,16,17,17,17,18,17,16,16,17,17],"number_of_frames":120,"aperture_center_x":768,"aperture_center_y":480,"fixation_cross":true,"fixation_cross_width":15,"fixation_cross_height":15,"fixation_cross_color":"#111","fixation_cross_thickness":1,"border":true,"border_thickness":2,"border_color":"transparent","canvas_width":1536,"canvas_height":960,"trial_type":"rdk","trial_index":76,"plugin_version":"2.0.0","time_elapsed":237918},{"rt":7412,"stimulus":"\n        <div class=\"response-container\">\n          <div class=\"response-instruction\">\n            <p>rotate the bar by using the left and right arrow keys.</p>\n            <p>when you are determined, press the Enter key.</p>\n          </div>\n          <div class=\"response-circle\">\n            <div class=\"response-fixation\"></div>\n            <div id=\"bar\" class=\"rotating-bar\"></div>\n          </div>\n        </div>\n      ","response":"Enter","trial_type":"html-keyboard-response","trial_index":77,"plugin_version":"2.1.0","time_elapsed":245331,"random_initial_angle":105,"response_angle_css":-92,"response_angle_rdk":182,"angular_error_target":38,"angular_error_distractor":139,"target_direction":144,"target_group":"white","reward_points":2},{"rt":null,"stimulus":"\n          <p style=\"color: #FF3333;\">Your reward: 2 points</p>\n        ","response":null,"trial_type":"html-keyboard-response","trial_index":78,"plugin_version":"2.1.0","time_elapsed":247333},{"rt":null,"stimulus":"<div class=\"fixation\" style=\"font-size: 60px;\">+</div>","response":null,"trial_type":"html-keyboard-response","trial_index":79,"plugin_version":"2.1.0","time_elapsed":248339},{"phase":"learning-awareness","target_group":"black","condition_label":"B_H_vs_W_L_rep4","target_direction":213,"distractor_direction":306,"session_rotation":104,"rt":-1,"response":"","correct":false,"choices":"ALL_KEYS","correct_choice":["a"],"trial_duration":2000,"flip_timestamps":[],"response_ends_trial":false,"number_of_apertures":200,"number_of_dots":[1,1,1,1,1,1,1,1,1,1,1,1,1,1,1,1,1,1,1,1,1,1,1,1,1,1,1,1,1,1,1,1,1,1,1,1,1,1,1,1,1,1,1,1,1,1,1,1,1,1,1,1,1,1,1,1,1,1,1,1,1,1,1,1,1,1,1,1,1,1,1,1,1,1,1,1,1,1,1,1,1,1,1,1,1,1,1,1,1,1,1,1,1,1,1,1,1,1,1,1,1,1,1,1,1,1,1,1,1,1,1,1,1,1,1,1,1,1,1,1,1,1,1,1,1,1,1,1,1,1,1,1,1,1,1,1,1,1,1,1,1,1,1,1,1,1,1,1,1,1,1,1,1,1,1,1,1,1,1,1,1,1,1,1,1,1,1,1,1,1,1,1,1,1,1,1,1,1,1,1,1,1,1,1,1,1,1,1,1,1,1,1,1,1,1,1,1,1,1,1],"number_of_sets":1,"coherent_direction":[213,306,306,213,306,213,213,306,306,306,306,213,306,213,306,306,213,306,306,213,213,213,213,306,213,306,213,213,213,213,306,213,306,306,213,306,213,306,306,306,213,306,306,213,213,213,306,213,213,306,213,306,213,213,213,213,306,213,306,306,306,306,213,213,306,213,213,213,306,306,213,306,213,213,306,306,213,306,213,306,306,213,306,306,213,306,306,306,213,213,213,213,306,213,213,213,306,306,306,306,306,306,306,306,306,306,213,306,213,306,306,213,213,213,306,213,213,306,306,306,213,306,306,213,306,213,306,306,213,213,213,306,213,213,306,213,213,306,213,306,213,306,213,213,306,213,213,213,213,306,306,213,213,306,306,306,306,213,306,213,213,306,213,213,306,306,213,306,306,306,306,306,306,213,306,213,213,213,306,213,213,213,213,306,213,306,306,306,213,213,306,213,213,213,213,213,306,213,306,306],"coherence":1,"opposite_coherence":0,"dot_radius":2,"dot_side_length":1,"dot_life":-1,"move_distance":1,"aperture_width":300,"aperture_height":300,"dot_color":["black","white","white","black","white","black","black","white","white","white","white","black","white","black","white","white","black","white","white","black","black","black","black","white","black","white","black","black","black","black","white","black","white","white","black","white","black","white","white","white","black","white","white","black","black","black","white","black","black","white","black","white","black","black","black","black","white","black","white","white","white","white","black","black","white","black","black","black","white","white","black","white","black","black","white","white","black","white","black","white","white","black","white","white","black","white","white","white","black","black","black","black","white","black","black","black","white","white","white","white","white","white","white","white","white","white","black","white","black","white","white","black","black","black","white","black","black","white","white","white","black","white","white","black","white","black","white","white","black","black","black","white","black","black","white","black","black","white","black","white","black","white","black","black","white","black","black","black","black","white","white","black","black","white","white","white","white","black","white","black","black","white","black","black","white","white","black","white","white","white","white","white","white","black","white","black","black","black","white","black","black","black","black","white","black","white","white","white","black","black","white","black","black","black","black","black","white","black","white","white"],"dot_shape":"circle","background_color":"#AAA","RDK_type":3,"aperture_type":2,"reinsert_type":2,"frame_rate":16.857142857142858,"frame_rate_array":[39,6,17,18,16,17,16,17,17,16,16,17,17,18,15,17,17,17,18,16,16,18,15,17,15,18,18,17,16,17,18,16,17,17,17,16,16,18,16,17,16,16,17,17,18,17,16,17,17,17,17,17,16,15,18,16,17,17,17,17,17,17,17,17,16,17,16,17,16,17,16,18,17,15,17,18,17,17,17,16,17,17,17,17,16,18,16,16,17,17,17,17,16,16,17,16,16,18,17,15,18,17,17,17,17,17,16,17,17,17,16,17,16,17,16,18,17,17,17],"number_of_frames":119,"aperture_center_x":768,"aperture_center_y":480,"fixation_cross":true,"fixation_cross_width":15,"fixation_cross_height":15,"fixation_cross_color":"#111","fixation_cross_thickness":1,"border":true,"border_thickness":2,"border_color":"transparent","canvas_width":1536,"canvas_height":960,"trial_type":"rdk","trial_index":80,"plugin_version":"2.0.0","time_elapsed":250353},{"rt":3861,"stimulus":"\n        <div class=\"response-container\">\n          <div class=\"response-instruction\">\n            <p>rotate the bar by using the left and right arrow keys.</p>\n            <p>when you are determined, press the Enter key.</p>\n          </div>\n          <div class=\"response-circle\">\n            <div class=\"response-fixation\"></div>\n            <div id=\"bar\" class=\"rotating-bar\"></div>\n          </div>\n        </div>\n      ","response":"Enter","trial_type":"html-keyboard-response","trial_index":81,"plugin_version":"2.1.0","time_elapsed":254215,"random_initial_angle":234,"response_angle_css":178,"response_angle_rdk":272,"angular_error_target":59,"angular_error_distractor":-34,"target_direction":213,"target_group":"black","reward_points":0},{"rt":null,"stimulus":"\n          <p style=\"color: #FF3333;\">Your reward: 0 points</p>\n        ","response":null,"trial_type":"html-keyboard-response","trial_index":82,"plugin_version":"2.1.0","time_elapsed":256227},{"rt":null,"stimulus":"<div class=\"fixation\" style=\"font-size: 60px;\">+</div>","response":null,"trial_type":"html-keyboard-response","trial_index":83,"plugin_version":"2.1.0","time_elapsed":257230},{"phase":"learning-awareness","target_group":"white","condition_label":"W_H_vs_B_L_rep21","target_direction":147,"distractor_direction":56,"session_rotation":104,"rt":-1,"response":"","correct":false,"choices":"ALL_KEYS","correct_choice":["a"],"trial_duration":2000,"flip_timestamps":[],"response_ends_trial":false,"number_of_apertures":200,"number_of_dots":[1,1,1,1,1,1,1,1,1,1,1,1,1,1,1,1,1,1,1,1,1,1,1,1,1,1,1,1,1,1,1,1,1,1,1,1,1,1,1,1,1,1,1,1,1,1,1,1,1,1,1,1,1,1,1,1,1,1,1,1,1,1,1,1,1,1,1,1,1,1,1,1,1,1,1,1,1,1,1,1,1,1,1,1,1,1,1,1,1,1,1,1,1,1,1,1,1,1,1,1,1,1,1,1,1,1,1,1,1,1,1,1,1,1,1,1,1,1,1,1,1,1,1,1,1,1,1,1,1,1,1,1,1,1,1,1,1,1,1,1,1,1,1,1,1,1,1,1,1,1,1,1,1,1,1,1,1,1,1,1,1,1,1,1,1,1,1,1,1,1,1,1,1,1,1,1,1,1,1,1,1,1,1,1,1,1,1,1,1,1,1,1,1,1,1,1,1,1,1,1],"number_of_sets":1,"coherent_direction":[147,56,56,147,147,147,147,147,147,56,56,56,147,56,147,56,56,56,147,147,56,147,56,56,56,147,147,56,147,147,147,56,147,147,147,56,147,56,147,56,56,147,147,56,147,147,56,147,56,147,56,56,147,147,56,56,56,147,56,56,147,56,147,56,56,56,56,147,147,56,147,147,147,147,147,147,147,56,147,56,147,56,147,147,56,56,147,56,56,56,56,147,147,56,147,56,147,56,147,147,147,56,56,56,147,147,56,147,147,56,147,147,56,147,147,147,56,56,147,56,56,147,56,56,56,147,56,147,56,56,147,147,147,147,56,147,56,56,56,147,147,147,147,147,56,56,147,56,147,147,147,56,56,56,147,56,147,56,147,56,56,56,147,147,147,56,56,56,147,56,56,147,147,56,56,56,56,56,147,56,147,56,147,147,147,147,147,56,56,147,56,56,56,56,56,56,147,56,56,147],"coherence":1,"opposite_coherence":0,"dot_radius":2,"dot_side_length":1,"dot_life":-1,"move_distance":1,"aperture_width":300,"aperture_height":300,"dot_color":["white","black","black","white","white","white","white","white","white","black","black","black","white","black","white","black","black","black","white","white","black","white","black","black","black","white","white","black","white","white","white","black","white","white","white","black","white","black","white","black","black","white","white","black","white","white","black","white","black","white","black","black","white","white","black","black","black","white","black","black","white","black","white","black","black","black","black","white","white","black","white","white","white","white","white","white","white","black","white","black","white","black","white","white","black","black","white","black","black","black","black","white","white","black","white","black","white","black","white","white","white","black","black","black","white","white","black","white","white","black","white","white","black","white","white","white","black","black","white","black","black","white","black","black","black","white","black","white","black","black","white","white","white","white","black","white","black","black","black","white","white","white","white","white","black","black","white","black","white","white","white","black","black","black","white","black","white","black","white","black","black","black","white","white","white","black","black","black","white","black","black","white","white","black","black","black","black","black","white","black","white","black","white","white","white","white","white","black","black","white","black","black","black","black","black","black","white","black","black","white"],"dot_shape":"circle","background_color":"#AAA","RDK_type":3,"aperture_type":2,"reinsert_type":2,"frame_rate":16.915254237288135,"frame_rate_array":[37,17,17,17,17,16,17,17,17,16,17,16,16,18,16,16,17,19,16,17,16,17,17,16,16,17,17,18,16,18,16,17,18,15,17,19,16,16,18,16,16,18,16,17,16,17,17,16,18,17,16,17,17,16,17,17,16,15,17,17,18,16,16,19,16,15,17,17,16,17,16,17,18,16,17,16,16,18,17,17,16,17,17,17,17,17,15,18,15,17,18,17,17,16,17,17,15,18,17,16,16,16,18,17,17,17,16,17,17,17,17,17,17,17,16,17,17,16],"number_of_frames":118,"aperture_center_x":768,"aperture_center_y":480,"fixation_cross":true,"fixation_cross_width":15,"fixation_cross_height":15,"fixation_cross_color":"#111","fixation_cross_thickness":1,"border":true,"border_thickness":2,"border_color":"transparent","canvas_width":1536,"canvas_height":960,"trial_type":"rdk","trial_index":84,"plugin_version":"2.0.0","time_elapsed":259235},{"rt":2663,"stimulus":"\n        <div class=\"response-container\">\n          <div class=\"response-instruction\">\n            <p>rotate the bar by using the left and right arrow keys.</p>\n            <p>when you are determined, press the Enter key.</p>\n          </div>\n          <div class=\"response-circle\">\n            <div class=\"response-fixation\"></div>\n            <div id=\"bar\" class=\"rotating-bar\"></div>\n          </div>\n        </div>\n      ","response":"Enter","trial_type":"html-keyboard-response","trial_index":85,"plugin_version":"2.1.0","time_elapsed":261899,"random_initial_angle":335,"response_angle_css":361,"response_angle_rdk":89,"angular_error_target":-58,"angular_error_distractor":33,"target_direction":147,"target_group":"white","reward_points":0},{"rt":null,"stimulus":"\n          <p style=\"color: #FF3333;\">Your reward: 0 points</p>\n        ","response":null,"trial_type":"html-keyboard-response","trial_index":86,"plugin_version":"2.1.0","time_elapsed":263900},{"rt":null,"stimulus":"<div class=\"fixation\" style=\"font-size: 60px;\">+</div>","response":null,"trial_type":"html-keyboard-response","trial_index":87,"plugin_version":"2.1.0","time_elapsed":264915},{"phase":"learning-awareness","target_group":"white","condition_label":"W_H_vs_B_L_rep11","target_direction":136,"distractor_direction":26,"session_rotation":104,"rt":-1,"response":"","correct":false,"choices":"ALL_KEYS","correct_choice":["a"],"trial_duration":2000,"flip_timestamps":[],"response_ends_trial":false,"number_of_apertures":200,"number_of_dots":[1,1,1,1,1,1,1,1,1,1,1,1,1,1,1,1,1,1,1,1,1,1,1,1,1,1,1,1,1,1,1,1,1,1,1,1,1,1,1,1,1,1,1,1,1,1,1,1,1,1,1,1,1,1,1,1,1,1,1,1,1,1,1,1,1,1,1,1,1,1,1,1,1,1,1,1,1,1,1,1,1,1,1,1,1,1,1,1,1,1,1,1,1,1,1,1,1,1,1,1,1,1,1,1,1,1,1,1,1,1,1,1,1,1,1,1,1,1,1,1,1,1,1,1,1,1,1,1,1,1,1,1,1,1,1,1,1,1,1,1,1,1,1,1,1,1,1,1,1,1,1,1,1,1,1,1,1,1,1,1,1,1,1,1,1,1,1,1,1,1,1,1,1,1,1,1,1,1,1,1,1,1,1,1,1,1,1,1,1,1,1,1,1,1,1,1,1,1,1,1],"number_of_sets":1,"coherent_direction":[136,26,136,136,26,136,136,136,136,136,26,26,136,136,136,26,26,26,136,26,26,26,136,26,26,136,136,136,26,26,136,26,26,26,136,136,26,136,26,136,136,136,136,26,136,136,26,136,136,136,26,26,136,26,26,136,26,136,26,136,136,26,26,136,136,26,26,136,26,26,26,26,136,26,136,136,26,136,26,26,136,136,136,26,26,136,26,136,26,26,26,136,26,26,136,26,136,136,26,26,136,136,26,136,26,26,136,26,136,136,26,26,136,136,136,136,136,26,26,26,26,136,136,136,26,136,136,26,26,26,26,136,26,136,26,26,26,26,26,136,136,26,136,26,26,26,136,136,136,136,136,136,26,136,136,136,26,136,136,136,136,26,26,136,26,136,26,26,26,136,136,136,26,136,26,26,136,136,136,136,26,26,26,26,26,26,26,26,136,26,26,26,26,136,136,136,136,26,26,136],"coherence":1,"opposite_coherence":0,"dot_radius":2,"dot_side_length":1,"dot_life":-1,"move_distance":1,"aperture_width":300,"aperture_height":300,"dot_color":["white","black","white","white","black","white","white","white","white","white","black","black","white","white","white","black","black","black","white","black","black","black","white","black","black","white","white","white","black","black","white","black","black","black","white","white","black","white","black","white","white","white","white","black","white","white","black","white","white","white","black","black","white","black","black","white","black","white","black","white","white","black","black","white","white","black","black","white","black","black","black","black","white","black","white","white","black","white","black","black","white","white","white","black","black","white","black","white","black","black","black","white","black","black","white","black","white","white","black","black","white","white","black","white","black","black","white","black","white","white","black","black","white","white","white","white","white","black","black","black","black","white","white","white","black","white","white","black","black","black","black","white","black","white","black","black","black","black","black","white","white","black","white","black","black","black","white","white","white","white","white","white","black","white","white","white","black","white","white","white","white","black","black","white","black","white","black","black","black","white","white","white","black","white","black","black","white","white","white","white","black","black","black","black","black","black","black","black","white","black","black","black","black","white","white","white","white","black","black","white"],"dot_shape":"circle","background_color":"#AAA","RDK_type":3,"aperture_type":2,"reinsert_type":2,"frame_rate":16.75,"frame_rate_array":[25,12,17,17,17,15,16,18,17,18,16,18,16,18,16,16,18,16,17,16,17,16,17,17,16,17,16,17,17,16,17,17,16,17,16,18,14,17,17,18,17,17,16,18,17,16,17,17,17,16,16,18,17,17,17,17,16,16,17,16,18,15,18,17,16,17,17,16,17,16,16,18,17,17,17,17,17,16,16,16,17,17,17,17,17,16,15,18,17,16,17,16,17,18,16,16,17,17,17,17,17,17,15,18,18,16,16,17,17,17,14,18,17,17,16,18,17,16,17,16],"number_of_frames":120,"aperture_center_x":768,"aperture_center_y":480,"fixation_cross":true,"fixation_cross_width":15,"fixation_cross_height":15,"fixation_cross_color":"#111","fixation_cross_thickness":1,"border":true,"border_thickness":2,"border_color":"transparent","canvas_width":1536,"canvas_height":960,"trial_type":"rdk","trial_index":88,"plugin_version":"2.0.0","time_elapsed":266922},{"rt":5353,"stimulus":"\n        <div class=\"response-container\">\n          <div class=\"response-instruction\">\n            <p>rotate the bar by using the left and right arrow keys.</p>\n            <p>when you are determined, press the Enter key.</p>\n          </div>\n          <div class=\"response-circle\">\n            <div class=\"response-fixation\"></div>\n            <div id=\"bar\" class=\"rotating-bar\"></div>\n          </div>\n        </div>\n      ","response":"Enter","trial_type":"html-keyboard-response","trial_index":89,"plugin_version":"2.1.0","time_elapsed":272276,"random_initial_angle":201,"response_angle_css":322,"response_angle_rdk":128,"angular_error_target":-8,"angular_error_distractor":102,"target_direction":136,"target_group":"white","reward_points":8},{"rt":null,"stimulus":"\n          <p style=\"color: #00FF00;\">Your reward: 8 points</p>\n        ","response":null,"trial_type":"html-keyboard-response","trial_index":90,"plugin_version":"2.1.0","time_elapsed":274277},{"rt":null,"stimulus":"<div class=\"fixation\" style=\"font-size: 60px;\">+</div>","response":null,"trial_type":"html-keyboard-response","trial_index":91,"plugin_version":"2.1.0","time_elapsed":275289},{"phase":"learning-awareness","target_group":"black","condition_label":"B_H_vs_W_L_rep8","target_direction":200,"distractor_direction":293,"session_rotation":104,"rt":-1,"response":"","correct":false,"choices":"ALL_KEYS","correct_choice":["a"],"trial_duration":2000,"flip_timestamps":[],"response_ends_trial":false,"number_of_apertures":200,"number_of_dots":[1,1,1,1,1,1,1,1,1,1,1,1,1,1,1,1,1,1,1,1,1,1,1,1,1,1,1,1,1,1,1,1,1,1,1,1,1,1,1,1,1,1,1,1,1,1,1,1,1,1,1,1,1,1,1,1,1,1,1,1,1,1,1,1,1,1,1,1,1,1,1,1,1,1,1,1,1,1,1,1,1,1,1,1,1,1,1,1,1,1,1,1,1,1,1,1,1,1,1,1,1,1,1,1,1,1,1,1,1,1,1,1,1,1,1,1,1,1,1,1,1,1,1,1,1,1,1,1,1,1,1,1,1,1,1,1,1,1,1,1,1,1,1,1,1,1,1,1,1,1,1,1,1,1,1,1,1,1,1,1,1,1,1,1,1,1,1,1,1,1,1,1,1,1,1,1,1,1,1,1,1,1,1,1,1,1,1,1,1,1,1,1,1,1,1,1,1,1,1,1],"number_of_sets":1,"coherent_direction":[293,293,293,293,293,200,293,293,293,200,293,293,200,200,293,293,200,200,200,293,293,200,200,200,293,200,200,200,200,200,293,293,200,200,293,200,200,200,200,200,200,293,200,293,293,293,293,200,293,200,200,293,200,293,200,200,293,200,293,293,200,293,293,293,293,200,200,200,293,293,293,293,293,200,200,293,293,293,200,200,200,293,200,200,293,293,293,200,200,293,200,293,293,200,293,200,293,293,293,200,200,293,293,293,293,200,200,293,200,200,200,200,293,200,200,200,200,293,200,293,200,293,293,293,293,293,293,200,293,200,293,200,200,293,293,293,293,293,293,200,293,200,293,293,200,200,293,200,293,293,200,293,293,200,200,200,293,200,293,200,293,200,200,293,293,200,200,200,200,293,200,200,293,200,200,293,293,200,293,293,293,200,293,293,200,200,200,200,293,200,200,200,200,293,200,200,293,200,200,293],"coherence":1,"opposite_coherence":0,"dot_radius":2,"dot_side_length":1,"dot_life":-1,"move_distance":1,"aperture_width":300,"aperture_height":300,"dot_color":["white","white","white","white","white","black","white","white","white","black","white","white","black","black","white","white","black","black","black","white","white","black","black","black","white","black","black","black","black","black","white","white","black","black","white","black","black","black","black","black","black","white","black","white","white","white","white","black","white","black","black","white","black","white","black","black","white","black","white","white","black","white","white","white","white","black","black","black","white","white","white","white","white","black","black","white","white","white","black","black","black","white","black","black","white","white","white","black","black","white","black","white","white","black","white","black","white","white","white","black","black","white","white","white","white","black","black","white","black","black","black","black","white","black","black","black","black","white","black","white","black","white","white","white","white","white","white","black","white","black","white","black","black","white","white","white","white","white","white","black","white","black","white","white","black","black","white","black","white","white","black","white","white","black","black","black","white","black","white","black","white","black","black","white","white","black","black","black","black","white","black","black","white","black","black","white","white","black","white","white","white","black","white","white","black","black","black","black","white","black","black","black","black","white","black","black","white","black","black","white"],"dot_shape":"circle","background_color":"#AAA","RDK_type":3,"aperture_type":2,"reinsert_type":2,"frame_rate":16.708333333333332,"frame_rate_array":[12,17,17,17,17,17,17,17,17,17,16,17,17,17,17,17,16,18,16,17,17,17,16,17,17,17,16,17,16,17,17,17,17,17,16,17,16,17,17,17,17,17,16,17,16,17,18,15,16,18,17,16,17,16,17,17,17,16,17,17,16,18,17,17,17,17,17,16,17,17,17,16,17,16,17,16,17,17,17,16,16,17,17,17,17,16,17,17,17,16,18,15,18,17,16,16,17,17,16,17,17,17,15,17,18,17,17,16,17,17,16,16,16,18,16,17,17,16,17,17],"number_of_frames":120,"aperture_center_x":768,"aperture_center_y":480,"fixation_cross":true,"fixation_cross_width":15,"fixation_cross_height":15,"fixation_cross_color":"#111","fixation_cross_thickness":1,"border":true,"border_thickness":2,"border_color":"transparent","canvas_width":1536,"canvas_height":960,"trial_type":"rdk","trial_index":92,"plugin_version":"2.0.0","time_elapsed":277300},{"rt":4570,"stimulus":"\n        <div class=\"response-container\">\n          <div class=\"response-instruction\">\n            <p>rotate the bar by using the left and right arrow keys.</p>\n            <p>when you are determined, press the Enter key.</p>\n          </div>\n          <div class=\"response-circle\">\n            <div class=\"response-fixation\"></div>\n            <div id=\"bar\" class=\"rotating-bar\"></div>\n          </div>\n        </div>\n      ","response":"Enter","trial_type":"html-keyboard-response","trial_index":93,"plugin_version":"2.1.0","time_elapsed":281871,"random_initial_angle":31,"response_angle_css":182,"response_angle_rdk":268,"angular_error_target":68,"angular_error_distractor":-25,"target_direction":200,"target_group":"black","reward_points":0},{"rt":null,"stimulus":"\n          <p style=\"color: #FF3333;\">Your reward: 0 points</p>\n        ","response":null,"trial_type":"html-keyboard-response","trial_index":94,"plugin_version":"2.1.0","time_elapsed":283874},{"rt":null,"stimulus":"<div class=\"fixation\" style=\"font-size: 60px;\">+</div>","response":null,"trial_type":"html-keyboard-response","trial_index":95,"plugin_version":"2.1.0","time_elapsed":284888},{"phase":"learning-awareness","target_group":"black","condition_label":"B_H_vs_W_L_rep3","target_direction":210,"distractor_direction":305,"session_rotation":104,"rt":-1,"response":"","correct":false,"choices":"ALL_KEYS","correct_choice":["a"],"trial_duration":2000,"flip_timestamps":[],"response_ends_trial":false,"number_of_apertures":200,"number_of_dots":[1,1,1,1,1,1,1,1,1,1,1,1,1,1,1,1,1,1,1,1,1,1,1,1,1,1,1,1,1,1,1,1,1,1,1,1,1,1,1,1,1,1,1,1,1,1,1,1,1,1,1,1,1,1,1,1,1,1,1,1,1,1,1,1,1,1,1,1,1,1,1,1,1,1,1,1,1,1,1,1,1,1,1,1,1,1,1,1,1,1,1,1,1,1,1,1,1,1,1,1,1,1,1,1,1,1,1,1,1,1,1,1,1,1,1,1,1,1,1,1,1,1,1,1,1,1,1,1,1,1,1,1,1,1,1,1,1,1,1,1,1,1,1,1,1,1,1,1,1,1,1,1,1,1,1,1,1,1,1,1,1,1,1,1,1,1,1,1,1,1,1,1,1,1,1,1,1,1,1,1,1,1,1,1,1,1,1,1,1,1,1,1,1,1,1,1,1,1,1,1],"number_of_sets":1,"coherent_direction":[210,210,210,305,305,210,305,210,305,305,210,210,305,210,305,210,305,305,210,305,305,210,210,305,210,305,305,210,210,210,210,210,210,210,305,305,210,210,305,305,210,305,305,210,210,305,210,210,210,305,305,210,305,305,305,210,210,305,305,305,305,305,210,210,305,210,305,305,305,210,210,305,305,305,210,305,305,305,210,210,210,210,210,210,210,210,210,210,210,210,305,210,305,305,210,305,210,305,305,305,210,210,210,210,210,305,305,305,210,305,210,305,210,210,305,305,305,305,305,305,210,210,210,210,305,305,210,305,210,305,305,210,210,305,305,305,210,210,305,210,305,305,210,210,210,305,210,305,210,210,210,305,305,305,305,305,210,210,210,210,305,210,210,210,305,305,305,210,210,305,305,210,305,210,305,210,210,210,305,305,210,305,210,305,305,305,210,305,210,305,210,305,210,305,210,305,305,305,305,305],"coherence":1,"opposite_coherence":0,"dot_radius":2,"dot_side_length":1,"dot_life":-1,"move_distance":1,"aperture_width":300,"aperture_height":300,"dot_color":["black","black","black","white","white","black","white","black","white","white","black","black","white","black","white","black","white","white","black","white","white","black","black","white","black","white","white","black","black","black","black","black","black","black","white","white","black","black","white","white","black","white","white","black","black","white","black","black","black","white","white","black","white","white","white","black","black","white","white","white","white","white","black","black","white","black","white","white","white","black","black","white","white","white","black","white","white","white","black","black","black","black","black","black","black","black","black","black","black","black","white","black","white","white","black","white","black","white","white","white","black","black","black","black","black","white","white","white","black","white","black","white","black","black","white","white","white","white","white","white","black","black","black","black","white","white","black","white","black","white","white","black","black","white","white","white","black","black","white","black","white","white","black","black","black","white","black","white","black","black","black","white","white","white","white","white","black","black","black","black","white","black","black","black","white","white","white","black","black","white","white","black","white","black","white","black","black","black","white","white","black","white","black","white","white","white","black","white","black","white","black","white","black","white","black","white","white","white","white","white"],"dot_shape":"circle","background_color":"#AAA","RDK_type":3,"aperture_type":2,"reinsert_type":2,"frame_rate":16.798319327731093,"frame_rate_array":[37,9,18,16,17,17,16,16,17,17,17,18,16,17,16,18,16,16,17,17,17,17,21,12,17,16,16,18,17,16,17,16,18,17,16,16,16,16,17,16,17,17,18,16,17,17,16,17,17,17,15,18,17,16,17,17,17,16,18,16,17,16,17,16,16,17,17,16,17,16,16,16,17,18,17,16,17,15,18,16,17,16,17,17,18,17,16,17,16,17,16,17,16,16,17,17,16,17,17,16,18,17,16,16,17,17,17,17,17,15,18,17,16,17,17,16,17,17,17],"number_of_frames":119,"aperture_center_x":768,"aperture_center_y":480,"fixation_cross":true,"fixation_cross_width":15,"fixation_cross_height":15,"fixation_cross_color":"#111","fixation_cross_thickness":1,"border":true,"border_thickness":2,"border_color":"transparent","canvas_width":1536,"canvas_height":960,"trial_type":"rdk","trial_index":96,"plugin_version":"2.0.0","time_elapsed":286901},{"rt":2558,"stimulus":"\n        <div class=\"response-container\">\n          <div class=\"response-instruction\">\n            <p>rotate the bar by using the left and right arrow keys.</p>\n            <p>when you are determined, press the Enter key.</p>\n          </div>\n          <div class=\"response-circle\">\n            <div class=\"response-fixation\"></div>\n            <div id=\"bar\" class=\"rotating-bar\"></div>\n          </div>\n        </div>\n      ","response":"Enter","trial_type":"html-keyboard-response","trial_index":97,"plugin_version":"2.1.0","time_elapsed":289459,"random_initial_angle":80,"response_angle_css":140,"response_angle_rdk":310,"angular_error_target":100,"angular_error_distractor":5,"target_direction":210,"target_group":"black","reward_points":0},{"rt":null,"stimulus":"\n          <p style=\"color: #FF3333;\">Your reward: 0 points</p>\n        ","response":null,"trial_type":"html-keyboard-response","trial_index":98,"plugin_version":"2.1.0","time_elapsed":291474},{"rt":null,"stimulus":"<div class=\"fixation\" style=\"font-size: 60px;\">+</div>","response":null,"trial_type":"html-keyboard-response","trial_index":99,"plugin_version":"2.1.0","time_elapsed":292489},{"phase":"learning-awareness","target_group":"white","condition_label":"W_H_vs_B_L_rep7","target_direction":111,"distractor_direction":14,"session_rotation":104,"rt":-1,"response":"","correct":false,"choices":"ALL_KEYS","correct_choice":["a"],"trial_duration":2000,"flip_timestamps":[],"response_ends_trial":false,"number_of_apertures":200,"number_of_dots":[1,1,1,1,1,1,1,1,1,1,1,1,1,1,1,1,1,1,1,1,1,1,1,1,1,1,1,1,1,1,1,1,1,1,1,1,1,1,1,1,1,1,1,1,1,1,1,1,1,1,1,1,1,1,1,1,1,1,1,1,1,1,1,1,1,1,1,1,1,1,1,1,1,1,1,1,1,1,1,1,1,1,1,1,1,1,1,1,1,1,1,1,1,1,1,1,1,1,1,1,1,1,1,1,1,1,1,1,1,1,1,1,1,1,1,1,1,1,1,1,1,1,1,1,1,1,1,1,1,1,1,1,1,1,1,1,1,1,1,1,1,1,1,1,1,1,1,1,1,1,1,1,1,1,1,1,1,1,1,1,1,1,1,1,1,1,1,1,1,1,1,1,1,1,1,1,1,1,1,1,1,1,1,1,1,1,1,1,1,1,1,1,1,1,1,1,1,1,1,1],"number_of_sets":1,"coherent_direction":[111,111,111,111,111,14,111,14,111,14,111,111,111,111,111,14,111,111,14,14,14,14,111,111,111,111,14,111,111,111,14,111,111,14,111,14,111,14,14,14,14,14,14,111,111,111,111,111,111,111,14,14,14,14,14,111,14,14,14,14,14,14,14,14,14,14,111,14,14,14,111,111,111,111,111,111,14,14,14,14,111,111,14,14,14,14,14,111,111,14,111,111,111,111,14,111,14,111,111,14,111,111,14,14,14,111,111,111,111,14,14,111,14,111,14,14,111,14,14,111,111,111,14,14,14,111,14,14,111,14,14,111,111,14,14,111,111,14,111,14,111,14,14,14,14,14,14,111,111,111,111,111,111,111,14,14,111,111,14,14,111,14,111,14,14,111,111,111,111,111,111,14,111,14,111,14,14,111,111,14,111,111,111,111,14,14,14,111,111,14,14,14,14,14,111,14,14,111,14,14],"coherence":1,"opposite_coherence":0,"dot_radius":2,"dot_side_length":1,"dot_life":-1,"move_distance":1,"aperture_width":300,"aperture_height":300,"dot_color":["white","white","white","white","white","black","white","black","white","black","white","white","white","white","white","black","white","white","black","black","black","black","white","white","white","white","black","white","white","white","black","white","white","black","white","black","white","black","black","black","black","black","black","white","white","white","white","white","white","white","black","black","black","black","black","white","black","black","black","black","black","black","black","black","black","black","white","black","black","black","white","white","white","white","white","white","black","black","black","black","white","white","black","black","black","black","black","white","white","black","white","white","white","white","black","white","black","white","white","black","white","white","black","black","black","white","white","white","white","black","black","white","black","white","black","black","white","black","black","white","white","white","black","black","black","white","black","black","white","black","black","white","white","black","black","white","white","black","white","black","white","black","black","black","black","black","black","white","white","white","white","white","white","white","black","black","white","white","black","black","white","black","white","black","black","white","white","white","white","white","white","black","white","black","white","black","black","white","white","black","white","white","white","white","black","black","black","white","white","black","black","black","black","black","white","black","black","white","black","black"],"dot_shape":"circle","background_color":"#AAA","RDK_type":3,"aperture_type":2,"reinsert_type":2,"frame_rate":16.725,"frame_rate_array":[25,3,16,18,17,17,16,18,16,17,17,16,18,16,17,17,16,18,16,17,18,16,17,16,17,17,18,16,17,16,17,17,17,16,17,17,17,17,16,16,17,17,17,16,17,16,17,18,17,16,17,16,18,17,17,15,16,17,18,17,18,15,16,18,17,17,17,17,17,17,16,17,16,17,17,16,17,16,18,16,17,17,18,16,17,17,17,16,16,17,18,17,16,17,16,16,18,18,14,19,16,16,18,16,17,17,16,18,15,18,16,17,17,17,17,16,17,17,17,15],"number_of_frames":120,"aperture_center_x":768,"aperture_center_y":480,"fixation_cross":true,"fixation_cross_width":15,"fixation_cross_height":15,"fixation_cross_color":"#111","fixation_cross_thickness":1,"border":true,"border_thickness":2,"border_color":"transparent","canvas_width":1536,"canvas_height":960,"trial_type":"rdk","trial_index":100,"plugin_version":"2.0.0","time_elapsed":294498},{"rt":8033,"stimulus":"\n        <div class=\"response-container\">\n          <div class=\"response-instruction\">\n            <p>rotate the bar by using the left and right arrow keys.</p>\n            <p>when you are determined, press the Enter key.</p>\n          </div>\n          <div class=\"response-circle\">\n            <div class=\"response-fixation\"></div>\n            <div id=\"bar\" class=\"rotating-bar\"></div>\n          </div>\n        </div>\n      ","response":"Enter","trial_type":"html-keyboard-response","trial_index":101,"plugin_version":"2.1.0","time_elapsed":302532,"random_initial_angle":50,"response_angle_css":89,"response_angle_rdk":1,"angular_error_target":-110,"angular_error_distractor":-13,"target_direction":111,"target_group":"white","reward_points":0},{"rt":null,"stimulus":"\n          <p style=\"color: #FF3333;\">Your reward: 0 points</p>\n        ","response":null,"trial_type":"html-keyboard-response","trial_index":102,"plugin_version":"2.1.0","time_elapsed":304536},{"rt":null,"stimulus":"<div class=\"fixation\" style=\"font-size: 60px;\">+</div>","response":null,"trial_type":"html-keyboard-response","trial_index":103,"plugin_version":"2.1.0","time_elapsed":305548},{"phase":"learning-awareness","target_group":"black","condition_label":"B_H_vs_W_L_rep18","target_direction":202,"distractor_direction":292,"session_rotation":104,"rt":-1,"response":"","correct":false,"choices":"ALL_KEYS","correct_choice":["a"],"trial_duration":2000,"flip_timestamps":[],"response_ends_trial":false,"number_of_apertures":200,"number_of_dots":[1,1,1,1,1,1,1,1,1,1,1,1,1,1,1,1,1,1,1,1,1,1,1,1,1,1,1,1,1,1,1,1,1,1,1,1,1,1,1,1,1,1,1,1,1,1,1,1,1,1,1,1,1,1,1,1,1,1,1,1,1,1,1,1,1,1,1,1,1,1,1,1,1,1,1,1,1,1,1,1,1,1,1,1,1,1,1,1,1,1,1,1,1,1,1,1,1,1,1,1,1,1,1,1,1,1,1,1,1,1,1,1,1,1,1,1,1,1,1,1,1,1,1,1,1,1,1,1,1,1,1,1,1,1,1,1,1,1,1,1,1,1,1,1,1,1,1,1,1,1,1,1,1,1,1,1,1,1,1,1,1,1,1,1,1,1,1,1,1,1,1,1,1,1,1,1,1,1,1,1,1,1,1,1,1,1,1,1,1,1,1,1,1,1,1,1,1,1,1,1],"number_of_sets":1,"coherent_direction":[292,202,202,202,292,202,202,202,202,292,292,292,292,292,202,292,292,202,292,202,202,292,202,292,292,292,202,292,292,292,202,202,202,292,292,202,202,202,202,292,202,202,292,202,292,202,202,292,292,202,292,202,202,292,292,202,292,292,202,202,292,292,202,202,202,202,202,202,202,202,292,292,292,202,202,292,202,202,202,292,202,202,202,292,292,202,292,202,292,292,202,202,202,202,292,202,292,292,292,292,202,292,202,292,292,292,202,292,292,202,202,292,292,292,202,292,202,292,292,292,292,292,202,202,292,292,292,202,292,292,202,292,202,202,202,292,202,292,202,292,202,202,292,292,292,292,202,292,292,292,292,292,202,292,202,292,202,292,292,202,202,202,292,202,292,292,202,202,202,202,292,292,292,202,292,202,202,292,202,292,292,202,292,202,202,292,202,292,202,202,292,202,202,292,202,202,202,292,202,292],"coherence":1,"opposite_coherence":0,"dot_radius":2,"dot_side_length":1,"dot_life":-1,"move_distance":1,"aperture_width":300,"aperture_height":300,"dot_color":["white","black","black","black","white","black","black","black","black","white","white","white","white","white","black","white","white","black","white","black","black","white","black","white","white","white","black","white","white","white","black","black","black","white","white","black","black","black","black","white","black","black","white","black","white","black","black","white","white","black","white","black","black","white","white","black","white","white","black","black","white","white","black","black","black","black","black","black","black","black","white","white","white","black","black","white","black","black","black","white","black","black","black","white","white","black","white","black","white","white","black","black","black","black","white","black","white","white","white","white","black","white","black","white","white","white","black","white","white","black","black","white","white","white","black","white","black","white","white","white","white","white","black","black","white","white","white","black","white","white","black","white","black","black","black","white","black","white","black","white","black","black","white","white","white","white","black","white","white","white","white","white","black","white","black","white","black","white","white","black","black","black","white","black","white","white","black","black","black","black","white","white","white","black","white","black","black","white","black","white","white","black","white","black","black","white","black","white","black","black","white","black","black","white","black","black","black","white","black","white"],"dot_shape":"circle","background_color":"#AAA","RDK_type":3,"aperture_type":2,"reinsert_type":2,"frame_rate":16.714285714285715,"frame_rate_array":[26,9,17,17,17,17,16,17,16,17,16,17,16,16,16,18,17,17,16,17,16,17,17,17,17,16,17,17,16,16,18,16,17,17,17,16,16,17,18,16,17,17,15,17,17,16,18,17,17,16,17,17,16,17,17,15,18,15,18,16,17,15,18,17,17,17,17,17,16,17,16,17,16,17,16,17,17,17,17,17,16,18,16,17,16,17,16,17,16,17,17,16,16,17,17,17,16,17,17,17,17,17,16,16,18,16,17,17,16,17,16,18,17,16,18,16,16,18,17],"number_of_frames":119,"aperture_center_x":768,"aperture_center_y":480,"fixation_cross":true,"fixation_cross_width":15,"fixation_cross_height":15,"fixation_cross_color":"#111","fixation_cross_thickness":1,"border":true,"border_thickness":2,"border_color":"transparent","canvas_width":1536,"canvas_height":960,"trial_type":"rdk","trial_index":104,"plugin_version":"2.0.0","time_elapsed":307552},{"rt":9301,"stimulus":"\n        <div class=\"response-container\">\n          <div class=\"response-instruction\">\n            <p>rotate the bar by using the left and right arrow keys.</p>\n            <p>when you are determined, press the Enter key.</p>\n          </div>\n          <div class=\"response-circle\">\n            <div class=\"response-fixation\"></div>\n            <div id=\"bar\" class=\"rotating-bar\"></div>\n          </div>\n        </div>\n      ","response":"Enter","trial_type":"html-keyboard-response","trial_index":105,"plugin_version":"2.1.0","time_elapsed":316854,"random_initial_angle":65,"response_angle_css":180,"response_angle_rdk":270,"angular_error_target":68,"angular_error_distractor":-22,"target_direction":202,"target_group":"black","reward_points":0},{"rt":null,"stimulus":"\n          <p style=\"color: #FF3333;\">Your reward: 0 points</p>\n        ","response":null,"trial_type":"html-keyboard-response","trial_index":106,"plugin_version":"2.1.0","time_elapsed":318858},{"rt":null,"stimulus":"<div class=\"fixation\" style=\"font-size: 60px;\">+</div>","response":null,"trial_type":"html-keyboard-response","tri