[{"rt":10902,"stimulus":"Welcome to the experiment. Press any key to begin.","response":"c","trial_type":"html-keyboard-response","trial_index":0,"plugin_version":"2.1.0","time_elapsed":10918},{"rt":84633,"stimulus":"\n        <div class=\"instructions-container\">\n          <h2>Instructions</h2>\n\n          <p>\n          In this experiment, you will see <strong>two Random Dot Kinematograms (RDKs)</strong> displayed simultaneously.\n          </p>\n\n          <p>\n          An RDK is a visual stimulus consisting of many small dots that move coherently in a single direction. \n          In this experiment, the dots will be either <strong>white</strong> or <strong>black</strong> \n          (see the short demo below for an example of an RDK stimulus).\n          </p>\n\n          <p>\n          On each trial, the two RDKs will move in different directions. \n          Your task is to decide <strong>which RDK appears to contain more dots</strong>.\n          </p>\n\n          <p>\n          The RDK that you judge to have more dots is called the <strong>target RDK</strong>. \n          For example, if the white RDK appears to have more dots than the black RDK, \n          you should report the motion direction of the white RDK.\n          </p>\n\n          <p>\n          After viewing the RDKs, you will rotate a bar to indicate the perceived direction of the target RDK \n          using the <strong>left</strong> and <strong>right arrow keys</strong>. \n          Press <strong>Enter</strong> when you are satisfied with your response.\n          When the bar is held down, the rotation speed increases.\n          </p>\n\n          <p>\n          You will receive points based on the <strong>accuracy of your response</strong>, \n          and your final <strong>bonus reward</strong> may depend on your overall performance. \n          Please try to respond as accurately as possible.\n          </p>\n\n          <p>\n          You will first complete <strong>16 practice trials</strong>. \n          Press the <strong>Enter</strong> key to start the practice phase.\n          </p>\n\n          <canvas id=\"instruction-demo-rdk\" width=\"200\" height=\"200\"style=\"display:block;margin:12px auto; border-radius: 50%;\"></canvas>\n        </div>\n      ","response":"Enter","trial_type":"html-keyboard-response","trial_index":1,"plugin_version":"2.1.0","time_elapsed":95552},{"rt":null,"stimulus":"<div class=\"fixation\" style=\"font-size: 60px;\">+</div>","response":null,"trial_type":"html-keyboard-response","trial_index":2,"plugin_version":"2.1.0","time_elapsed":96556},{"target_group":"white","target_index":0,"condition_label":"practice","rt":-1,"response":"","correct":false,"choices":"ALL_KEYS","correct_choice":["a"],"trial_duration":2000,"flip_timestamps":[],"response_ends_trial":false,"number_of_apertures":2,"number_of_dots":[100,50],"number_of_sets":1,"coherent_direction":[139,329],"coherence":1,"opposite_coherence":0,"dot_radius":2,"dot_side_length":1,"dot_life":-1,"move_distance":1,"aperture_width":300,"aperture_height":300,"dot_color":["white","black"],"dot_shape":"circle","background_color":"#AAA","RDK_type":3,"aperture_type":2,"reinsert_type":2,"frame_rate":16.633333333333333,"frame_rate_array":[15,13,12,16,18,17,16,17,16,18,15,18,16,17,17,16,17,17,16,17,17,17,17,16,16,18,16,18,16,17,17,17,17,16,16,17,15,18,16,18,17,16,17,16,16,17,18,15,18,16,16,18,17,16,17,17,16,16,18,17,17,16,18,17,16,18,15,18,16,17,17,16,17,17,15,17,16,18,17,17,15,18,17,16,17,18,16,18,15,17,16,17,16,18,15,18,16,18,16,16,18,17,17,15,17,17,16,18,17,16,17,15,17,17,16,18,16,18,15,18],"number_of_frames":120,"aperture_center_x":768,"aperture_center_y":432,"fixation_cross":true,"fixation_cross_width":15,"fixation_cross_height":15,"fixation_cross_color":"#111","fixation_cross_thickness":1,"border":true,"border_thickness":2,"border_color":"transparent","canvas_width":1536,"canvas_height":864,"trial_type":"rdk","trial_index":3,"plugin_version":"2.0.0","time_elapsed":98559,"phase":"practice","target_direction":139,"distractor_direction":329},{"rt":8269,"stimulus":"\n        <div class=\"response-container\">\n          <div class=\"response-instruction\">\n            <p>rotate the bar by using the left and right arrow keys.</p>\n            <p>when you are determined, press the Enter key.</p>\n          </div>\n          <div class=\"response-circle\">\n            <div class=\"response-fixation\"></div>\n            <div id=\"bar\" class=\"rotating-bar\"></div>\n          </div>\n        </div>\n      ","response":"Enter","trial_type":"html-keyboard-response","trial_index":4,"plugin_version":"2.1.0","time_elapsed":106828,"random_initial_angle":7,"response_angle_css":-33,"response_angle_rdk":123,"angular_error_target":-16,"angular_error_distractor":154,"target_direction":139,"target_group":"white","reward_points":6},{"rt":null,"stimulus":"\n          <p style=\"color: #00FF00;\">Your reward: 6 points</p>\n        ","response":null,"trial_type":"html-keyboard-response","trial_index":5,"plugin_version":"2.1.0","time_elapsed":108832},{"rt":null,"stimulus":"<div class=\"fixation\" style=\"font-size: 60px;\">+</div>","response":null,"trial_type":"html-keyboard-response","trial_index":6,"plugin_version":"2.1.0","time_elapsed":109840},{"target_group":"white","target_index":0,"condition_label":"practice","rt":-1,"response":"","correct":false,"choices":"ALL_KEYS","correct_choice":["a"],"trial_duration":2000,"flip_timestamps":[],"response_ends_trial":false,"number_of_apertures":2,"number_of_dots":[100,82],"number_of_sets":1,"coherent_direction":[325,112],"coherence":1,"opposite_coherence":0,"dot_radius":2,"dot_side_length":1,"dot_life":-1,"move_distance":1,"aperture_width":300,"aperture_height":300,"dot_color":["white","black"],"dot_shape":"circle","background_color":"#AAA","RDK_type":3,"aperture_type":2,"reinsert_type":2,"frame_rate":16.716666666666665,"frame_rate_array":[14,15,18,17,17,16,17,16,16,19,16,17,16,16,18,16,16,18,17,16,16,17,16,18,18,16,15,17,18,16,18,17,15,17,17,17,16,17,18,17,16,17,16,16,18,16,16,18,17,17,16,17,16,17,17,17,17,16,17,16,18,16,18,15,16,18,17,17,17,17,17,16,18,15,16,17,17,18,16,18,16,16,18,15,18,16,18,15,17,18,17,17,15,19,15,18,17,17,17,17,16,17,17,16,16,16,17,17,17,17,16,17,18,15,17,18,16,17,16,17],"number_of_frames":120,"aperture_center_x":768,"aperture_center_y":432,"fixation_cross":true,"fixation_cross_width":15,"fixation_cross_height":15,"fixation_cross_color":"#111","fixation_cross_thickness":1,"border":true,"border_thickness":2,"border_color":"transparent","canvas_width":1536,"canvas_height":864,"trial_type":"rdk","trial_index":7,"plugin_version":"2.0.0","time_elapsed":111843,"phase":"practice","target_direction":325,"distractor_direction":112},{"rt":5586,"stimulus":"\n        <div class=\"response-container\">\n          <div class=\"response-instruction\">\n            <p>rotate the bar by using the left and right arrow keys.</p>\n            <p>when you are determined, press the Enter key.</p>\n          </div>\n          <div class=\"response-circle\">\n            <div class=\"response-fixation\"></div>\n            <div id=\"bar\" class=\"rotating-bar\"></div>\n          </div>\n        </div>\n      ","response":"Enter","trial_type":"html-keyboard-response","trial_index":8,"plugin_version":"2.1.0","time_elapsed":117430,"random_initial_angle":207,"response_angle_css":147,"response_angle_rdk":303,"angular_error_target":-22,"angular_error_distractor":-169,"target_direction":325,"target_group":"white","reward_points":5},{"rt":null,"stimulus":"\n          <p style=\"color: #00FF00;\">Your reward: 5 points</p>\n        ","response":null,"trial_type":"html-keyboard-response","trial_index":9,"plugin_version":"2.1.0","time_elapsed":119439},{"rt":null,"stimulus":"<div class=\"fixation\" style=\"font-size: 60px;\">+</div>","response":null,"trial_type":"html-keyboard-response","trial_index":10,"plugin_version":"2.1.0","time_elapsed":120440},{"target_group":"black","target_index":1,"condition_label":"practice","rt":-1,"response":"","correct":false,"choices":"ALL_KEYS","correct_choice":["a"],"trial_duration":2000,"flip_timestamps":[],"response_ends_trial":false,"number_of_apertures":2,"number_of_dots":[82,100],"number_of_sets":1,"coherent_direction":[292,140],"coherence":1,"opposite_coherence":0,"dot_radius":2,"dot_side_length":1,"dot_life":-1,"move_distance":1,"aperture_width":300,"aperture_height":300,"dot_color":["white","black"],"dot_shape":"circle","background_color":"#AAA","RDK_type":3,"aperture_type":2,"reinsert_type":2,"frame_rate":16.611570247933884,"frame_rate_array":[4,17,16,18,17,16,16,17,17,17,15,17,17,17,17,16,17,18,17,15,18,16,18,15,17,17,17,17,16,17,16,17,16,17,18,17,16,16,18,15,18,15,18,17,17,16,17,17,17,17,16,17,17,16,18,18,16,16,18,15,18,16,16,17,17,17,16,16,17,17,17,16,18,15,18,17,16,16,17,17,16,16,18,16,18,17,17,17,16,16,17,18,16,18,16,17,16,17,16,16,18,16,17,18,17,16,16,17,16,18,16,17,17,16,18,16,17,15,16,17,17],"number_of_frames":121,"aperture_center_x":768,"aperture_center_y":432,"fixation_cross":true,"fixation_cross_width":15,"fixation_cross_height":15,"fixation_cross_color":"#111","fixation_cross_thickness":1,"border":true,"border_thickness":2,"border_color":"transparent","canvas_width":1536,"canvas_height":864,"trial_type":"rdk","trial_index":11,"plugin_version":"2.0.0","time_elapsed":122447,"phase":"practice","target_direction":140,"distractor_direction":292},{"rt":4433,"stimulus":"\n        <div class=\"response-container\">\n          <div class=\"response-instruction\">\n            <p>rotate the bar by using the left and right arrow keys.</p>\n            <p>when you are determined, press the Enter key.</p>\n          </div>\n          <div class=\"response-circle\">\n            <div class=\"response-fixation\"></div>\n            <div id=\"bar\" class=\"rotating-bar\"></div>\n          </div>\n        </div>\n      ","response":"Enter","trial_type":"html-keyboard-response","trial_index":12,"plugin_version":"2.1.0","time_elapsed":126880,"random_initial_angle":284,"response_angle_css":316,"response_angle_rdk":134,"angular_error_target":-6,"angular_error_distractor":-158,"target_direction":140,"target_group":"black","reward_points":8},{"rt":null,"stimulus":"\n          <p style=\"color: #00FF00;\">Your reward: 8 points</p>\n        ","response":null,"trial_type":"html-keyboard-response","trial_index":13,"plugin_version":"2.1.0","time_elapsed":128890},{"rt":null,"stimulus":"<div class=\"fixation\" style=\"font-size: 60px;\">+</div>","response":null,"trial_type":"html-keyboard-response","trial_index":14,"plugin_version":"2.1.0","time_elapsed":129891},{"target_group":"white","target_index":0,"condition_label":"practice","rt":-1,"response":"","correct":false,"choices":"ALL_KEYS","correct_choice":["a"],"trial_duration":2000,"flip_timestamps":[],"response_ends_trial":false,"number_of_apertures":2,"number_of_dots":[100,76],"number_of_sets":1,"coherent_direction":[108,348],"coherence":1,"opposite_coherence":0,"dot_radius":2,"dot_side_length":1,"dot_life":-1,"move_distance":1,"aperture_width":300,"aperture_height":300,"dot_color":["white","black"],"dot_shape":"circle","background_color":"#AAA","RDK_type":3,"aperture_type":2,"reinsert_type":2,"frame_rate":16.725,"frame_rate_array":[12,17,16,18,17,15,18,16,17,17,16,17,17,17,16,17,17,17,17,15,18,17,15,17,18,16,16,18,17,17,16,18,16,17,17,17,16,18,16,16,17,17,15,18,16,17,18,16,17,16,18,16,17,17,18,16,16,16,17,18,18,16,15,18,17,18,16,16,18,15,18,17,17,15,17,17,17,17,17,17,17,16,17,16,17,18,17,17,17,15,17,18,17,16,16,18,16,17,16,18,16,17,16,17,16,17,17,17,16,17,17,16,17,17,17,17,17,17,15,18],"number_of_frames":120,"aperture_center_x":768,"aperture_center_y":432,"fixation_cross":true,"fixation_cross_width":15,"fixation_cross_height":15,"fixation_cross_color":"#111","fixation_cross_thickness":1,"border":true,"border_thickness":2,"border_color":"transparent","canvas_width":1536,"canvas_height":864,"trial_type":"rdk","trial_index":15,"plugin_version":"2.0.0","time_elapsed":131896,"phase":"practice","target_direction":108,"distractor_direction":348},{"rt":3091,"stimulus":"\n        <div class=\"response-container\">\n          <div class=\"response-instruction\">\n            <p>rotate the bar by using the left and right arrow keys.</p>\n            <p>when you are determined, press the Enter key.</p>\n          </div>\n          <div class=\"response-circle\">\n            <div class=\"response-fixation\"></div>\n            <div id=\"bar\" class=\"rotating-bar\"></div>\n          </div>\n        </div>\n      ","response":"Enter","trial_type":"html-keyboard-response","trial_index":16,"plugin_version":"2.1.0","time_elapsed":134988,"random_initial_angle":311,"response_angle_css":333,"response_angle_rdk":117,"angular_error_target":9,"angular_error_distractor":129,"target_direction":108,"target_group":"white","reward_points":8},{"rt":null,"stimulus":"\n          <p style=\"color: #00FF00;\">Your reward: 8 points</p>\n        ","response":null,"trial_type":"html-keyboard-response","trial_index":17,"plugin_version":"2.1.0","time_elapsed":136998},{"rt":null,"stimulus":"<div class=\"fixation\" style=\"font-size: 60px;\">+</div>","response":null,"trial_type":"html-keyboard-response","trial_index":18,"plugin_version":"2.1.0","time_elapsed":138002},{"target_group":"black","target_index":1,"condition_label":"practice","rt":-1,"response":"","correct":false,"choices":"ALL_KEYS","correct_choice":["a"],"trial_duration":2000,"flip_timestamps":[],"response_ends_trial":false,"number_of_apertures":2,"number_of_dots":[87,100],"number_of_sets":1,"coherent_direction":[36,263],"coherence":1,"opposite_coherence":0,"dot_radius":2,"dot_side_length":1,"dot_life":-1,"move_distance":1,"aperture_width":300,"aperture_height":300,"dot_color":["white","black"],"dot_shape":"circle","background_color":"#AAA","RDK_type":3,"aperture_type":2,"reinsert_type":2,"frame_rate":16.683333333333334,"frame_rate_array":[12,16,16,17,16,17,16,17,17,16,17,17,17,16,18,16,17,17,18,16,17,17,16,17,16,16,18,15,16,18,16,18,15,16,18,17,17,16,17,17,16,17,16,16,18,16,17,17,18,15,18,16,18,16,18,16,17,17,17,17,16,17,16,17,17,17,17,17,16,17,17,16,18,17,17,17,16,17,15,17,19,16,16,17,17,17,16,16,18,16,17,18,15,17,17,18,17,16,17,16,16,16,18,15,18,16,18,16,17,16,17,18,17,18,16,16,17,17,16,16],"number_of_frames":120,"aperture_center_x":768,"aperture_center_y":432,"fixation_cross":true,"fixation_cross_width":15,"fixation_cross_height":15,"fixation_cross_color":"#111","fixation_cross_thickness":1,"border":true,"border_thickness":2,"border_color":"transparent","canvas_width":1536,"canvas_height":864,"trial_type":"rdk","trial_index":19,"plugin_version":"2.0.0","time_elapsed":140005,"phase":"practice","target_direction":263,"distractor_direction":36},{"rt":6070,"stimulus":"\n        <div class=\"response-container\">\n          <div class=\"response-instruction\">\n            <p>rotate the bar by using the left and right arrow keys.</p>\n            <p>when you are determined, press the Enter key.</p>\n          </div>\n          <div class=\"response-circle\">\n            <div class=\"response-fixation\"></div>\n            <div id=\"bar\" class=\"rotating-bar\"></div>\n          </div>\n        </div>\n      ","response":"Enter","trial_type":"html-keyboard-response","trial_index":20,"plugin_version":"2.1.0","time_elapsed":146076,"random_initial_angle":170,"response_angle_css":29,"response_angle_rdk":61,"angular_error_target":158,"angular_error_distractor":25,"target_direction":263,"target_group":"black","reward_points":0},{"rt":null,"stimulus":"\n          <p style=\"color: #FF3333;\">Your reward: 0 points</p>\n        ","response":null,"trial_type":"html-keyboard-response","trial_index":21,"plugin_version":"2.1.0","time_elapsed":148078},{"rt":null,"stimulus":"<div class=\"fixation\" style=\"font-size: 60px;\">+</div>","response":null,"trial_type":"html-keyboard-response","trial_index":22,"plugin_version":"2.1.0","time_elapsed":149080},{"target_group":"white","target_index":0,"condition_label":"practice","rt":-1,"response":"","correct":false,"choices":"ALL_KEYS","correct_choice":["a"],"trial_duration":2000,"flip_timestamps":[],"response_ends_trial":false,"number_of_apertures":2,"number_of_dots":[100,99],"number_of_sets":1,"coherent_direction":[48,281],"coherence":1,"opposite_coherence":0,"dot_radius":2,"dot_side_length":1,"dot_life":-1,"move_distance":1,"aperture_width":300,"aperture_height":300,"dot_color":["white","black"],"dot_shape":"circle","background_color":"#AAA","RDK_type":3,"aperture_type":2,"reinsert_type":2,"frame_rate":16.59504132231405,"frame_rate_array":[15,11,14,16,18,17,16,16,18,16,17,18,15,17,16,18,18,16,15,18,17,16,17,17,15,18,16,16,17,16,17,16,18,17,15,17,17,16,18,15,18,16,18,15,18,15,19,15,17,16,18,15,18,16,18,16,16,16,17,18,16,17,16,18,16,16,17,16,18,17,15,17,17,17,16,18,16,16,17,18,17,15,17,17,17,16,17,16,18,17,17,17,16,15,18,16,17,16,17,17,17,16,17,17,17,18,16,15,18,15,18,16,16,17,18,15,18,15,17,17,17],"number_of_frames":121,"aperture_center_x":768,"aperture_center_y":432,"fixation_cross":true,"fixation_cross_width":15,"fixation_cross_height":15,"fixation_cross_color":"#111","fixation_cross_thickness":1,"border":true,"border_thickness":2,"border_color":"transparent","canvas_width":1536,"canvas_height":864,"trial_type":"rdk","trial_index":23,"plugin_version":"2.0.0","time_elapsed":151089,"phase":"practice","target_direction":48,"distractor_direction":281},{"rt":4618,"stimulus":"\n        <div class=\"response-container\">\n          <div class=\"response-instruction\">\n            <p>rotate the bar by using the left and right arrow keys.</p>\n            <p>when you are determined, press the Enter key.</p>\n          </div>\n          <div class=\"response-circle\">\n            <div class=\"response-fixation\"></div>\n            <div id=\"bar\" class=\"rotating-bar\"></div>\n          </div>\n        </div>\n      ","response":"Enter","trial_type":"html-keyboard-response","trial_index":24,"plugin_version":"2.1.0","time_elapsed":155708,"random_initial_angle":142,"response_angle_css":35,"response_angle_rdk":55,"angular_error_target":7,"angular_error_distractor":134,"target_direction":48,"target_group":"white","reward_points":8},{"rt":null,"stimulus":"\n          <p style=\"color: #00FF00;\">Your reward: 8 points</p>\n        ","response":null,"trial_type":"html-keyboard-response","trial_index":25,"plugin_version":"2.1.0","time_elapsed":157717},{"rt":null,"stimulus":"<div class=\"fixation\" style=\"font-size: 60px;\">+</div>","response":null,"trial_type":"html-keyboard-response","trial_index":26,"plugin_version":"2.1.0","time_elapsed":158720},{"target_group":"white","target_index":0,"condition_label":"practice","rt":-1,"response":"","correct":false,"choices":"ALL_KEYS","correct_choice":["a"],"trial_duration":2000,"flip_timestamps":[],"response_ends_trial":false,"number_of_apertures":2,"number_of_dots":[100,60],"number_of_sets":1,"coherent_direction":[121,318],"coherence":1,"opposite_coherence":0,"dot_radius":2,"dot_side_length":1,"dot_life":-1,"move_distance":1,"aperture_width":300,"aperture_height":300,"dot_color":["white","black"],"dot_shape":"circle","background_color":"#AAA","RDK_type":3,"aperture_type":2,"reinsert_type":2,"frame_rate":16.691666666666666,"frame_rate_array":[11,15,17,17,15,17,18,17,17,16,16,17,16,18,17,17,15,17,17,16,17,18,16,17,17,15,18,17,16,17,17,18,17,15,17,18,15,18,16,18,16,16,18,16,18,16,17,16,18,16,17,17,15,18,18,16,16,17,17,17,17,18,15,16,17,17,16,17,17,16,17,18,17,15,19,15,18,17,16,16,16,18,17,16,17,17,17,16,17,17,15,18,16,16,17,17,17,16,18,16,17,17,17,16,17,17,17,16,17,17,17,18,17,17,17,16,17,17,16,17],"number_of_frames":120,"aperture_center_x":768,"aperture_center_y":432,"fixation_cross":true,"fixation_cross_width":15,"fixation_cross_height":15,"fixation_cross_color":"#111","fixation_cross_thickness":1,"border":true,"border_thickness":2,"border_color":"transparent","canvas_width":1536,"canvas_height":864,"trial_type":"rdk","trial_index":27,"plugin_version":"2.0.0","time_elapsed":160727,"phase":"practice","target_direction":121,"distractor_direction":318},{"rt":3609,"stimulus":"\n        <div class=\"response-container\">\n          <div class=\"response-instruction\">\n            <p>rotate the bar by using the left and right arrow keys.</p>\n            <p>when you are determined, press the Enter key.</p>\n          </div>\n          <div class=\"response-circle\">\n            <div class=\"response-fixation\"></div>\n            <div id=\"bar\" class=\"rotating-bar\"></div>\n          </div>\n        </div>\n      ","response":"Enter","trial_type":"html-keyboard-response","trial_index":28,"plugin_version":"2.1.0","time_elapsed":164336,"random_initial_angle":18,"response_angle_css":-37,"response_angle_rdk":127,"angular_error_target":6,"angular_error_distractor":169,"target_direction":121,"target_group":"white","reward_points":8},{"rt":null,"stimulus":"\n          <p style=\"color: #00FF00;\">Your reward: 8 points</p>\n        ","response":null,"trial_type":"html-keyboard-response","trial_index":29,"plugin_version":"2.1.0","time_elapsed":166344},{"rt":null,"stimulus":"<div class=\"fixation\" style=\"font-size: 60px;\">+</div>","response":null,"trial_type":"html-keyboard-response","trial_index":30,"plugin_version":"2.1.0","time_elapsed":167351},{"target_group":"black","target_index":1,"condition_label":"practice","rt":-1,"response":"","correct":false,"choices":"ALL_KEYS","correct_choice":["a"],"trial_duration":2000,"flip_timestamps":[],"response_ends_trial":false,"number_of_apertures":2,"number_of_dots":[63,100],"number_of_sets":1,"coherent_direction":[271,17],"coherence":1,"opposite_coherence":0,"dot_radius":2,"dot_side_length":1,"dot_life":-1,"move_distance":1,"aperture_width":300,"aperture_height":300,"dot_color":["white","black"],"dot_shape":"circle","background_color":"#AAA","RDK_type":3,"aperture_type":2,"reinsert_type":2,"frame_rate":16.628099173553718,"frame_rate_array":[3,17,17,17,18,15,17,17,17,16,16,17,17,18,15,18,16,17,17,17,16,17,18,16,17,18,16,16,17,17,17,18,16,17,16,16,17,17,16,17,18,16,15,17,18,15,17,17,16,18,15,18,16,16,17,18,16,18,15,17,17,17,16,17,18,15,17,18,17,16,16,17,17,16,18,16,16,17,17,18,15,17,16,17,18,17,16,17,16,17,18,17,15,17,16,18,17,17,17,17,15,17,17,18,17,17,16,15,17,17,17,17,17,16,17,17,16,17,17,17,17],"number_of_frames":121,"aperture_center_x":768,"aperture_center_y":432,"fixation_cross":true,"fixation_cross_width":15,"fixation_cross_height":15,"fixation_cross_color":"#111","fixation_cross_thickness":1,"border":true,"border_thickness":2,"border_color":"transparent","canvas_width":1536,"canvas_height":864,"trial_type":"rdk","trial_index":31,"plugin_version":"2.0.0","time_elapsed":169356,"phase":"practice","target_direction":17,"distractor_direction":271},{"rt":4551,"stimulus":"\n        <div class=\"response-container\">\n          <div class=\"response-instruction\">\n            <p>rotate the bar by using the left and right arrow keys.</p>\n            <p>when you are determined, press the Enter key.</p>\n          </div>\n          <div class=\"response-circle\">\n            <div class=\"response-fixation\"></div>\n            <div id=\"bar\" class=\"rotating-bar\"></div>\n          </div>\n        </div>\n      ","response":"Enter","trial_type":"html-keyboard-response","trial_index":32,"plugin_version":"2.1.0","time_elapsed":173908,"random_initial_angle":225,"response_angle_css":411,"response_angle_rdk":39,"angular_error_target":22,"angular_error_distractor":128,"target_direction":17,"target_group":"black","reward_points":5},{"rt":null,"stimulus":"\n          <p style=\"color: #00FF00;\">Your reward: 5 points</p>\n        ","response":null,"trial_type":"html-keyboard-response","trial_index":33,"plugin_version":"2.1.0","time_elapsed":175915},{"rt":null,"stimulus":"<div class=\"fixation\" style=\"font-size: 60px;\">+</div>","response":null,"trial_type":"html-keyboard-response","trial_index":34,"plugin_version":"2.1.0","time_elapsed":176926},{"target_group":"black","target_index":1,"condition_label":"practice","rt":-1,"response":"","correct":false,"choices":"ALL_KEYS","correct_choice":["a"],"trial_duration":2000,"flip_timestamps":[],"response_ends_trial":false,"number_of_apertures":2,"number_of_dots":[68,100],"number_of_sets":1,"coherent_direction":[98,346],"coherence":1,"opposite_coherence":0,"dot_radius":2,"dot_side_length":1,"dot_life":-1,"move_distance":1,"aperture_width":300,"aperture_height":300,"dot_color":["white","black"],"dot_shape":"circle","background_color":"#AAA","RDK_type":3,"aperture_type":2,"reinsert_type":2,"frame_rate":16.619834710743802,"frame_rate_array":[3,17,18,15,17,18,16,16,17,16,18,17,17,16,17,17,16,16,17,17,16,18,17,17,15,17,18,17,16,16,17,17,17,17,16,18,17,17,17,17,16,16,18,15,18,17,16,17,17,16,18,15,17,17,16,19,16,16,17,16,17,17,18,16,16,18,16,18,16,18,15,18,16,17,16,17,18,15,18,16,17,16,16,17,16,18,15,16,17,18,17,16,17,16,17,17,18,15,17,16,17,17,18,15,18,16,17,16,18,18,14,17,16,17,17,17,17,18,15,17,17],"number_of_frames":121,"aperture_center_x":768,"aperture_center_y":432,"fixation_cross":true,"fixation_cross_width":15,"fixation_cross_height":15,"fixation_cross_color":"#111","fixation_cross_thickness":1,"border":true,"border_thickness":2,"border_color":"transparent","canvas_width":1536,"canvas_height":864,"trial_type":"rdk","trial_index":35,"plugin_version":"2.0.0","time_elapsed":178931,"phase":"practice","target_direction":346,"distractor_direction":98},{"rt":4626,"stimulus":"\n        <div class=\"response-container\">\n          <div class=\"response-instruction\">\n            <p>rotate the bar by using the left and right arrow keys.</p>\n            <p>when you are determined, press the Enter key.</p>\n          </div>\n          <div class=\"response-circle\">\n            <div class=\"response-fixation\"></div>\n            <div id=\"bar\" class=\"rotating-bar\"></div>\n          </div>\n        </div>\n      ","response":"Enter","trial_type":"html-keyboard-response","trial_index":36,"plugin_version":"2.1.0","time_elapsed":183557,"random_initial_angle":196,"response_angle_css":119,"response_angle_rdk":331,"angular_error_target":-15,"angular_error_distractor":-127,"target_direction":346,"target_group":"black","reward_points":7},{"rt":null,"stimulus":"\n          <p style=\"color: #00FF00;\">Your reward: 7 points</p>\n        ","response":null,"trial_type":"html-keyboard-response","trial_index":37,"plugin_version":"2.1.0","time_elapsed":185563},{"rt":null,"stimulus":"<div class=\"fixation\" style=\"font-size: 60px;\">+</div>","response":null,"trial_type":"html-keyboard-response","trial_index":38,"plugin_version":"2.1.0","time_elapsed":186569},{"target_group":"black","target_index":1,"condition_label":"practice","rt":-1,"response":"","correct":false,"choices":"ALL_KEYS","correct_choice":["a"],"trial_duration":2000,"flip_timestamps":[],"response_ends_trial":false,"number_of_apertures":2,"number_of_dots":[59,100],"number_of_sets":1,"coherent_direction":[209,71],"coherence":1,"opposite_coherence":0,"dot_radius":2,"dot_side_length":1,"dot_life":-1,"move_distance":1,"aperture_width":300,"aperture_height":300,"dot_color":["white","black"],"dot_shape":"circle","background_color":"#AAA","RDK_type":3,"aperture_type":2,"reinsert_type":2,"frame_rate":16.636363636363637,"frame_rate_array":[5,14,17,16,18,17,17,15,17,17,17,17,15,18,17,16,16,17,17,18,16,18,15,18,17,16,17,17,17,17,15,18,17,16,16,17,17,17,16,17,18,16,18,17,15,18,16,17,15,17,17,17,17,16,17,17,17,17,15,18,18,16,16,17,16,17,18,17,15,19,16,17,16,16,18,16,17,16,17,17,17,16,17,18,16,18,15,17,17,17,16,16,18,16,18,16,17,16,17,17,16,16,18,16,18,17,16,17,18,16,17,16,18,16,17,17,18,15,18,17,16],"number_of_frames":121,"aperture_center_x":768,"aperture_center_y":432,"fixation_cross":true,"fixation_cross_width":15,"fixation_cross_height":15,"fixation_cross_color":"#111","fixation_cross_thickness":1,"border":true,"border_thickness":2,"border_color":"transparent","canvas_width":1536,"canvas_height":864,"trial_type":"rdk","trial_index":39,"plugin_version":"2.0.0","time_elapsed":188573,"phase":"practice","target_direction":71,"distractor_direction":209},{"rt":3372,"stimulus":"\n        <div class=\"response-container\">\n          <div class=\"response-instruction\">\n            <p>rotate the bar by using the left and right arrow keys.</p>\n            <p>when you are determined, press the Enter key.</p>\n          </div>\n          <div class=\"response-circle\">\n            <div class=\"response-fixation\"></div>\n            <div id=\"bar\" class=\"rotating-bar\"></div>\n          </div>\n        </div>\n      ","response":"Enter","trial_type":"html-keyboard-response","trial_index":40,"plugin_version":"2.1.0","time_elapsed":191946,"random_initial_angle":250,"response_angle_css":381,"response_angle_rdk":69,"angular_error_target":-2,"angular_error_distractor":-140,"target_direction":71,"target_group":"black","reward_points":9},{"rt":null,"stimulus":"\n          <p style=\"color: #00FF00;\">Your reward: 9 points</p>\n        ","response":null,"trial_type":"html-keyboard-response","trial_index":41,"plugin_version":"2.1.0","time_elapsed":193950},{"rt":null,"stimulus":"<div class=\"fixation\" style=\"font-size: 60px;\">+</div>","response":null,"trial_type":"html-keyboard-response","trial_index":42,"plugin_version":"2.1.0","time_elapsed":194954},{"target_group":"white","target_index":0,"condition_label":"practice","rt":-1,"response":"","correct":false,"choices":"ALL_KEYS","correct_choice":["a"],"trial_duration":2000,"flip_timestamps":[],"response_ends_trial":false,"number_of_apertures":2,"number_of_dots":[100,71],"number_of_sets":1,"coherent_direction":[122,225],"coherence":1,"opposite_coherence":0,"dot_radius":2,"dot_side_length":1,"dot_life":-1,"move_distance":1,"aperture_width":300,"aperture_height":300,"dot_color":["white","black"],"dot_shape":"circle","background_color":"#AAA","RDK_type":3,"aperture_type":2,"reinsert_type":2,"frame_rate":16.708333333333332,"frame_rate_array":[19,12,13,17,17,17,15,18,17,17,16,16,18,16,18,17,15,18,17,16,16,18,16,17,18,16,16,18,17,16,16,18,16,17,17,16,17,18,17,16,18,17,16,17,17,17,17,15,17,17,17,15,17,16,17,18,18,15,18,16,16,17,17,18,16,16,17,17,16,18,16,19,15,17,18,15,18,16,16,17,18,16,16,16,17,17,16,18,17,16,16,18,17,16,17,16,18,16,16,17,17,17,17,16,17,16,18,16,17,17,17,16,18,15,18,17,16,17,17,17],"number_of_frames":120,"aperture_center_x":768,"aperture_center_y":432,"fixation_cross":true,"fixation_cross_width":15,"fixation_cross_height":15,"fixation_cross_color":"#111","fixation_cross_thickness":1,"border":true,"border_thickness":2,"border_color":"transparent","canvas_width":1536,"canvas_height":864,"trial_type":"rdk","trial_index":43,"plugin_version":"2.0.0","time_elapsed":196960,"phase":"practice","target_direction":122,"distractor_direction":225},{"rt":5023,"stimulus":"\n        <div class=\"response-container\">\n          <div class=\"response-instruction\">\n            <p>rotate the bar by using the left and right arrow keys.</p>\n            <p>when you are determined, press the Enter key.</p>\n          </div>\n          <div class=\"response-circle\">\n            <div class=\"response-fixation\"></div>\n            <div id=\"bar\" class=\"rotating-bar\"></div>\n          </div>\n        </div>\n      ","response":"Enter","trial_type":"html-keyboard-response","trial_index":44,"plugin_version":"2.1.0","time_elapsed":201984,"random_initial_angle":162,"response_angle_css":-24,"response_angle_rdk":114,"angular_error_target":-8,"angular_error_distractor":-111,"target_direction":122,"target_group":"white","reward_points":8},{"rt":null,"stimulus":"\n          <p style=\"color: #00FF00;\">Your reward: 8 points</p>\n        ","response":null,"trial_type":"html-keyboard-response","trial_index":45,"plugin_version":"2.1.0","time_elapsed":203994},{"rt":null,"stimulus":"<div class=\"fixation\" style=\"font-size: 60px;\">+</div>","response":null,"trial_type":"html-keyboard-response","trial_index":46,"plugin_version":"2.1.0","time_elapsed":205000},{"target_group":"white","target_index":0,"condition_label":"practice","rt":-1,"response":"","correct":false,"choices":"ALL_KEYS","correct_choice":["a"],"trial_duration":2000,"flip_timestamps":[],"response_ends_trial":false,"number_of_apertures":2,"number_of_dots":[100,55],"number_of_sets":1,"coherent_direction":[2,114],"coherence":1,"opposite_coherence":0,"dot_radius":2,"dot_side_length":1,"dot_life":-1,"move_distance":1,"aperture_width":300,"aperture_height":300,"dot_color":["white","black"],"dot_shape":"circle","background_color":"#AAA","RDK_type":3,"aperture_type":2,"reinsert_type":2,"frame_rate":16.578512396694215,"frame_rate_array":[5,17,18,16,16,17,15,17,18,15,17,16,16,17,17,16,17,16,17,17,17,15,18,16,16,17,17,16,17,17,16,16,16,18,17,17,18,16,17,16,18,17,16,18,16,17,16,17,16,17,17,17,18,15,17,16,17,17,17,16,17,17,16,17,17,16,16,17,16,18,17,16,16,19,15,18,16,17,17,17,17,17,17,15,17,17,17,15,17,16,17,17,17,16,17,16,17,17,16,17,17,16,16,18,17,17,16,16,18,17,17,16,16,17,18,16,17,17,16,17,16],"number_of_frames":121,"aperture_center_x":768,"aperture_center_y":432,"fixation_cross":true,"fixation_cross_width":15,"fixation_cross_height":15,"fixation_cross_color":"#111","fixation_cross_thickness":1,"border":true,"border_thickness":2,"border_color":"transparent","canvas_width":1536,"canvas_height":864,"trial_type":"rdk","trial_index":47,"plugin_version":"2.0.0","time_elapsed":207009,"phase":"practice","target_direction":2,"distractor_direction":114},{"rt":3815,"stimulus":"\n        <div class=\"response-container\">\n          <div class=\"response-instruction\">\n            <p>rotate the bar by using the left and right arrow keys.</p>\n            <p>when you are determined, press the Enter key.</p>\n          </div>\n          <div class=\"response-circle\">\n            <div class=\"response-fixation\"></div>\n            <div id=\"bar\" class=\"rotating-bar\"></div>\n          </div>\n        </div>\n      ","response":"Enter","trial_type":"html-keyboard-response","trial_index":48,"plugin_version":"2.1.0","time_elapsed":210825,"random_initial_angle":217,"response_angle_css":450,"response_angle_rdk":0,"angular_error_target":-2,"angular_error_distractor":-114,"target_direction":2,"target_group":"white","reward_points":9},{"rt":null,"stimulus":"\n          <p style=\"color: #00FF00;\">Your reward: 9 points</p>\n        ","response":null,"trial_type":"html-keyboard-response","trial_index":49,"plugin_version":"2.1.0","time_elapsed":212836},{"rt":null,"stimulus":"<div class=\"fixation\" style=\"font-size: 60px;\">+</div>","response":null,"trial_type":"html-keyboard-response","trial_index":50,"plugin_version":"2.1.0","time_elapsed":213844},{"target_group":"black","target_index":1,"condition_label":"practice","rt":-1,"response":"","correct":false,"choices":"ALL_KEYS","correct_choice":["a"],"trial_duration":2000,"flip_timestamps":[],"response_ends_trial":false,"number_of_apertures":2,"number_of_dots":[74,100],"number_of_sets":1,"coherent_direction":[47,232],"coherence":1,"opposite_coherence":0,"dot_radius":2,"dot_side_length":1,"dot_life":-1,"move_distance":1,"aperture_width":300,"aperture_height":300,"dot_color":["white","black"],"dot_shape":"circle","background_color":"#AAA","RDK_type":3,"aperture_type":2,"reinsert_type":2,"frame_rate":16.628099173553718,"frame_rate_array":[6,15,16,18,17,17,16,16,17,17,17,17,17,17,17,17,15,18,16,16,17,16,18,16,18,16,17,16,17,18,16,16,17,17,16,17,16,18,16,17,17,16,17,18,15,18,17,17,16,17,17,16,18,16,16,17,17,17,16,18,16,16,18,17,16,17,16,17,17,16,18,17,16,17,16,18,17,17,16,17,16,17,17,17,17,18,15,18,16,17,17,17,16,17,18,17,15,17,17,15,17,16,17,18,17,15,17,18,15,16,17,17,17,18,16,15,19,15,17,18,15],"number_of_frames":121,"aperture_center_x":768,"aperture_center_y":432,"fixation_cross":true,"fixation_cross_width":15,"fixation_cross_height":15,"fixation_cross_color":"#111","fixation_cross_thickness":1,"border":true,"border_thickness":2,"border_color":"transparent","canvas_width":1536,"canvas_height":864,"trial_type":"rdk","trial_index":51,"plugin_version":"2.0.0","time_elapsed":215850,"phase":"practice","target_direction":232,"distractor_direction":47},{"rt":3435,"stimulus":"\n        <div class=\"response-container\">\n          <div class=\"response-instruction\">\n            <p>rotate the bar by using the left and right arrow keys.</p>\n            <p>when you are determined, press the Enter key.</p>\n          </div>\n          <div class=\"response-circle\">\n            <div class=\"response-fixation\"></div>\n            <div id=\"bar\" class=\"rotating-bar\"></div>\n          </div>\n        </div>\n      ","response":"Enter","trial_type":"html-keyboard-response","trial_index":52,"plugin_version":"2.1.0","time_elapsed":219285,"random_initial_angle":142,"response_angle_css":226,"response_angle_rdk":224,"angular_error_target":-8,"angular_error_distractor":177,"target_direction":232,"target_group":"black","reward_points":8},{"rt":null,"stimulus":"\n          <p style=\"color: #00FF00;\">Your reward: 8 points</p>\n        ","response":null,"trial_type":"html-keyboard-response","trial_index":53,"plugin_version":"2.1.0","time_elapsed":221302},{"rt":null,"stimulus":"<div class=\"fixation\" style=\"font-size: 60px;\">+</div>","response":null,"trial_type":"html-keyboard-response","trial_index":54,"plugin_version":"2.1.0","time_elapsed":222312},{"target_group":"black","target_index":1,"condition_label":"practice","rt":-1,"response":"","correct":false,"choices":"ALL_KEYS","correct_choice":["a"],"trial_duration":2000,"flip_timestamps":[],"response_ends_trial":false,"number_of_apertures":2,"number_of_dots":[90,100],"number_of_sets":1,"coherent_direction":[61,218],"coherence":1,"opposite_coherence":0,"dot_radius":2,"dot_side_length":1,"dot_life":-1,"move_distance":1,"aperture_width":300,"aperture_height":300,"dot_color":["white","black"],"dot_shape":"circle","background_color":"#AAA","RDK_type":3,"aperture_type":2,"reinsert_type":2,"frame_rate":16.691666666666666,"frame_rate_array":[15,14,15,17,16,16,18,16,18,16,16,18,17,18,16,16,18,16,17,16,17,18,16,17,17,16,17,17,18,16,18,17,16,17,16,17,18,16,18,16,17,16,17,17,17,18,16,17,15,17,17,17,17,16,17,16,19,16,17,16,17,16,17,18,16,16,17,17,17,17,16,15,18,16,17,16,17,17,16,17,17,16,16,17,16,17,18,17,16,17,17,17,15,17,17,17,16,17,16,16,18,17,17,17,16,17,16,17,17,16,16,17,17,18,15,19,16,15,18,17],"number_of_frames":120,"aperture_center_x":768,"aperture_center_y":432,"fixation_cross":true,"fixation_cross_width":15,"fixation_cross_height":15,"fixation_cross_color":"#111","fixation_cross_thickness":1,"border":true,"border_thickness":2,"border_color":"transparent","canvas_width":1536,"canvas_height":864,"trial_type":"rdk","trial_index":55,"plugin_version":"2.0.0","time_elapsed":224318,"phase":"practice","target_direction":218,"distractor_direction":61},{"rt":2254,"stimulus":"\n        <div class=\"response-container\">\n          <div class=\"response-instruction\">\n            <p>rotate the bar by using the left and right arrow keys.</p>\n            <p>when you are determined, press the Enter key.</p>\n          </div>\n          <div class=\"response-circle\">\n            <div class=\"response-fixation\"></div>\n            <div id=\"bar\" class=\"rotating-bar\"></div>\n          </div>\n        </div>\n      ","response":"Enter","trial_type":"html-keyboard-response","trial_index":56,"plugin_version":"2.1.0","time_elapsed":226572,"random_initial_angle":210,"response_angle_css":224,"response_angle_rdk":226,"angular_error_target":8,"angular_error_distractor":165,"target_direction":218,"target_group":"black","reward_points":8},{"rt":null,"stimulus":"\n          <p style=\"color: #00FF00;\">Your reward: 8 points</p>\n        ","response":null,"trial_type":"html-keyboard-response","trial_index":57,"plugin_version":"2.1.0","time_elapsed":228573},{"rt":null,"stimulus":"<div class=\"fixation\" style=\"font-size: 60px;\">+</div>","response":null,"trial_type":"html-keyboard-response","trial_index":58,"plugin_version":"2.1.0","time_elapsed":229578},{"target_group":"black","target_index":1,"condition_label":"practice","rt":-1,"response":"","correct":false,"choices":"ALL_KEYS","correct_choice":["a"],"trial_duration":2000,"flip_timestamps":[],"response_ends_trial":false,"number_of_apertures":2,"number_of_dots":[79,100],"number_of_sets":1,"coherent_direction":[262,19],"coherence":1,"opposite_coherence":0,"dot_radius":2,"dot_side_length":1,"dot_life":-1,"move_distance":1,"aperture_width":300,"aperture_height":300,"dot_color":["white","black"],"dot_shape":"circle","background_color":"#AAA","RDK_type":3,"aperture_type":2,"reinsert_type":2,"frame_rate":16.65289256198347,"frame_rate_array":[11,14,17,16,17,17,17,16,16,18,17,16,16,16,17,17,16,19,16,16,17,17,16,17,17,17,16,17,19,16,17,15,18,16,18,16,17,15,17,17,17,17,16,16,17,17,17,17,17,15,17,18,17,16,18,16,17,16,17,17,16,17,18,16,17,16,18,16,15,17,17,18,15,18,17,16,17,17,16,17,18,16,17,16,16,18,17,16,17,18,15,17,18,16,17,18,16,16,16,17,17,17,17,17,17,16,17,16,18,16,17,17,15,17,17,17,16,18,17,16,16],"number_of_frames":121,"aperture_center_x":768,"aperture_center_y":432,"fixation_cross":true,"fixation_cross_width":15,"fixation_cross_height":15,"fixation_cross_color":"#111","fixation_cross_thickness":1,"border":true,"border_thickness":2,"border_color":"transparent","canvas_width":1536,"canvas_height":864,"trial_type":"rdk","trial_index":59,"plugin_version":"2.0.0","time_elapsed":231586,"phase":"practice","target_direction":19,"distractor_direction":262},{"rt":4329,"stimulus":"\n        <div class=\"response-container\">\n          <div class=\"response-instruction\">\n            <p>rotate the bar by using the left and right arrow keys.</p>\n            <p>when you are determined, press the Enter key.</p>\n          </div>\n          <div class=\"response-circle\">\n            <div class=\"response-fixation\"></div>\n            <div id=\"bar\" class=\"rotating-bar\"></div>\n          </div>\n        </div>\n      ","response":"Enter","trial_type":"html-keyboard-response","trial_index":60,"plugin_version":"2.1.0","time_elapsed":235916,"random_initial_angle":98,"response_angle_css":215,"response_angle_rdk":235,"angular_error_target":-144,"angular_error_distractor":-27,"target_direction":19,"target_group":"black","reward_points":0},{"rt":null,"stimulus":"\n          <p style=\"color: #FF3333;\">Your reward: 0 points</p>\n        ","response":null,"trial_type":"html-keyboard-response","trial_index":61,"plugin_version":"2.1.0","time_elapsed":237931},{"rt":null,"stimulus":"<div class=\"fixation\" style=\"font-size: 60px;\">+</div>","response":null,"trial_type":"html-keyboard-response","trial_index":62,"plugin_version":"2.1.0","time_elapsed":238936},{"target_group":"white","target_index":0,"condition_label":"practice","rt":-1,"response":"","correct":false,"choices":"ALL_KEYS","correct_choice":["a"],"trial_duration":2000,"flip_timestamps":[],"response_ends_trial":false,"number_of_apertures":2,"number_of_dots":[100,86],"number_of_sets":1,"coherent_direction":[342,247],"coherence":1,"opposite_coherence":0,"dot_radius":2,"dot_side_length":1,"dot_life":-1,"move_distance":1,"aperture_width":300,"aperture_height":300,"dot_color":["white","black"],"dot_shape":"circle","background_color":"#AAA","RDK_type":3,"aperture_type":2,"reinsert_type":2,"frame_rate":16.616666666666667,"frame_rate_array":[11,13,16,18,17,17,15,17,17,16,17,18,15,18,17,16,17,18,16,16,18,16,18,16,16,17,17,17,16,18,15,17,17,17,17,16,16,18,15,17,17,16,17,17,17,17,15,16,18,16,17,17,16,16,18,17,16,17,17,17,15,18,16,18,16,18,15,17,18,15,17,18,18,14,17,17,16,17,18,17,17,15,17,18,17,15,18,17,16,16,18,16,18,17,16,16,17,17,17,17,16,17,16,17,16,17,16,18,15,18,16,16,17,18,15,17,17,17,15,17],"number_of_frames":120,"aperture_center_x":768,"aperture_center_y":432,"fixation_cross":true,"fixation_cross_width":15,"fixation_cross_height":15,"fixation_cross_color":"#111","fixation_cross_thickness":1,"border":true,"border_thickness":2,"border_color":"transparent","canvas_width":1536,"canvas_height":864,"trial_type":"rdk","trial_index":63,"plugin_version":"2.0.0","time_elapsed":240938,"phase":"practice","target_direction":342,"distractor_direction":247},{"rt":2529,"stimulus":"\n        <div class=\"response-container\">\n          <div class=\"response-instruction\">\n            <p>rotate the bar by using the left and right arrow keys.</p>\n            <p>when you are determined, press the Enter key.</p>\n          </div>\n          <div class=\"response-circle\">\n            <div class=\"response-fixation\"></div>\n            <div id=\"bar\" class=\"rotating-bar\"></div>\n          </div>\n        </div>\n      ","response":"Enter","trial_type":"html-keyboard-response","trial_index":64,"plugin_version":"2.1.0","time_elapsed":243467,"random_initial_angle":90,"response_angle_css":79,"response_angle_rdk":11,"angular_error_target":29,"angular_error_distractor":124,"target_direction":342,"target_group":"white","reward_points":4},{"rt":null,"stimulus":"\n          <p style=\"color: #00FF00;\">Your reward: 4 points</p>\n        ","response":null,"trial_type":"html-keyboard-response","trial_index":65,"plugin_version":"2.1.0","time_elapsed":245484},{"rt":3485,"stimulus":"\n        <div class=\"instructions-container\">\n          <h2>End of Practice</h2>\n          <p>You have completed the practice trials.</p>\n          <p>Press <strong>Enter</strong> key to begin the main experiment.</p>\n        </div>\n      ","response":"Enter","trial_type":"html-keyboard-response","trial_index":66,"plugin_version":"2.1.0","time_elapsed":248970},{"rt":null,"stimulus":"<div class=\"fixation\" style=\"font-size: 60px;\">+</div>","response":null,"trial_type":"html-keyboard-response","trial_index":67,"plugin_version":"2.1.0","time_elapsed":249974},{"phase":"learning-awareness","target_group":"black","condition_label":"B_H_vs_W_L_rep7","target_direction":300,"distractor_direction":37,"session_rotation":174,"rt":-1,"response":"","correct":false,"choices":"ALL_KEYS","correct_choice":["a"],"trial_duration":2000,"flip_timestamps":[],"response_ends_trial":false,"number_of_apertures":200,"number_of_dots":[1,1,1,1,1,1,1,1,1,1,1,1,1,1,1,1,1,1,1,1,1,1,1,1,1,1,1,1,1,1,1,1,1,1,1,1,1,1,1,1,1,1,1,1,1,1,1,1,1,1,1,1,1,1,1,1,1,1,1,1,1,1,1,1,1,1,1,1,1,1,1,1,1,1,1,1,1,1,1,1,1,1,1,1,1,1,1,1,1,1,1,1,1,1,1,1,1,1,1,1,1,1,1,1,1,1,1,1,1,1,1,1,1,1,1,1,1,1,1,1,1,1,1,1,1,1,1,1,1,1,1,1,1,1,1,1,1,1,1,1,1,1,1,1,1,1,1,1,1,1,1,1,1,1,1,1,1,1,1,1,1,1,1,1,1,1,1,1,1,1,1,1,1,1,1,1,1,1,1,1,1,1,1,1,1,1,1,1,1,1,1,1,1,1,1,1,1,1,1,1],"number_of_sets":1,"coherent_direction":[300,300,37,300,300,300,300,37,300,300,300,37,37,300,37,300,37,300,37,300,37,300,300,300,37,300,300,37,37,37,37,37,37,300,300,300,300,300,37,37,300,300,300,37,37,37,37,300,37,37,300,37,300,300,37,37,300,37,300,300,37,300,37,300,300,300,37,37,37,37,37,37,300,300,37,300,37,37,37,37,37,300,37,37,37,300,37,300,37,37,37,37,300,37,37,37,300,300,300,37,37,300,37,300,300,300,37,37,37,300,300,300,300,300,37,37,37,37,300,300,37,300,300,300,37,37,300,300,300,300,37,300,37,37,300,37,300,37,37,300,300,37,300,37,300,37,37,300,300,300,37,37,300,300,300,300,300,37,37,300,37,37,300,37,37,300,37,300,37,300,300,300,300,37,300,300,300,37,37,37,37,37,37,37,37,37,300,37,37,37,37,300,300,300,300,300,300,37,300,300],"coherence":1,"opposite_coherence":0,"dot_radius":2,"dot_side_length":1,"dot_life":-1,"move_distance":1,"aperture_width":300,"aperture_height":300,"dot_color":["black","black","white","black","black","black","black","white","black","black","black","white","white","black","white","black","white","black","white","black","white","black","black","black","white","black","black","white","white","white","white","white","white","black","black","black","black","black","white","white","black","black","black","white","white","white","white","black","white","white","black","white","black","black","white","white","black","white","black","black","white","black","white","black","black","black","white","white","white","white","white","white","black","black","white","black","white","white","white","white","white","black","white","white","white","black","white","black","white","white","white","white","black","white","white","white","black","black","black","white","white","black","white","black","black","black","white","white","white","black","black","black","black","black","white","white","white","white","black","black","white","black","black","black","white","white","black","black","black","black","white","black","white","white","black","white","black","white","white","black","black","white","black","white","black","white","white","black","black","black","white","white","black","black","black","black","black","white","white","black","white","white","black","white","white","black","white","black","white","black","black","black","black","white","black","black","black","white","white","white","white","white","white","white","white","white","black","white","white","white","white","black","black","black","black","black","black","white","black","black"],"dot_shape":"circle","background_color":"#AAA","RDK_type":3,"aperture_type":2,"reinsert_type":2,"frame_rate":16.683333333333334,"frame_rate_array":[11,16,18,17,16,16,17,17,18,17,18,16,16,17,17,17,15,18,17,16,17,16,18,16,17,18,17,15,18,18,16,16,16,18,16,18,16,18,16,17,16,18,16,17,17,17,16,16,16,18,17,15,18,16,16,18,16,16,18,17,17,15,17,18,15,17,16,18,17,16,16,18,16,18,16,18,15,18,15,18,17,17,16,17,16,17,17,15,18,16,17,17,17,16,17,16,17,18,17,17,16,15,16,17,18,16,17,17,18,17,15,18,16,17,16,18,16,17,17,15],"number_of_frames":120,"aperture_center_x":768,"aperture_center_y":432,"fixation_cross":true,"fixation_cross_width":15,"fixation_cross_height":15,"fixation_cross_color":"#111","fixation_cross_thickness":1,"border":true,"border_thickness":2,"border_color":"transparent","canvas_width":1536,"canvas_height":864,"trial_type":"rdk","trial_index":68,"plugin_version":"2.0.0","time_elapsed":251976},{"rt":9148,"stimulus":"\n        <div class=\"response-container\">\n          <div class=\"response-instruction\">\n            <p>rotate the bar by using the left and right arrow keys.</p>\n            <p>when you are determined, press the Enter key.</p>\n          </div>\n          <div class=\"response-circle\">\n            <div class=\"response-fixation\"></div>\n            <div id=\"bar\" class=\"rotating-bar\"></div>\n          </div>\n        </div>\n      ","response":"Enter","trial_type":"html-keyboard-response","trial_index":69,"plugin_version":"2.1.0","time_elapsed":261124,"random_initial_angle":258,"response_angle_css":152,"response_angle_rdk":298,"angular_error_target":-2,"angular_error_distractor":-99,"target_direction":300,"target_group":"black","reward_points":9},{"rt":null,"stimulus":"\n          <p style=\"color: #00FF00;\">Your reward: 9 points</p>\n        ","response":null,"trial_type":"html-keyboard-response","trial_index":70,"plugin_version":"2.1.0","time_elapsed":263138},{"rt":null,"stimulus":"<div class=\"fixation\" style=\"font-size: 60px;\">+</div>","response":null,"trial_type":"html-keyboard-response","trial_index":71,"plugin_version":"2.1.0","time_elapsed":264144},{"phase":"learning-awareness","target_group":"black","condition_label":"B_H_vs_W_L_rep2","target_direction":278,"distractor_direction":27,"session_rotation":174,"rt":-1,"response":"","correct":false,"choices":"ALL_KEYS","correct_choice":["a"],"trial_duration":2000,"flip_timestamps":[],"response_ends_trial":false,"number_of_apertures":200,"number_of_dots":[1,1,1,1,1,1,1,1,1,1,1,1,1,1,1,1,1,1,1,1,1,1,1,1,1,1,1,1,1,1,1,1,1,1,1,1,1,1,1,1,1,1,1,1,1,1,1,1,1,1,1,1,1,1,1,1,1,1,1,1,1,1,1,1,1,1,1,1,1,1,1,1,1,1,1,1,1,1,1,1,1,1,1,1,1,1,1,1,1,1,1,1,1,1,1,1,1,1,1,1,1,1,1,1,1,1,1,1,1,1,1,1,1,1,1,1,1,1,1,1,1,1,1,1,1,1,1,1,1,1,1,1,1,1,1,1,1,1,1,1,1,1,1,1,1,1,1,1,1,1,1,1,1,1,1,1,1,1,1,1,1,1,1,1,1,1,1,1,1,1,1,1,1,1,1,1,1,1,1,1,1,1,1,1,1,1,1,1,1,1,1,1,1,1,1,1,1,1,1,1],"number_of_sets":1,"coherent_direction":[278,27,27,27,278,278,27,27,278,278,27,278,27,278,278,27,27,278,27,27,278,278,278,27,278,27,27,27,278,27,27,27,278,278,27,278,278,27,278,27,278,27,278,27,27,27,278,278,27,278,27,278,278,27,27,278,278,278,278,27,278,278,27,27,27,278,278,27,278,27,278,27,27,27,27,278,278,27,27,27,27,27,278,278,278,27,27,27,27,27,27,27,278,278,278,27,278,278,27,278,278,27,278,27,27,27,27,27,27,278,278,278,278,27,27,278,27,27,278,278,278,278,27,27,278,27,27,278,278,278,27,278,278,278,278,27,27,27,27,278,278,27,278,278,27,278,278,278,278,278,27,27,278,27,27,278,27,278,278,278,278,27,278,27,278,27,278,278,27,278,27,278,27,27,278,278,278,27,278,278,278,27,278,278,27,27,278,278,27,27,27,27,27,27,27,27,278,27,278,278],"coherence":1,"opposite_coherence":0,"dot_radius":2,"dot_side_length":1,"dot_life":-1,"move_distance":1,"aperture_width":300,"aperture_height":300,"dot_color":["black","white","white","white","black","black","white","white","black","black","white","black","white","black","black","white","white","black","white","white","black","black","black","white","black","white","white","white","black","white","white","white","black","black","white","black","black","white","black","white","black","white","black","white","white","white","black","black","white","black","white","black","black","white","white","black","black","black","black","white","black","black","white","white","white","black","black","white","black","white","black","white","white","white","white","black","black","white","white","white","white","white","black","black","black","white","white","white","white","white","white","white","black","black","black","white","black","black","white","black","black","white","black","white","white","white","white","white","white","black","black","black","black","white","white","black","white","white","black","black","black","black","white","white","black","white","white","black","black","black","white","black","black","black","black","white","white","white","white","black","black","white","black","black","white","black","black","black","black","black","white","white","black","white","white","black","white","black","black","black","black","white","black","white","black","white","black","black","white","black","white","black","white","white","black","black","black","white","black","black","black","white","black","black","white","white","black","black","white","white","white","white","white","white","white","white","black","white","black","black"],"dot_shape":"circle","background_color":"#AAA","RDK_type":3,"aperture_type":2,"reinsert_type":2,"frame_rate":16.633333333333333,"frame_rate_array":[17,12,14,18,16,16,17,18,15,17,17,17,16,18,17,16,17,16,17,16,17,17,18,17,16,17,16,16,18,16,18,15,19,15,17,17,16,16,18,15,18,17,17,16,16,17,17,18,16,17,17,17,16,16,18,17,17,16,17,17,17,16,16,17,18,17,16,17,16,16,17,16,17,16,18,16,17,15,18,17,17,15,17,16,17,17,17,16,16,18,16,16,17,18,16,17,16,17,17,15,18,16,18,16,17,15,17,16,17,17,17,17,16,17,16,17,17,16,18,16],"number_of_frames":120,"aperture_center_x":768,"aperture_center_y":432,"fixation_cross":true,"fixation_cross_width":15,"fixation_cross_height":15,"fixation_cross_color":"#111","fixation_cross_thickness":1,"border":true,"border_thickness":2,"border_color":"transparent","canvas_width":1536,"canvas_height":864,"trial_type":"rdk","trial_index":72,"plugin_version":"2.0.0","time_elapsed":266148},{"rt":2495,"stimulus":"\n        <div class=\"response-container\">\n          <div class=\"response-instruction\">\n            <p>rotate the bar by using the left and right arrow keys.</p>\n            <p>when you are determined, press the Enter key.</p>\n          </div>\n          <div class=\"response-circle\">\n            <div class=\"response-fixation\"></div>\n            <div id=\"bar\" class=\"rotating-bar\"></div>\n          </div>\n        </div>\n      ","response":"Enter","trial_type":"html-keyboard-response","trial_index":73,"plugin_version":"2.1.0","time_elapsed":268644,"random_initial_angle":201,"response_angle_css":190,"response_angle_rdk":260,"angular_error_target":-18,"angular_error_distractor":-127,"target_direction":278,"target_group":"black","reward_points":6},{"rt":null,"stimulus":"\n          <p style=\"color: #00FF00;\">Your reward: 6 points</p>\n        ","response":null,"trial_type":"html-keyboard-response","trial_index":74,"plugin_version":"2.1.0","time_elapsed":270656},{"rt":null,"stimulus":"<div class=\"fixation\" style=\"font-size: 60px;\">+</div>","response":null,"trial_type":"html-keyboard-response","trial_index":75,"plugin_version":"2.1.0","time_elapsed":271663},{"phase":"learning-awareness","target_group":"black","condition_label":"B_H_vs_W_L_rep1","target_direction":289,"distractor_direction":33,"session_rotation":174,"rt":-1,"response":"","correct":false,"choices":"ALL_KEYS","correct_choice":["a"],"trial_duration":2000,"flip_timestamps":[],"response_ends_trial":false,"number_of_apertures":200,"number_of_dots":[1,1,1,1,1,1,1,1,1,1,1,1,1,1,1,1,1,1,1,1,1,1,1,1,1,1,1,1,1,1,1,1,1,1,1,1,1,1,1,1,1,1,1,1,1,1,1,1,1,1,1,1,1,1,1,1,1,1,1,1,1,1,1,1,1,1,1,1,1,1,1,1,1,1,1,1,1,1,1,1,1,1,1,1,1,1,1,1,1,1,1,1,1,1,1,1,1,1,1,1,1,1,1,1,1,1,1,1,1,1,1,1,1,1,1,1,1,1,1,1,1,1,1,1,1,1,1,1,1,1,1,1,1,1,1,1,1,1,1,1,1,1,1,1,1,1,1,1,1,1,1,1,1,1,1,1,1,1,1,1,1,1,1,1,1,1,1,1,1,1,1,1,1,1,1,1,1,1,1,1,1,1,1,1,1,1,1,1,1,1,1,1,1,1,1,1,1,1,1,1],"number_of_sets":1,"coherent_direction":[289,289,33,289,289,289,33,289,33,289,289,33,33,289,33,289,289,289,289,289,33,289,289,289,289,289,33,33,33,289,289,33,289,289,289,289,33,33,33,289,289,33,289,33,33,289,33,33,289,33,289,289,289,289,33,289,33,33,33,289,33,33,33,33,33,289,289,289,289,33,289,33,33,289,33,289,289,33,33,289,33,289,33,289,33,289,33,33,33,289,33,33,33,289,289,33,33,289,289,33,33,33,289,33,33,33,289,289,33,289,289,289,33,33,289,289,33,289,289,289,33,33,33,289,33,289,33,33,33,33,289,33,289,33,33,289,33,289,33,289,33,33,289,33,289,289,289,33,33,289,33,33,289,289,33,33,289,33,289,289,33,33,33,33,289,289,289,33,289,289,33,289,33,289,33,289,33,33,289,33,33,33,289,289,289,33,289,289,33,289,289,33,33,289,289,33,33,33,289,33],"coherence":1,"opposite_coherence":0,"dot_radius":2,"dot_side_length":1,"dot_life":-1,"move_distance":1,"aperture_width":300,"aperture_height":300,"dot_color":["black","black","white","black","black","black","white","black","white","black","black","white","white","black","white","black","black","black","black","black","white","black","black","black","black","black","white","white","white","black","black","white","black","black","black","black","white","white","white","black","black","white","black","white","white","black","white","white","black","white","black","black","black","black","white","black","white","white","white","black","white","white","white","white","white","black","black","black","black","white","black","white","white","black","white","black","black","white","white","black","white","black","white","black","white","black","white","white","white","black","white","white","white","black","black","white","white","black","black","white","white","white","black","white","white","white","black","black","white","black","black","black","white","white","black","black","white","black","black","black","white","white","white","black","white","black","white","white","white","white","black","white","black","white","white","black","white","black","white","black","white","white","black","white","black","black","black","white","white","black","white","white","black","black","white","white","black","white","black","black","white","white","white","white","black","black","black","white","black","black","white","black","white","black","white","black","white","white","black","white","white","white","black","black","black","white","black","black","white","black","black","white","white","black","black","white","white","white","black","white"],"dot_shape":"circle","background_color":"#AAA","RDK_type":3,"aperture_type":2,"reinsert_type":2,"frame_rate":16.58677685950413,"frame_rate_array":[6,13,16,18,17,17,16,18,16,16,18,16,17,17,16,16,17,16,18,16,16,18,16,16,17,17,16,16,17,16,17,18,16,16,16,17,17,17,16,17,18,15,17,17,15,17,16,18,17,16,18,17,16,17,17,17,16,17,16,17,16,18,16,17,16,16,18,17,16,16,18,16,17,16,16,17,16,18,17,15,18,17,16,16,18,16,18,16,16,16,18,17,16,17,18,16,17,16,17,17,16,18,16,18,16,17,16,17,18,16,17,18,17,16,17,17,16,17,17,17,16],"number_of_frames":121,"aperture_center_x":768,"aperture_center_y":432,"fixation_cross":true,"fixation_cross_width":15,"fixation_cross_height":15,"fixation_cross_color":"#111","fixation_cross_thickness":1,"border":true,"border_thickness":2,"border_color":"transparent","canvas_width":1536,"canvas_height":864,"trial_type":"rdk","trial_index":76,"plugin_version":"2.0.0","time_elapsed":273668},{"rt":6276,"stimulus":"\n        <div class=\"response-container\">\n          <div class=\"response-instruction\">\n            <p>rotate the bar by using the left and right arrow keys.</p>\n            <p>when you are determined, press the Enter key.</p>\n          </div>\n          <div class=\"response-circle\">\n            <div class=\"response-fixation\"></div>\n            <div id=\"bar\" class=\"rotating-bar\"></div>\n          </div>\n        </div>\n      ","response":"Enter","trial_type":"html-keyboard-response","trial_index":77,"plugin_version":"2.1.0","time_elapsed":279944,"random_initial_angle":64,"response_angle_css":-190,"response_angle_rdk":280,"angular_error_target":-9,"angular_error_distractor":-113,"target_direction":289,"target_group":"black","reward_points":8},{"rt":null,"stimulus":"\n          <p style=\"color: #00FF00;\">Your reward: 8 points</p>\n        ","response":null,"trial_type":"html-keyboard-response","trial_index":78,"plugin_version":"2.1.0","time_elapsed":281953},{"rt":null,"stimulus":"<div class=\"fixation\" style=\"font-size: 60px;\">+</div>","response":null,"trial_type":"html-keyboard-response","trial_index":79,"plugin_version":"2.1.0","time_elapsed":282959},{"phase":"learning-awareness","target_group":"black","condition_label":"B_H_vs_W_L_rep18","target_direction":268,"distractor_direction":12,"session_rotation":174,"rt":-1,"response":"","correct":false,"choices":"ALL_KEYS","correct_choice":["a"],"trial_duration":2000,"flip_timestamps":[],"response_ends_trial":false,"number_of_apertures":200,"number_of_dots":[1,1,1,1,1,1,1,1,1,1,1,1,1,1,1,1,1,1,1,1,1,1,1,1,1,1,1,1,1,1,1,1,1,1,1,1,1,1,1,1,1,1,1,1,1,1,1,1,1,1,1,1,1,1,1,1,1,1,1,1,1,1,1,1,1,1,1,1,1,1,1,1,1,1,1,1,1,1,1,1,1,1,1,1,1,1,1,1,1,1,1,1,1,1,1,1,1,1,1,1,1,1,1,1,1,1,1,1,1,1,1,1,1,1,1,1,1,1,1,1,1,1,1,1,1,1,1,1,1,1,1,1,1,1,1,1,1,1,1,1,1,1,1,1,1,1,1,1,1,1,1,1,1,1,1,1,1,1,1,1,1,1,1,1,1,1,1,1,1,1,1,1,1,1,1,1,1,1,1,1,1,1,1,1,1,1,1,1,1,1,1,1,1,1,1,1,1,1,1,1],"number_of_sets":1,"coherent_direction":[268,268,268,268,12,12,268,12,268,12,268,268,268,268,12,12,12,12,268,268,268,268,12,268,12,268,12,268,12,268,268,268,268,12,12,12,268,268,12,12,12,12,268,12,268,12,12,268,12,268,12,12,12,268,268,12,268,12,268,268,12,268,268,268,12,268,268,268,268,12,12,12,268,268,12,12,12,268,268,12,268,12,12,268,268,268,12,12,12,12,268,268,268,12,12,12,268,268,268,12,12,268,12,268,268,12,268,12,268,268,12,268,12,268,12,12,12,12,12,268,268,12,268,268,12,12,268,268,12,268,12,268,268,268,268,268,268,12,12,12,12,12,12,12,12,268,268,268,12,12,12,12,268,12,268,12,268,12,268,12,268,12,268,268,12,12,268,268,12,12,12,12,12,12,12,12,12,268,12,268,268,268,268,268,12,12,12,268,12,268,12,268,12,268,12,268,268,268,268,12],"coherence":1,"opposite_coherence":0,"dot_radius":2,"dot_side_length":1,"dot_life":-1,"move_distance":1,"aperture_width":300,"aperture_height":300,"dot_color":["black","black","black","black","white","white","black","white","black","white","black","black","black","black","white","white","white","white","black","black","black","black","white","black","white","black","white","black","white","black","black","black","black","white","white","white","black","black","white","white","white","white","black","white","black","white","white","black","white","black","white","white","white","black","black","white","black","white","black","black","white","black","black","black","white","black","black","black","black","white","white","white","black","black","white","white","white","black","black","white","black","white","white","black","black","black","white","white","white","white","black","black","black","white","white","white","black","black","black","white","white","black","white","black","black","white","black","white","black","black","white","black","white","black","white","white","white","white","white","black","black","white","black","black","white","white","black","black","white","black","white","black","black","black","black","black","black","white","white","white","white","white","white","white","white","black","black","black","white","white","white","white","black","white","black","white","black","white","black","white","black","white","black","black","white","white","black","black","white","white","white","white","white","white","white","white","white","black","white","black","black","black","black","black","white","white","white","black","white","black","white","black","white","black","white","black","black","black","black","white"],"dot_shape":"circle","background_color":"#AAA","RDK_type":3,"aperture_type":2,"reinsert_type":2,"frame_rate":16.691666666666666,"frame_rate_array":[16,13,19,15,18,17,16,17,17,17,17,17,17,15,17,18,17,16,16,18,16,18,16,16,17,16,18,17,17,15,17,18,16,16,18,15,17,16,18,16,18,16,17,16,17,17,17,16,17,16,16,16,17,17,18,17,17,15,18,16,16,17,17,16,18,16,18,16,17,16,18,15,18,16,16,18,16,17,17,16,17,17,17,15,18,15,17,17,17,17,16,17,17,16,18,16,19,16,15,16,19,16,17,16,17,17,17,16,16,18,15,18,16,17,17,17,15,17,18,17],"number_of_frames":120,"aperture_center_x":768,"aperture_center_y":432,"fixation_cross":true,"fixation_cross_width":15,"fixation_cross_height":15,"fixation_cross_color":"#111","fixation_cross_thickness":1,"border":true,"border_thickness":2,"border_color":"transparent","canvas_width":1536,"canvas_height":864,"trial_type":"rdk","trial_index":80,"plugin_version":"2.0.0","time_elapsed":284965},{"rt":4106,"stimulus":"\n        <div class=\"response-container\">\n          <div class=\"response-instruction\">\n            <p>rotate the bar by using the left and right arrow keys.</p>\n            <p>when you are determined, press the Enter key.</p>\n          </div>\n          <div class=\"response-circle\">\n            <div class=\"response-fixation\"></div>\n            <div id=\"bar\" class=\"rotating-bar\"></div>\n          </div>\n        </div>\n      ","response":"Enter","trial_type":"html-keyboard-response","trial_index":81,"plugin_version":"2.1.0","time_elapsed":289071,"random_initial_angle":216,"response_angle_css":68,"response_angle_rdk":22,"angular_error_target":114,"angular_error_distractor":10,"target_direction":268,"target_group":"black","reward_points":0},{"rt":null,"stimulus":"\n          <p style=\"color: #FF3333;\">Your reward: 0 points</p>\n        ","response":null,"trial_type":"html-keyboard-response","trial_index":82,"plugin_version":"2.1.0","time_elapsed":291083},{"rt":null,"stimulus":"<div class=\"fixation\" style=\"font-size: 60px;\">+</div>","response":null,"trial_type":"html-keyboard-response","trial_index":83,"plugin_version":"2.1.0","time_elapsed":292092},{"phase":"learning-awareness","target_group":"white","condition_label":"W_H_vs_B_L_rep4","target_direction":208,"distractor_direction":96,"session_rotation":174,"rt":-1,"response":"","correct":false,"choices":"ALL_KEYS","correct_choice":["a"],"trial_duration":2000,"flip_timestamps":[],"response_ends_trial":false,"number_of_apertures":200,"number_of_dots":[1,1,1,1,1,1,1,1,1,1,1,1,1,1,1,1,1,1,1,1,1,1,1,1,1,1,1,1,1,1,1,1,1,1,1,1,1,1,1,1,1,1,1,1,1,1,1,1,1,1,1,1,1,1,1,1,1,1,1,1,1,1,1,1,1,1,1,1,1,1,1,1,1,1,1,1,1,1,1,1,1,1,1,1,1,1,1,1,1,1,1,1,1,1,1,1,1,1,1,1,1,1,1,1,1,1,1,1,1,1,1,1,1,1,1,1,1,1,1,1,1,1,1,1,1,1,1,1,1,1,1,1,1,1,1,1,1,1,1,1,1,1,1,1,1,1,1,1,1,1,1,1,1,1,1,1,1,1,1,1,1,1,1,1,1,1,1,1,1,1,1,1,1,1,1,1,1,1,1,1,1,1,1,1,1,1,1,1,1,1,1,1,1,1,1,1,1,1,1,1],"number_of_sets":1,"coherent_direction":[208,208,208,96,96,96,208,96,208,96,208,208,208,96,208,208,208,208,208,208,208,96,96,208,96,96,96,96,96,208,208,96,208,208,96,96,96,96,96,208,96,208,96,208,208,208,208,208,96,96,208,96,96,96,96,208,96,208,96,208,208,96,96,208,96,208,208,96,208,96,96,96,208,96,208,208,96,96,208,208,208,96,96,96,96,96,96,96,208,208,208,96,208,96,96,208,96,96,208,96,208,208,96,208,208,96,208,208,208,96,208,208,208,96,96,96,208,96,96,208,208,208,208,208,96,96,96,96,208,96,208,96,96,208,96,208,208,208,208,96,96,208,96,208,96,208,96,208,96,96,208,208,96,208,208,208,208,96,96,208,208,208,208,208,96,96,96,96,96,96,208,208,96,96,208,96,208,96,208,208,96,96,208,208,96,208,208,96,96,96,208,208,208,96,96,96,96,96,208,96],"coherence":1,"opposite_coherence":0,"dot_radius":2,"dot_side_length":1,"dot_life":-1,"move_distance":1,"aperture_width":300,"aperture_height":300,"dot_color":["white","white","white","black","black","black","white","black","white","black","white","white","white","black","white","white","white","white","white","white","white","black","black","white","black","black","black","black","black","white","white","black","white","white","black","black","black","black","black","white","black","white","black","white","white","white","white","white","black","black","white","black","black","black","black","white","black","white","black","white","white","black","black","white","black","white","white","black","white","black","black","black","white","black","white","white","black","black","white","white","white","black","black","black","black","black","black","black","white","white","white","black","white","black","black","white","black","black","white","black","white","white","black","white","white","black","white","white","white","black","white","white","white","black","black","black","white","black","black","white","white","white","white","white","black","black","black","black","white","black","white","black","black","white","black","white","white","white","white","black","black","white","black","white","black","white","black","white","black","black","white","white","black","white","white","white","white","black","black","white","white","white","white","white","black","black","black","black","black","black","white","white","black","black","white","black","white","black","white","white","black","black","white","white","black","white","white","black","black","black","white","white","white","black","black","black","black","black","white","black"],"dot_shape":"circle","background_color":"#AAA","RDK_type":3,"aperture_type":2,"reinsert_type":2,"frame_rate":16.6,"frame_rate_array":[11,12,17,18,16,16,18,16,16,17,18,16,15,18,16,16,18,16,16,16,17,18,17,17,17,17,17,16,17,16,18,16,17,16,16,18,16,18,15,18,15,17,17,17,15,17,17,16,17,16,16,16,19,16,17,16,17,16,18,17,16,17,17,16,16,18,16,17,16,17,17,17,16,17,16,17,18,16,18,16,16,17,16,18,15,18,15,18,17,17,15,17,18,16,17,18,15,17,17,17,17,16,18,16,17,17,18,16,16,16,17,16,17,17,16,17,16,16,17,17],"number_of_frames":120,"aperture_center_x":768,"aperture_center_y":432,"fixation_cross":true,"fixation_cross_width":15,"fixation_cross_height":15,"fixation_cross_color":"#111","fixation_cross_thickness":1,"border":true,"border_thickness":2,"border_color":"transparent","canvas_width":1536,"canvas_height":864,"trial_type":"rdk","trial_index":84,"plugin_version":"2.0.0","time_elapsed":294099},{"rt":4053,"stimulus":"\n        <div class=\"response-container\">\n          <div class=\"response-instruction\">\n            <p>rotate the bar by using the left and right arrow keys.</p>\n            <p>when you are determined, press the Enter key.</p>\n          </div>\n          <div class=\"response-circle\">\n            <div class=\"response-fixation\"></div>\n            <div id=\"bar\" class=\"rotating-bar\"></div>\n          </div>\n        </div>\n      ","response":"Enter","trial_type":"html-keyboard-response","trial_index":85,"plugin_version":"2.1.0","time_elapsed":298153,"random_initial_angle":52,"response_angle_css":-129,"response_angle_rdk":219,"angular_error_target":11,"angular_error_distractor":123,"target_direction":208,"target_group":"white","reward_points":7},{"rt":null,"stimulus":"\n          <p style=\"color: #00FF00;\">Your reward: 7 points</p>\n        ","response":null,"trial_type":"html-keyboard-response","trial_index":86,"plugin_version":"2.1.0","time_elapsed":300166},{"rt":null,"stimulus":"<div class=\"fixation\" style=\"font-size: 60px;\">+</div>","response":null,"trial_type":"html-keyboard-response","trial_index":87,"plugin_version":"2.1.0","time_elapsed":301174},{"phase":"learning-awareness","target_group":"white","condition_label":"W_H_vs_B_L_rep16","target_direction":217,"distractor_direction":84,"session_rotation":174,"rt":-1,"response":"","correct":false,"choices":"ALL_KEYS","correct_choice":["a"],"trial_duration":2000,"flip_timestamps":[],"response_ends_trial":false,"number_of_apertures":200,"number_of_dots":[1,1,1,1,1,1,1,1,1,1,1,1,1,1,1,1,1,1,1,1,1,1,1,1,1,1,1,1,1,1,1,1,1,1,1,1,1,1,1,1,1,1,1,1,1,1,1,1,1,1,1,1,1,1,1,1,1,1,1,1,1,1,1,1,1,1,1,1,1,1,1,1,1,1,1,1,1,1,1,1,1,1,1,1,1,1,1,1,1,1,1,1,1,1,1,1,1,1,1,1,1,1,1,1,1,1,1,1,1,1,1,1,1,1,1,1,1,1,1,1,1,1,1,1,1,1,1,1,1,1,1,1,1,1,1,1,1,1,1,1,1,1,1,1,1,1,1,1,1,1,1,1,1,1,1,1,1,1,1,1,1,1,1,1,1,1,1,1,1,1,1,1,1,1,1,1,1,1,1,1,1,1,1,1,1,1,1,1,1,1,1,1,1,1,1,1,1,1,1,1],"number_of_sets":1,"coherent_direction":[84,217,84,217,217,84,84,84,84,84,217,84,217,217,217,217,217,217,84,84,84,84,217,84,84,84,84,217,84,217,217,84,84,84,217,217,84,84,217,217,84,84,84,217,217,217,84,217,217,217,84,84,84,217,217,84,84,217,84,217,84,84,84,84,217,84,217,84,217,84,217,217,217,217,84,84,84,217,217,84,217,217,217,217,217,84,217,84,84,217,84,84,84,217,217,84,217,84,217,217,217,217,84,84,84,217,217,84,217,84,84,84,84,84,217,217,217,217,84,84,217,84,84,217,84,217,84,217,217,84,217,84,217,217,84,84,217,217,84,217,84,84,217,84,84,217,84,84,84,84,217,84,217,84,217,84,84,84,217,217,84,217,217,84,84,217,217,217,217,217,217,217,217,84,84,84,84,84,84,217,217,217,217,217,217,84,84,84,84,217,84,217,217,217,217,217,84,84,217,217],"coherence":1,"opposite_coherence":0,"dot_radius":2,"dot_side_length":1,"dot_life":-1,"move_distance":1,"aperture_width":300,"aperture_height":300,"dot_color":["black","white","black","white","white","black","black","black","black","black","white","black","white","white","white","white","white","white","black","black","black","black","white","black","black","black","black","white","black","white","white","black","black","black","white","white","black","black","white","white","black","black","black","white","white","white","black","white","white","white","black","black","black","white","white","black","black","white","black","white","black","black","black","black","white","black","white","black","white","black","white","white","white","white","black","black","black","white","white","black","white","white","white","white","white","black","white","black","black","white","black","black","black","white","white","black","white","black","white","white","white","white","black","black","black","white","white","black","white","black","black","black","black","black","white","white","white","white","black","black","white","black","black","white","black","white","black","white","white","black","white","black","white","white","black","black","white","white","black","white","black","black","white","black","black","white","black","black","black","black","white","black","white","black","white","black","black","black","white","white","black","white","white","black","black","white","white","white","white","white","white","white","white","black","black","black","black","black","black","white","white","white","white","white","white","black","black","black","black","white","black","white","white","white","white","white","black","black","white","white"],"dot_shape":"circle","background_color":"#AAA","RDK_type":3,"aperture_type":2,"reinsert_type":2,"frame_rate":16.56198347107438,"frame_rate_array":[4,14,16,17,17,16,18,16,16,16,18,15,16,18,15,18,15,18,17,17,16,16,18,17,17,16,16,18,16,17,16,16,17,18,16,16,17,17,16,18,16,16,18,17,16,18,15,17,18,16,18,16,17,15,18,18,16,15,19,15,17,18,16,16,19,16,16,17,17,16,18,15,17,17,17,16,17,17,17,16,17,17,16,17,17,17,16,18,16,17,16,17,17,16,15,18,16,17,16,16,17,16,18,17,16,17,17,16,17,17,16,15,19,16,16,19,15,17,16,18,17],"number_of_frames":121,"aperture_center_x":768,"aperture_center_y":432,"fixation_cross":true,"fixation_cross_width":15,"fixation_cross_height":15,"fixation_cross_color":"#111","fixation_cross_thickness":1,"border":true,"border_thickness":2,"border_color":"transparent","canvas_width":1536,"canvas_height":864,"trial_type":"rdk","trial_index":88,"plugin_version":"2.0.0","time_elapsed":303178},{"rt":2997,"stimulus":"\n        <div class=\"response-container\">\n          <div class=\"response-instruction\">\n            <p>rotate the bar by using the left and right arrow keys.</p>\n            <p>when you are determined, press the Enter key.</p>\n          </div>\n          <div class=\"response-circle\">\n            <div class=\"response-fixation\"></div>\n            <div id=\"bar\" class=\"rotating-bar\"></div>\n          </div>\n        </div>\n      ","response":"Enter","trial_type":"html-keyboard-response","trial_index":89,"plugin_version":"2.1.0","time_elapsed":306176,"random_initial_angle":129,"response_angle_css":231,"response_angle_rdk":219,"angular_error_target":2,"angular_error_distractor":135,"target_direction":217,"target_group":"white","reward_points":9},{"rt":null,"stimulus":"\n          <p style=\"color: #00FF00;\">Your reward: 9 points</p>\n        ","response":null,"trial_type":"html-keyboard-response","trial_index":90,"plugin_version":"2.1.0","time_elapsed":308184},{"rt":null,"stimulus":"<div class=\"fixation\" style=\"font-size: 60px;\">+</div>","response":null,"trial_type":"html-keyboard-response","trial_index":91,"plugin_version":"2.1.0","time_elapsed":309187},{"phase":"learning-awareness","target_group":"white","condition_label":"W_H_vs_B_L_rep21","target_direction":189,"distractor_direction":99,"session_rotation":174,"rt":-1,"response":"","correct":false,"choices":"ALL_KEYS","correct_choice":["a"],"trial_duration":2000,"flip_timestamps":[],"response_ends_trial":false,"number_of_apertures":200,"number_of_dots":[1,1,1,1,1,1,1,1,1,1,1,1,1,1,1,1,1,1,1,1,1,1,1,1,1,1,1,1,1,1,1,1,1,1,1,1,1,1,1,1,1,1,1,1,1,1,1,1,1,1,1,1,1,1,1,1,1,1,1,1,1,1,1,1,1,1,1,1,1,1,1,1,1,1,1,1,1,1,1,1,1,1,1,1,1,1,1,1,1,1,1,1,1,1,1,1,1,1,1,1,1,1,1,1,1,1,1,1,1,1,1,1,1,1,1,1,1,1,1,1,1,1,1,1,1,1,1,1,1,1,1,1,1,1,1,1,1,1,1,1,1,1,1,1,1,1,1,1,1,1,1,1,1,1,1,1,1,1,1,1,1,1,1,1,1,1,1,1,1,1,1,1,1,1,1,1,1,1,1,1,1,1,1,1,1,1,1,1,1,1,1,1,1,1,1,1,1,1,1,1],"number_of_sets":1,"coherent_direction":[189,99,99,189,189,99,189,189,99,189,99,99,189,189,189,99,189,189,99,189,189,99,99,99,189,99,99,99,99,99,189,99,189,99,189,189,189,189,99,189,189,99,189,189,189,99,99,189,99,99,189,99,189,189,189,99,189,99,189,99,99,99,189,189,99,99,189,189,189,189,189,99,189,99,189,189,99,99,99,99,189,99,99,99,189,189,189,99,99,189,189,189,189,99,189,189,189,99,189,99,99,99,99,99,99,99,99,99,99,99,189,189,99,189,99,189,99,99,189,189,99,189,189,189,189,99,189,189,189,189,189,99,99,99,189,189,189,99,99,99,99,189,99,99,99,99,189,189,189,189,189,99,189,99,99,189,99,189,99,189,189,99,99,189,99,99,189,189,99,99,189,189,189,189,99,189,99,99,189,189,99,189,99,189,99,99,189,99,99,189,99,99,99,189,99,99,189,99,99,189],"coherence":1,"opposite_coherence":0,"dot_radius":2,"dot_side_length":1,"dot_life":-1,"move_distance":1,"aperture_width":300,"aperture_height":300,"dot_color":["white","black","black","white","white","black","white","white","black","white","black","black","white","white","white","black","white","white","black","white","white","black","black","black","white","black","black","black","black","black","white","black","white","black","white","white","white","white","black","white","white","black","white","white","white","black","black","white","black","black","white","black","white","white","white","black","white","black","white","black","black","black","white","white","black","black","white","white","white","white","white","black","white","black","white","white","black","black","black","black","white","black","black","black","white","white","white","black","black","white","white","white","white","black","white","white","white","black","white","black","black","black","black","black","black","black","black","black","black","black","white","white","black","white","black","white","black","black","white","white","black","white","white","white","white","black","white","white","white","white","white","black","black","black","white","white","white","black","black","black","black","white","black","black","black","black","white","white","white","white","white","black","white","black","black","white","black","white","black","white","white","black","black","white","black","black","white","white","black","black","white","white","white","white","black","white","black","black","white","white","black","white","black","white","black","black","white","black","black","white","black","black","black","white","black","black","white","black","black","white"],"dot_shape":"circle","background_color":"#AAA","RDK_type":3,"aperture_type":2,"reinsert_type":2,"frame_rate":16.658333333333335,"frame_rate_array":[13,16,18,16,18,16,18,17,15,18,17,16,17,18,16,17,17,16,16,16,17,16,17,17,16,16,18,16,16,17,16,17,16,17,18,16,16,17,17,16,18,17,17,17,16,17,16,17,16,17,16,17,18,16,18,16,16,17,17,16,17,16,18,15,18,16,17,16,17,17,17,16,17,16,18,16,17,16,16,17,18,16,17,17,16,17,18,17,15,18,17,17,15,16,17,18,17,16,16,17,17,16,16,18,17,16,17,16,18,16,17,15,16,17,18,16,16,18,17,16],"number_of_frames":120,"aperture_center_x":768,"aperture_center_y":432,"fixation_cross":true,"fixation_cross_width":15,"fixation_cross_height":15,"fixation_cross_color":"#111","fixation_cross_thickness":1,"border":true,"border_thickness":2,"border_color":"transparent","canvas_width":1536,"canvas_height":864,"trial_type":"rdk","trial_index":92,"plugin_version":"2.0.0","time_elapsed":311194},{"rt":4946,"stimulus":"\n        <div class=\"response-container\">\n          <div class=\"response-instruction\">\n            <p>rotate the bar by using the left and right arrow keys.</p>\n            <p>when you are determined, press the Enter key.</p>\n          </div>\n          <div class=\"response-circle\">\n            <div class=\"response-fixation\"></div>\n            <div id=\"bar\" class=\"rotating-bar\"></div>\n          </div>\n        </div>\n      ","response":"Enter","trial_type":"html-keyboard-response","trial_index":93,"plugin_version":"2.1.0","time_elapsed":316140,"random_initial_angle":18,"response_angle_css":-104,"response_angle_rdk":194,"angular_error_target":5,"angular_error_distractor":95,"target_direction":189,"target_group":"white","reward_points":9},{"rt":null,"stimulus":"\n          <p style=\"color: #00FF00;\">Your reward: 9 points</p>\n        ","response":null,"trial_type":"html-keyboard-response","trial_index":94,"plugin_version":"2.1.0","time_elapsed":318146},{"rt":null,"stimulus":"<div class=\"fixation\" style=\"font-size: 60px;\">+</div>","response":null,"trial_type":"html-keyboard-response","trial_index":95,"plugin_version":"2.1.0","time_elapsed":319155},{"phase":"learning-awareness","target_group":"white","condition_label":"W_H_vs_B_L_rep2","target_direction":197,"distractor_direction":97,"session_rotation":174,"rt":-1,"response":"","correct":false,"choices":"ALL_KEYS","correct_choice":["a"],"trial_duration":2000,"flip_timestamps":[],"response_ends_trial":false,"number_of_apertures":200,"number_of_dots":[1,1,1,1,1,1,1,1,1,1,1,1,1,1,1,1,1,1,1,1,1,1,1,1,1,1,1,1,1,1,1,1,1,1,1,1,1,1,1,1,1,1,1,1,1,1,1,1,1,1,1,1,1,1,1,1,1,1,1,1,1,1,1,1,1,1,1,1,1,1,1,1,1,1,1,1,1,1,1,1,1,1,1,1,1,1,1,1,1,1,1,1,1,1,1,1,1,1,1,1,1,1,1,1,1,1,1,1,1,1,1,1,1,1,1,1,1,1,1,1,1,1,1,1,1,1,1,1,1,1,1,1,1,1,1,1,1,1,1,1,1,1,1,1,1,1,1,1,1,1,1,1,1,1,1,1,1,1,1,1,1,1,1,1,1,1,1,1,1,1,1,1,1,1,1,1,1,1,1,1,1,1,1,1,1,1,1,1,1,1,1,1,1,1,1,1,1,1,1,1],"number_of_sets":1,"coherent_direction":[97,197,197,97,197,97,197,97,97,97,97,97,97,97,97,97,97,197,97,97,97,197,97,197,97,197,197,97,97,97,97,97,197,97,197,97,197,97,97,97,197,197,197,97,197,197,197,197,97,97,197,97,97,97,197,97,97,197,97,97,97,197,197,197,97,197,197,197,97,97,197,97,97,197,97,197,197,197,97,197,97,97,197,197,197,97,197,197,197,197,197,197,97,97,197,197,97,197,97,197,97,197,197,97,197,97,197,197,197,97,197,97,197,97,97,197,97,197,97,197,97,97,197,197,97,97,197,97,97,197,197,197,197,197,197,97,97,97,97,197,197,97,197,197,197,197,197,197,97,197,197,197,197,97,97,197,97,97,97,97,97,197,97,97,97,97,97,197,97,197,97,97,197,197,197,97,97,197,197,197,97,97,197,197,197,97,197,197,197,197,97,197,97,197,197,97,97,97,97,197],"coherence":1,"opposite_coherence":0,"dot_radius":2,"dot_side_length":1,"dot_life":-1,"move_distance":1,"aperture_width":300,"aperture_height":300,"dot_color":["black","white","white","black","white","black","white","black","black","black","black","black","black","black","black","black","black","white","black","black","black","white","black","white","black","white","white","black","black","black","black","black","white","black","white","black","white","black","black","black","white","white","white","black","white","white","white","white","black","black","white","black","black","black","white","black","black","white","black","black","black","white","white","white","black","white","white","white","black","black","white","black","black","white","black","white","white","white","black","white","black","black","white","white","white","black","white","white","white","white","white","white","black","black","white","white","black","white","black","white","black","white","white","black","white","black","white","white","white","black","white","black","white","black","black","white","black","white","black","white","black","black","white","white","black","black","white","black","black","white","white","white","white","white","white","black","black","black","black","white","white","black","white","white","white","white","white","white","black","white","white","white","white","black","black","white","black","black","black","black","black","white","black","black","black","black","black","white","black","white","black","black","white","white","white","black","black","white","white","white","black","black","white","white","white","black","white","white","white","white","black","white","black","white","white","black","black","black","black","white"],"dot_shape":"circle","background_color":"#AAA","RDK_type":3,"aperture_type":2,"reinsert_type":2,"frame_rate":16.619834710743802,"frame_rate_array":[4,17,17,17,17,17,17,15,18,17,16,16,17,18,15,17,17,16,18,15,18,16,17,18,17,15,17,17,16,18,15,18,16,16,17,18,16,15,17,17,16,18,16,16,18,15,17,17,17,17,17,17,17,17,16,17,17,17,18,16,15,17,17,16,17,19,16,17,17,17,17,17,17,15,18,16,17,16,17,16,18,17,16,17,17,18,15,17,17,16,17,17,17,17,17,16,17,17,17,16,18,17,16,16,16,17,17,16,17,16,17,17,16,17,17,17,16,17,16,17,17],"number_of_frames":121,"aperture_center_x":768,"aperture_center_y":432,"fixation_cross":true,"fixation_cross_width":15,"fixation_cross_height":15,"fixation_cross_color":"#111","fixation_cross_thickness":1,"border":true,"border_thickness":2,"border_color":"transparent","canvas_width":1536,"canvas_height":864,"trial_type":"rdk","trial_index":96,"plugin_version":"2.0.0","time_elapsed":321163},{"rt":1697,"stimulus":"\n        <div class=\"response-container\">\n          <div class=\"response-instruction\">\n            <p>rotate the bar by using the left and right arrow keys.</p>\n            <p>when you are determined, press the Enter key.</p>\n          </div>\n          <div class=\"response-circle\">\n            <div class=\"response-fixation\"></div>\n            <div id=\"bar\" class=\"rotating-bar\"></div>\n          </div>\n        </div>\n      ","response":"Enter","trial_type":"html-keyboard-response","trial_index":97,"plugin_version":"2.1.0","time_elapsed":322860,"random_initial_angle":217,"response_angle_css":235,"response_angle_rdk":215,"angular_error_target":18,"angular_error_distractor":118,"target_direction":197,"target_group":"white","reward_points":6},{"rt":null,"stimulus":"\n          <p style=\"color: #00FF00;\">Your reward: 6 points</p>\n        ","response":null,"trial_type":"html-keyboard-response","trial_index":98,"plugin_version":"2.1.0","time_elapsed":324865},{"rt":null,"stimulus":"<div class=\"fixation\" style=\"font-size: 60px;\">+</div>","response":null,"trial_type":"html-keyboard-response","trial_index":99,"plugin_version":"2.1.0","time_elapsed":325874},{"phase":"learning-awareness","target_group":"white","condition_label":"W_H_vs_B_L_rep23","target_direction":188,"distractor_direction":92,"session_rotation":174,"rt":-1,"response":"","correct":false,"choices":"ALL_KEYS","correct_choice":["a"],"trial_duration":2000,"flip_timestamps":[],"response_ends_trial":false,"number_of_apertures":200,"number_of_dots":[1,1,1,1,1,1,1,1,1,1,1,1,1,1,1,1,1,1,1,1,1,1,1,1,1,1,1,1,1,1,1,1,1,1,1,1,1,1,1,1,1,1,1,1,1,1,1,1,1,1,1,1,1,1,1,1,1,1,1,1,1,1,1,1,1,1,1,1,1,1,1,1,1,1,1,1,1,1,1,1,1,1,1,1,1,1,1,1,1,1,1,1,1,1,1,1,1,1,1,1,1,1,1,1,1,1,1,1,1,1,1,1,1,1,1,1,1,1,1,1,1,1,1,1,1,1,1,1,1,1,1,1,1,1,1,1,1,1,1,1,1,1,1,1,1,1,1,1,1,1,1,1,1,1,1,1,1,1,1,1,1,1,1,1,1,1,1,1,1,1,1,1,1,1,1,1,1,1,1,1,1,1,1,1,1,1,1,1,1,1,1,1,1,1,1,1,1,1,1,1],"number_of_sets":1,"coherent_direction":[188,188,188,92,188,188,92,92,92,188,188,188,188,188,188,92,188,92,92,188,92,188,188,92,188,188,92,92,188,188,188,188,188,188,188,92,92,188,188,92,92,188,92,92,188,188,188,188,188,188,188,92,188,92,92,188,92,92,92,188,92,92,92,92,92,188,188,92,92,92,92,92,188,188,188,188,92,188,92,92,188,188,188,92,188,188,92,92,92,92,92,188,188,92,92,188,188,188,92,188,188,92,188,188,92,188,188,188,188,188,188,92,188,92,92,92,92,188,188,188,188,188,92,92,92,92,188,188,92,188,92,92,92,92,92,92,188,92,92,188,188,188,92,188,92,92,188,188,92,92,92,92,188,188,188,92,92,188,188,92,188,92,188,92,92,188,92,188,188,92,92,92,188,92,92,92,92,92,188,92,188,92,92,92,92,188,92,92,92,92,92,92,188,188,188,188,92,188,92,188],"coherence":1,"opposite_coherence":0,"dot_radius":2,"dot_side_length":1,"dot_life":-1,"move_distance":1,"aperture_width":300,"aperture_height":300,"dot_color":["white","white","white","black","white","white","black","black","black","white","white","white","white","white","white","black","white","black","black","white","black","white","white","black","white","white","black","black","white","white","white","white","white","white","white","black","black","white","white","black","black","white","black","black","white","white","white","white","white","white","white","black","white","black","black","white","black","black","black","white","black","black","black","black","black","white","white","black","black","black","black","black","white","white","white","white","black","white","black","black","white","white","white","black","white","white","black","black","black","black","black","white","white","black","black","white","white","white","black","white","white","black","white","white","black","white","white","white","white","white","white","black","white","black","black","black","black","white","white","white","white","white","black","black","black","black","white","white","black","white","black","black","black","black","black","black","white","black","black","white","white","white","black","white","black","black","white","white","black","black","black","black","white","white","white","black","black","white","white","black","white","black","white","black","black","white","black","white","white","black","black","black","white","black","black","black","black","black","white","black","white","black","black","black","black","white","black","black","black","black","black","black","white","white","white","white","black","white","black","white"],"dot_shape":"circle","background_color":"#AAA","RDK_type":3,"aperture_type":2,"reinsert_type":2,"frame_rate":16.658333333333335,"frame_rate_array":[12,18,15,18,15,17,17,17,17,16,18,15,17,18,17,16,16,17,16,17,17,17,16,17,17,16,17,17,16,17,18,16,17,15,18,17,17,16,18,16,17,16,18,15,17,17,17,18,15,17,18,16,17,17,16,17,16,17,16,17,16,17,17,16,17,16,17,16,17,16,18,16,18,15,19,15,17,18,15,17,17,17,18,17,15,17,16,18,16,17,17,16,17,15,18,16,18,15,18,16,18,17,15,16,18,17,16,16,17,17,17,16,16,18,16,18,16,17,17,16],"number_of_frames":120,"aperture_center_x":768,"aperture_center_y":432,"fixation_cross":true,"fixation_cross_width":15,"fixation_cross_height":15,"fixation_cross_color":"#111","fixation_cross_thickness":1,"border":true,"border_thickness":2,"border_color":"transparent","canvas_width":1536,"canvas_height":864,"trial_type":"rdk","trial_index":100,"plugin_version":"2.0.0","time_elapsed":327879},{"rt":3576,"stimulus":"\n        <div class=\"response-container\">\n          <div class=\"response-instruction\">\n            <p>rotate the bar by using the left and right arrow keys.</p>\n            <p>when you are determined, press the Enter key.</p>\n          </div>\n          <div class=\"response-circle\">\n            <div class=\"response-fixation\"></div>\n            <div id=\"bar\" class=\"rotating-bar\"></div>\n          </div>\n        </div>\n      ","response":"Enter","trial_type":"html-keyboard-response","trial_index":101,"plugin_version":"2.1.0","time_elapsed":331456,"random_initial_angle":10,"response_angle_css":-117,"response_angle_rdk":207,"angular_error_target":19,"angular_error_distractor":115,"target_direction":188,"target_group":"white","reward_points":6},{"rt":null,"stimulus":"\n          <p style=\"color: #00FF00;\">Your reward: 6 points</p>\n        ","response":null,"trial_type":"html-keyboard-response","trial_index":102,"plugin_version":"2.1.0","time_elapsed":333458},{"rt":null,"stimulus":"<div class=\"fixation\" style=\"font-size: 60px;\">+</div>","response":null,"trial_type":"html-keyboard-response","trial_index":103,"plugin_version":"2.1.0","time_elapsed":334464},{"phase":"learning-awareness","target_group":"black","condition_label":"B_H_vs_W_L_rep15","target_direction":267,"distractor_direction":20,"session_rotation":174,"rt":-1,"response":"","correct":false,"choices":"ALL_KEYS","correct_choice":["a"],"trial_duration":2000,"flip_timestamps":[],"response_ends_trial":false,"number_of_apertures":200,"number_of_dots":[1,1,1,1,1,1,1,1,1,1,1,1,1,1,1,1,1,1,1,1,1,1,1,1,1,1,1,1,1,1,1,1,1,1,1,1,1,1,1,1,1,1,1,1,1,1,1,1,1,1,1,1,1,1,1,1,1,1,1,1,1,1,1,1,1,1,1,1,1,1,1,1,1,1,1,1,1,1,1,1,1,1,1,1,1,1,1,1,1,1,1,1,1,1,1,1,1,1,1,1,1,1,1,1,1,1,1,1,1,1,1,1,1,1,1,1,1,1,1,1,1,1,1,1,1,1,1,1,1,1,1,1,1,1,1,1,1,1,1,1,1,1,1,1,1,1,1,1,1,1,1,1,1,1,1,1,1,1,1,1,1,1,1,1,1,1,1,1,1,1,1,1,1,1,1,1,1,1,1,1,1,1,1,1,1,1,1,1,1,1,1,1,1,1,1,1,1,1,1,1],"number_of_sets":1,"coherent_direction":[20,20,267,267,20,267,20,20,267,267,20,267,267,20,20,20,267,20,267,20,20,267,20,267,267,20,20,267,267,267,267,20,20,20,20,20,267,267,267,267,267,267,267,20,20,20,267,267,20,20,267,20,267,20,20,20,267,267,267,267,20,267,267,20,20,20,267,267,20,267,20,20,20,20,20,20,267,20,20,267,267,267,20,267,267,267,267,267,267,267,20,267,267,267,267,267,267,267,20,20,267,267,20,20,20,267,20,20,20,20,267,267,20,20,20,267,267,20,20,20,20,20,20,267,20,20,267,20,20,267,267,20,20,20,267,267,267,20,20,20,267,20,267,267,267,267,267,267,267,20,20,267,20,20,267,267,20,20,267,267,20,20,20,267,267,20,20,20,20,267,267,267,267,267,267,267,20,20,20,267,20,267,20,20,20,267,267,20,267,20,20,267,20,267,267,20,20,267,20,267],"coherence":1,"opposite_coherence":0,"dot_radius":2,"dot_side_length":1,"dot_life":-1,"move_distance":1,"aperture_width":300,"aperture_height":300,"dot_color":["white","white","black","black","white","black","white","white","black","black","white","black","black","white","white","white","black","white","black","white","white","black","white","black","black","white","white","black","black","black","black","white","white","white","white","white","black","black","black","black","black","black","black","white","white","white","black","black","white","white","black","white","black","white","white","white","black","black","black","black","white","black","black","white","white","white","black","black","white","black","white","white","white","white","white","white","black","white","white","black","black","black","white","black","black","black","black","black","black","black","white","black","black","black","black","black","black","black","white","white","black","black","white","white","white","black","white","white","white","white","black","black","white","white","white","black","black","white","white","white","white","white","white","black","white","white","black","white","white","black","black","white","white","white","black","black","black","white","white","white","black","white","black","black","black","black","black","black","black","white","white","black","white","white","black","black","white","white","black","black","white","white","white","black","black","white","white","white","white","black","black","black","black","black","black","black","white","white","white","black","white","black","white","white","white","black","black","white","black","white","white","black","white","black","black","white","white","black","white","black"],"dot_shape":"circle","background_color":"#AAA","RDK_type":3,"aperture_type":2,"reinsert_type":2,"frame_rate":16.733333333333334,"frame_rate_array":[16,15,18,17,17,17,16,16,17,17,19,16,16,17,17,16,18,16,18,15,18,17,15,18,15,17,17,16,18,17,17,16,17,17,16,18,15,17,16,19,16,17,17,16,18,16,16,17,18,17,16,17,17,17,15,18,17,17,15,18,16,15,17,18,17,17,15,17,18,17,16,17,16,18,17,15,18,15,16,18,15,17,17,17,18,16,16,17,18,16,16,17,16,17,18,16,16,17,17,17,18,17,15,18,16,17,17,18,15,18,16,17,18,16,17,17,16,18,16,16],"number_of_frames":120,"aperture_center_x":768,"aperture_center_y":432,"fixation_cross":true,"fixation_cross_width":15,"fixation_cross_height":15,"fixation_cross_color":"#111","fixation_cross_thickness":1,"border":true,"border_thickness":2,"border_color":"transparent","canvas_width":1536,"canvas_height":864,"trial_type":"rdk","trial_index":104,"plugin_version":"2.0.0","time_elapsed":336472},{"rt":4252,"stimulus":"\n        <div class=\"response-container\">\n          <div class=\"response-instruction\">\n            <p>rotate the bar by using the left and right arrow keys.</p>\n            <p>when you are determined, press the Enter key.</p>\n          </div>\n          <div class=\"response-circle\">\n            <div class=\"response-fixation\"></div>\n            <div id=\"bar\" class=\"rotating-bar\"></div>\n          </div>\n        </div>\n      ","response":"Enter","trial_type":"html-keyboard-response","trial_index":105,"plugin_version":"2.1.0","time_elapsed":340724,"random_initial_angle":30,"response_angle_css":189,"response_angle_rdk":261,"angular_error_target":-6,"angular_error_distractor":-119,"target_direction":267,"target_group":"black","reward_points":8},{"rt":null,"stimulus":"\n          <p style=\"color: #00FF00;\">Your reward: 8 points</p>\n        ","response":null,"trial_type":"html-keyboard-response","trial_index":106,"plugin_version":"2.1.0","time_elapsed":342731},{"rt":null,"stimulus":"<div class=\"fixation\" style=\"font-size: 60px;\">+</div>","response":null,"trial_type":"html-keyboard-response","trial_index":107,"plugin_version":"2.1.0","time_elapsed":343740},{"phase":"learning-awareness","target_group":"white","condition_label":"W_H_vs_B_L_rep8","target_direction":211,"distractor_direction":121,"session_rotation":174,"rt":-1,"response":"","correct":false,"choices":"ALL_KEYS","correct_choice":["a"],"trial_duration":2000,"flip_ti