[{"rt":7853,"stimulus":"Welcome to the experiment. Press any key to begin.","response":"Enter","trial_type":"html-keyboard-response","trial_index":0,"plugin_version":"2.1.0","time_elapsed":7857},{"rt":7731,"stimulus":"\n        <div class=\"instructions-container\">\n          <h2>Instructions</h2>\n\n          <p>\n          In this experiment, you will see <strong>two Random Dot Kinematograms (RDKs)</strong> displayed simultaneously.\n          </p>\n\n          <p>\n          An RDK is a visual stimulus consisting of many small dots that move coherently in a single direction. \n          In this experiment, the dots will be either <strong>white</strong> or <strong>black</strong> \n          (see the short demo below for an example of an RDK stimulus).\n          </p>\n\n          <p>\n          On each trial, the two RDKs will move in different directions. \n          Your task is to decide <strong>which RDK appears to contain more dots</strong>.\n          </p>\n\n          <p>\n          The RDK that you judge to have more dots is called the <strong>target RDK</strong>. \n          For example, if the white RDK appears to have more dots than the black RDK, \n          you should report the motion direction of the white RDK.\n          </p>\n\n          <p>\n          After viewing the RDKs, you will rotate a bar to indicate the perceived direction of the target RDK \n          using the <strong>left</strong> and <strong>right arrow keys</strong>. \n          Press <strong>Enter</strong> when you are satisfied with your response.\n          When the bar is held down, the rotation speed increases.\n          </p>\n\n          <p>\n          You will receive points based on the <strong>accuracy of your response</strong>, \n          and your final <strong>bonus reward</strong> may depend on your overall performance. \n          Please try to respond as accurately as possible.\n          </p>\n\n          <p>\n          You will first complete <strong>16 practice trials</strong>. \n          Press the <strong>Enter</strong> key to start the practice phase.\n          </p>\n\n          <canvas id=\"instruction-demo-rdk\" width=\"200\" height=\"200\"style=\"display:block;margin:12px auto; border-radius: 50%;\"></canvas>\n        </div>\n      ","response":"Enter","trial_type":"html-keyboard-response","trial_index":1,"plugin_version":"2.1.0","time_elapsed":15591},{"rt":null,"stimulus":"<div class=\"fixation\" style=\"font-size: 60px;\">+</div>","response":null,"trial_type":"html-keyboard-response","trial_index":2,"plugin_version":"2.1.0","time_elapsed":16605},{"target_group":"black","target_index":1,"condition_label":"practice","rt":-1,"response":"","correct":false,"choices":"ALL_KEYS","correct_choice":["a"],"trial_duration":2000,"flip_timestamps":[],"response_ends_trial":false,"number_of_apertures":2,"number_of_dots":[53,100],"number_of_sets":1,"coherent_direction":[333,236],"coherence":1,"opposite_coherence":0,"dot_radius":2,"dot_side_length":1,"dot_life":-1,"move_distance":1,"aperture_width":300,"aperture_height":300,"dot_color":["white","black"],"dot_shape":"circle","background_color":"#AAA","RDK_type":3,"aperture_type":2,"reinsert_type":2,"frame_rate":16.49586776859504,"frame_rate_array":[2,11,15,19,17,17,17,15,16,17,17,16,16,18,16,16,17,16,17,18,15,17,16,18,16,17,17,16,17,17,17,16,17,17,16,17,17,16,16,17,17,17,16,17,17,17,17,16,16,18,16,17,16,17,17,16,17,16,17,17,17,16,17,17,16,18,15,18,16,17,17,16,16,18,16,17,16,16,17,17,17,17,15,18,16,18,15,18,16,17,17,17,16,16,17,17,17,15,17,18,17,16,17,16,17,17,16,16,18,16,16,18,16,17,17,16,18,15,17,17,17],"number_of_frames":121,"aperture_center_x":640,"aperture_center_y":360,"fixation_cross":true,"fixation_cross_width":15,"fixation_cross_height":15,"fixation_cross_color":"#111","fixation_cross_thickness":1,"border":true,"border_thickness":2,"border_color":"transparent","canvas_width":1280,"canvas_height":720,"trial_type":"rdk","trial_index":3,"plugin_version":"2.0.0","time_elapsed":18620,"phase":"practice","target_direction":236,"distractor_direction":333},{"rt":19191,"stimulus":"\n        <div class=\"response-container\">\n          <div class=\"response-instruction\">\n            <p>rotate the bar by using the left and right arrow keys.</p>\n            <p>when you are determined, press the Enter key.</p>\n          </div>\n          <div class=\"response-circle\">\n            <div class=\"response-fixation\"></div>\n            <div id=\"bar\" class=\"rotating-bar\"></div>\n          </div>\n        </div>\n      ","response":"Enter","trial_type":"html-keyboard-response","trial_index":4,"plugin_version":"2.1.0","time_elapsed":37813,"random_initial_angle":339,"response_angle_css":339,"response_angle_rdk":111,"angular_error_target":-125,"angular_error_distractor":138,"target_direction":236,"target_group":"black","reward_points":0},{"rt":null,"stimulus":"\n          <p style=\"color: #FF3333;\">Your reward: 0 points</p>\n        ","response":null,"trial_type":"html-keyboard-response","trial_index":5,"plugin_version":"2.1.0","time_elapsed":39823},{"rt":null,"stimulus":"<div class=\"fixation\" style=\"font-size: 60px;\">+</div>","response":null,"trial_type":"html-keyboard-response","trial_index":6,"plugin_version":"2.1.0","time_elapsed":40827},{"target_group":"black","target_index":1,"condition_label":"practice","rt":1834,"response":"ArrowLeft","correct":false,"choices":"ALL_KEYS","correct_choice":["a"],"trial_duration":2000,"flip_timestamps":[],"response_ends_trial":false,"number_of_apertures":2,"number_of_dots":[87,100],"number_of_sets":1,"coherent_direction":[316,124],"coherence":1,"opposite_coherence":0,"dot_radius":2,"dot_side_length":1,"dot_life":-1,"move_distance":1,"aperture_width":300,"aperture_height":300,"dot_color":["white","black"],"dot_shape":"circle","background_color":"#AAA","RDK_type":3,"aperture_type":2,"reinsert_type":2,"frame_rate":16.462809917355372,"frame_rate_array":[2,10,13,18,17,16,17,16,16,17,16,17,17,16,17,16,17,17,16,17,17,17,16,17,17,17,16,17,15,18,17,16,17,16,17,17,17,16,17,16,18,16,16,17,17,16,18,16,17,16,17,17,16,17,17,16,17,17,16,17,17,17,16,17,16,17,16,17,17,17,16,17,17,16,17,17,17,15,17,18,16,16,17,17,17,16,17,15,17,20,14,18,16,16,17,17,17,16,17,16,17,17,16,17,17,17,16,17,16,17,17,17,16,18,16,17,16,16,17,17,17],"number_of_frames":121,"aperture_center_x":640,"aperture_center_y":273.5,"fixation_cross":true,"fixation_cross_width":15,"fixation_cross_height":15,"fixation_cross_color":"#111","fixation_cross_thickness":1,"border":true,"border_thickness":2,"border_color":"transparent","canvas_width":1280,"canvas_height":547,"trial_type":"rdk","trial_index":7,"plugin_version":"2.0.0","time_elapsed":42837,"phase":"practice","target_direction":124,"distractor_direction":316},{"rt":30851,"stimulus":"\n        <div class=\"response-container\">\n          <div class=\"response-instruction\">\n            <p>rotate the bar by using the left and right arrow keys.</p>\n            <p>when you are determined, press the Enter key.</p>\n          </div>\n          <div class=\"response-circle\">\n            <div class=\"response-fixation\"></div>\n            <div id=\"bar\" class=\"rotating-bar\"></div>\n          </div>\n        </div>\n      ","response":"Enter","trial_type":"html-keyboard-response","trial_index":8,"plugin_version":"2.1.0","time_elapsed":73691,"random_initial_angle":182,"response_angle_css":-467,"response_angle_rdk":197,"angular_error_target":73,"angular_error_distractor":-119,"target_direction":124,"target_group":"black","reward_points":0},{"rt":null,"stimulus":"\n          <p style=\"color: #FF3333;\">Your reward: 0 points</p>\n        ","response":null,"trial_type":"html-keyboard-response","trial_index":9,"plugin_version":"2.1.0","time_elapsed":75789},{"rt":null,"stimulus":"<div class=\"fixation\" style=\"font-size: 60px;\">+</div>","response":null,"trial_type":"html-keyboard-response","trial_index":10,"plugin_version":"2.1.0","time_elapsed":76795},{"target_group":"white","target_index":0,"condition_label":"practice","rt":-1,"response":"","correct":false,"choices":"ALL_KEYS","correct_choice":["a"],"trial_duration":2000,"flip_timestamps":[],"response_ends_trial":false,"number_of_apertures":2,"number_of_dots":[100,57],"number_of_sets":1,"coherent_direction":[189,339],"coherence":1,"opposite_coherence":0,"dot_radius":2,"dot_side_length":1,"dot_life":-1,"move_distance":1,"aperture_width":300,"aperture_height":300,"dot_color":["white","black"],"dot_shape":"circle","background_color":"#AAA","RDK_type":3,"aperture_type":2,"reinsert_type":2,"frame_rate":16.454545454545453,"frame_rate_array":[2,8,15,18,16,16,17,16,18,15,16,17,18,16,17,16,17,16,18,17,16,16,16,18,17,15,17,17,17,17,16,17,17,16,17,17,17,16,17,15,18,17,16,17,15,19,16,17,16,16,17,17,17,16,18,16,16,18,16,16,17,17,16,17,17,16,17,17,16,17,17,17,16,16,18,16,16,17,18,16,16,17,17,16,17,17,16,17,17,16,17,17,17,16,16,18,16,17,16,17,17,17,16,17,16,17,17,17,16,16,17,16,18,17,16,17,16,18,16,16,17],"number_of_frames":121,"aperture_center_x":640,"aperture_center_y":273.5,"fixation_cross":true,"fixation_cross_width":15,"fixation_cross_height":15,"fixation_cross_color":"#111","fixation_cross_thickness":1,"border":true,"border_thickness":2,"border_color":"transparent","canvas_width":1280,"canvas_height":547,"trial_type":"rdk","trial_index":11,"plugin_version":"2.0.0","time_elapsed":78804,"phase":"practice","target_direction":189,"distractor_direction":339},{"rt":6571,"stimulus":"\n        <div class=\"response-container\">\n          <div class=\"response-instruction\">\n            <p>rotate the bar by using the left and right arrow keys.</p>\n            <p>when you are determined, press the Enter key.</p>\n          </div>\n          <div class=\"response-circle\">\n            <div class=\"response-fixation\"></div>\n            <div id=\"bar\" class=\"rotating-bar\"></div>\n          </div>\n        </div>\n      ","response":"Enter","trial_type":"html-keyboard-response","trial_index":12,"plugin_version":"2.1.0","time_elapsed":85377,"random_initial_angle":144,"response_angle_css":-66,"response_angle_rdk":156,"angular_error_target":-33,"angular_error_distractor":177,"target_direction":189,"target_group":"white","reward_points":3},{"rt":null,"stimulus":"\n          <p style=\"color: #00FF00;\">Your reward: 3 points</p>\n        ","response":null,"trial_type":"html-keyboard-response","trial_index":13,"plugin_version":"2.1.0","time_elapsed":87387},{"rt":null,"stimulus":"<div class=\"fixation\" style=\"font-size: 60px;\">+</div>","response":null,"trial_type":"html-keyboard-response","trial_index":14,"plugin_version":"2.1.0","time_elapsed":88391},{"target_group":"white","target_index":0,"condition_label":"practice","rt":-1,"response":"","correct":false,"choices":"ALL_KEYS","correct_choice":["a"],"trial_duration":2000,"flip_timestamps":[],"response_ends_trial":false,"number_of_apertures":2,"number_of_dots":[100,81],"number_of_sets":1,"coherent_direction":[233,52],"coherence":1,"opposite_coherence":0,"dot_radius":2,"dot_side_length":1,"dot_life":-1,"move_distance":1,"aperture_width":300,"aperture_height":300,"dot_color":["white","black"],"dot_shape":"circle","background_color":"#AAA","RDK_type":3,"aperture_type":2,"reinsert_type":2,"frame_rate":16.512396694214875,"frame_rate_array":[2,12,18,18,16,17,16,15,18,16,17,17,16,16,17,17,16,17,17,16,17,17,17,16,16,18,16,17,17,16,17,16,17,17,17,16,17,16,17,17,16,17,17,16,18,15,18,17,15,17,17,17,16,17,17,17,16,17,16,18,16,16,17,18,16,16,17,16,18,16,17,16,17,17,17,15,17,17,17,16,18,16,16,17,17,17,17,16,17,16,17,16,17,17,17,15,18,17,17,16,16,17,17,16,16,18,17,17,15,18,16,17,17,17,16,16,17,17,17,16,17],"number_of_frames":121,"aperture_center_x":640,"aperture_center_y":273.5,"fixation_cross":true,"fixation_cross_width":15,"fixation_cross_height":15,"fixation_cross_color":"#111","fixation_cross_thickness":1,"border":true,"border_thickness":2,"border_color":"transparent","canvas_width":1280,"canvas_height":547,"trial_type":"rdk","trial_index":15,"plugin_version":"2.0.0","time_elapsed":90398,"phase":"practice","target_direction":233,"distractor_direction":52},{"rt":5059,"stimulus":"\n        <div class=\"response-container\">\n          <div class=\"response-instruction\">\n            <p>rotate the bar by using the left and right arrow keys.</p>\n            <p>when you are determined, press the Enter key.</p>\n          </div>\n          <div class=\"response-circle\">\n            <div class=\"response-fixation\"></div>\n            <div id=\"bar\" class=\"rotating-bar\"></div>\n          </div>\n        </div>\n      ","response":"Enter","trial_type":"html-keyboard-response","trial_index":16,"plugin_version":"2.1.0","time_elapsed":95459,"random_initial_angle":243,"response_angle_css":411,"response_angle_rdk":39,"angular_error_target":166,"angular_error_distractor":-13,"target_direction":233,"target_group":"white","reward_points":0},{"rt":null,"stimulus":"\n          <p style=\"color: #FF3333;\">Your reward: 0 points</p>\n        ","response":null,"trial_type":"html-keyboard-response","trial_index":17,"plugin_version":"2.1.0","time_elapsed":97464},{"rt":null,"stimulus":"<div class=\"fixation\" style=\"font-size: 60px;\">+</div>","response":null,"trial_type":"html-keyboard-response","trial_index":18,"plugin_version":"2.1.0","time_elapsed":98476},{"target_group":"white","target_index":0,"condition_label":"practice","rt":-1,"response":"","correct":false,"choices":"ALL_KEYS","correct_choice":["a"],"trial_duration":2000,"flip_timestamps":[],"response_ends_trial":false,"number_of_apertures":2,"number_of_dots":[100,55],"number_of_sets":1,"coherent_direction":[283,74],"coherence":1,"opposite_coherence":0,"dot_radius":2,"dot_side_length":1,"dot_life":-1,"move_distance":1,"aperture_width":300,"aperture_height":300,"dot_color":["white","black"],"dot_shape":"circle","background_color":"#AAA","RDK_type":3,"aperture_type":2,"reinsert_type":2,"frame_rate":16.487603305785125,"frame_rate_array":[2,10,18,18,16,16,16,17,16,17,16,17,16,17,17,17,16,17,17,17,16,17,16,16,18,16,17,17,16,17,17,16,17,17,17,18,15,17,16,17,16,17,16,17,17,16,18,16,16,17,17,16,17,17,17,16,17,17,16,17,17,16,16,17,17,17,16,18,16,17,17,15,18,16,17,17,16,17,17,16,17,16,18,16,17,16,18,15,17,17,17,16,17,17,16,17,16,18,17,16,16,18,15,17,18,16,16,17,16,18,16,16,17,18,15,17,17,17,16,17,16],"number_of_frames":121,"aperture_center_x":640,"aperture_center_y":273.5,"fixation_cross":true,"fixation_cross_width":15,"fixation_cross_height":15,"fixation_cross_color":"#111","fixation_cross_thickness":1,"border":true,"border_thickness":2,"border_color":"transparent","canvas_width":1280,"canvas_height":547,"trial_type":"rdk","trial_index":19,"plugin_version":"2.0.0","time_elapsed":100489,"phase":"practice","target_direction":283,"distractor_direction":74},{"rt":1531,"stimulus":"\n        <div class=\"response-container\">\n          <div class=\"response-instruction\">\n            <p>rotate the bar by using the left and right arrow keys.</p>\n            <p>when you are determined, press the Enter key.</p>\n          </div>\n          <div class=\"response-circle\">\n            <div class=\"response-fixation\"></div>\n            <div id=\"bar\" class=\"rotating-bar\"></div>\n          </div>\n        </div>\n      ","response":"Enter","trial_type":"html-keyboard-response","trial_index":20,"plugin_version":"2.1.0","time_elapsed":102020,"random_initial_angle":161,"response_angle_css":161,"response_angle_rdk":289,"angular_error_target":6,"angular_error_distractor":-145,"target_direction":283,"target_group":"white","reward_points":8},{"rt":null,"stimulus":"\n          <p style=\"color: #00FF00;\">Your reward: 8 points</p>\n        ","response":null,"trial_type":"html-keyboard-response","trial_index":21,"plugin_version":"2.1.0","time_elapsed":104028},{"rt":null,"stimulus":"<div class=\"fixation\" style=\"font-size: 60px;\">+</div>","response":null,"trial_type":"html-keyboard-response","trial_index":22,"plugin_version":"2.1.0","time_elapsed":105040},{"target_group":"black","target_index":1,"condition_label":"practice","rt":-1,"response":"","correct":false,"choices":"ALL_KEYS","correct_choice":["a"],"trial_duration":2000,"flip_timestamps":[],"response_ends_trial":false,"number_of_apertures":2,"number_of_dots":[53,100],"number_of_sets":1,"coherent_direction":[40,178],"coherence":1,"opposite_coherence":0,"dot_radius":2,"dot_side_length":1,"dot_life":-1,"move_distance":1,"aperture_width":300,"aperture_height":300,"dot_color":["white","black"],"dot_shape":"circle","background_color":"#AAA","RDK_type":3,"aperture_type":2,"reinsert_type":2,"frame_rate":16.52892561983471,"frame_rate_array":[2,15,16,17,18,17,16,16,16,16,17,17,16,17,17,17,16,17,17,17,16,17,17,16,17,16,17,17,16,17,16,18,16,17,16,17,17,17,16,16,18,17,15,17,17,17,17,15,18,16,17,17,17,16,17,17,17,15,17,17,17,16,17,17,16,17,17,16,18,15,17,18,15,17,18,16,17,16,16,18,16,17,17,16,17,16,17,17,17,16,16,18,16,16,17,17,17,16,17,17,16,17,16,17,17,17,16,17,17,16,17,17,17,16,16,18,17,16,16,17,17],"number_of_frames":121,"aperture_center_x":640,"aperture_center_y":273.5,"fixation_cross":true,"fixation_cross_width":15,"fixation_cross_height":15,"fixation_cross_color":"#111","fixation_cross_thickness":1,"border":true,"border_thickness":2,"border_color":"transparent","canvas_width":1280,"canvas_height":547,"trial_type":"rdk","trial_index":23,"plugin_version":"2.0.0","time_elapsed":107052,"phase":"practice","target_direction":178,"distractor_direction":40},{"rt":6000,"stimulus":"\n        <div class=\"response-container\">\n          <div class=\"response-instruction\">\n            <p>rotate the bar by using the left and right arrow keys.</p>\n            <p>when you are determined, press the Enter key.</p>\n          </div>\n          <div class=\"response-circle\">\n            <div class=\"response-fixation\"></div>\n            <div id=\"bar\" class=\"rotating-bar\"></div>\n          </div>\n        </div>\n      ","response":"Enter","trial_type":"html-keyboard-response","trial_index":24,"plugin_version":"2.1.0","time_elapsed":113052,"random_initial_angle":10,"response_angle_css":-69,"response_angle_rdk":159,"angular_error_target":-19,"angular_error_distractor":119,"target_direction":178,"target_group":"black","reward_points":6},{"rt":null,"stimulus":"\n          <p style=\"color: #00FF00;\">Your reward: 6 points</p>\n        ","response":null,"trial_type":"html-keyboard-response","trial_index":25,"plugin_version":"2.1.0","time_elapsed":115063},{"rt":null,"stimulus":"<div class=\"fixation\" style=\"font-size: 60px;\">+</div>","response":null,"trial_type":"html-keyboard-response","trial_index":26,"plugin_version":"2.1.0","time_elapsed":116091},{"target_group":"white","target_index":0,"condition_label":"practice","rt":-1,"response":"","correct":false,"choices":"ALL_KEYS","correct_choice":["a"],"trial_duration":2000,"flip_timestamps":[],"response_ends_trial":false,"number_of_apertures":2,"number_of_dots":[100,78],"number_of_sets":1,"coherent_direction":[236,125],"coherence":1,"opposite_coherence":0,"dot_radius":2,"dot_side_length":1,"dot_life":-1,"move_distance":1,"aperture_width":300,"aperture_height":300,"dot_color":["white","black"],"dot_shape":"circle","background_color":"#AAA","RDK_type":3,"aperture_type":2,"reinsert_type":2,"frame_rate":16.516393442622952,"frame_rate_array":[1,14,17,19,15,17,17,15,16,18,17,15,17,17,17,17,16,17,15,18,16,18,16,17,16,17,16,17,18,16,15,18,17,16,17,16,17,17,17,17,16,17,16,17,17,16,18,16,16,17,17,16,17,16,18,16,16,18,17,16,16,17,17,16,17,17,16,17,17,16,18,16,16,17,17,17,16,17,16,17,17,16,17,17,17,15,17,18,16,17,16,17,16,17,17,17,17,15,18,17,17,16,16,17,17,17,16,17,17,17,16,16,17,17,16,17,17,16,17,17,17,16],"number_of_frames":122,"aperture_center_x":640,"aperture_center_y":273.5,"fixation_cross":true,"fixation_cross_width":15,"fixation_cross_height":15,"fixation_cross_color":"#111","fixation_cross_thickness":1,"border":true,"border_thickness":2,"border_color":"transparent","canvas_width":1280,"canvas_height":547,"trial_type":"rdk","trial_index":27,"plugin_version":"2.0.0","time_elapsed":118110,"phase":"practice","target_direction":236,"distractor_direction":125},{"rt":4816,"stimulus":"\n        <div class=\"response-container\">\n          <div class=\"response-instruction\">\n            <p>rotate the bar by using the left and right arrow keys.</p>\n            <p>when you are determined, press the Enter key.</p>\n          </div>\n          <div class=\"response-circle\">\n            <div class=\"response-fixation\"></div>\n            <div id=\"bar\" class=\"rotating-bar\"></div>\n          </div>\n        </div>\n      ","response":"Enter","trial_type":"html-keyboard-response","trial_index":28,"plugin_version":"2.1.0","time_elapsed":122929,"random_initial_angle":194,"response_angle_css":339,"response_angle_rdk":111,"angular_error_target":-125,"angular_error_distractor":-14,"target_direction":236,"target_group":"white","reward_points":0},{"rt":null,"stimulus":"\n          <p style=\"color: #FF3333;\">Your reward: 0 points</p>\n        ","response":null,"trial_type":"html-keyboard-response","trial_index":29,"plugin_version":"2.1.0","time_elapsed":124935},{"rt":null,"stimulus":"<div class=\"fixation\" style=\"font-size: 60px;\">+</div>","response":null,"trial_type":"html-keyboard-response","trial_index":30,"plugin_version":"2.1.0","time_elapsed":125944},{"target_group":"black","target_index":1,"condition_label":"practice","rt":-1,"response":"","correct":false,"choices":"ALL_KEYS","correct_choice":["a"],"trial_duration":2000,"flip_timestamps":[],"response_ends_trial":false,"number_of_apertures":2,"number_of_dots":[75,100],"number_of_sets":1,"coherent_direction":[301,141],"coherence":1,"opposite_coherence":0,"dot_radius":2,"dot_side_length":1,"dot_life":-1,"move_distance":1,"aperture_width":300,"aperture_height":300,"dot_color":["white","black"],"dot_shape":"circle","background_color":"#AAA","RDK_type":3,"aperture_type":2,"reinsert_type":2,"frame_rate":16.50413223140496,"frame_rate_array":[2,12,17,18,16,17,16,16,17,16,17,16,17,17,16,17,17,16,17,16,17,17,17,17,16,17,16,17,16,18,16,16,18,16,16,17,17,17,16,16,17,18,16,16,17,17,17,16,16,17,17,17,17,16,17,17,16,17,17,16,16,18,16,17,16,18,16,17,16,17,17,17,16,16,16,19,15,18,16,16,17,17,17,16,17,16,17,17,17,16,17,17,16,17,16,17,18,16,16,18,16,16,17,17,16,17,17,16,17,17,17,16,16,18,17,16,16,18,16,16,17],"number_of_frames":121,"aperture_center_x":640,"aperture_center_y":273.5,"fixation_cross":true,"fixation_cross_width":15,"fixation_cross_height":15,"fixation_cross_color":"#111","fixation_cross_thickness":1,"border":true,"border_thickness":2,"border_color":"transparent","canvas_width":1280,"canvas_height":547,"trial_type":"rdk","trial_index":31,"plugin_version":"2.0.0","time_elapsed":127948,"phase":"practice","target_direction":141,"distractor_direction":301},{"rt":2855,"stimulus":"\n        <div class=\"response-container\">\n          <div class=\"response-instruction\">\n            <p>rotate the bar by using the left and right arrow keys.</p>\n            <p>when you are determined, press the Enter key.</p>\n          </div>\n          <div class=\"response-circle\">\n            <div class=\"response-fixation\"></div>\n            <div id=\"bar\" class=\"rotating-bar\"></div>\n          </div>\n        </div>\n      ","response":"Enter","trial_type":"html-keyboard-response","trial_index":32,"plugin_version":"2.1.0","time_elapsed":130804,"random_initial_angle":263,"response_angle_css":307,"response_angle_rdk":143,"angular_error_target":2,"angular_error_distractor":-158,"target_direction":141,"target_group":"black","reward_points":9},{"rt":null,"stimulus":"\n          <p style=\"color: #00FF00;\">Your reward: 9 points</p>\n        ","response":null,"trial_type":"html-keyboard-response","trial_index":33,"plugin_version":"2.1.0","time_elapsed":132812},{"rt":null,"stimulus":"<div class=\"fixation\" style=\"font-size: 60px;\">+</div>","response":null,"trial_type":"html-keyboard-response","trial_index":34,"plugin_version":"2.1.0","time_elapsed":133822},{"target_group":"white","target_index":0,"condition_label":"practice","rt":-1,"response":"","correct":false,"choices":"ALL_KEYS","correct_choice":["a"],"trial_duration":2000,"flip_timestamps":[],"response_ends_trial":false,"number_of_apertures":2,"number_of_dots":[100,51],"number_of_sets":1,"coherent_direction":[237,69],"coherence":1,"opposite_coherence":0,"dot_radius":2,"dot_side_length":1,"dot_life":-1,"move_distance":1,"aperture_width":300,"aperture_height":300,"dot_color":["white","black"],"dot_shape":"circle","background_color":"#AAA","RDK_type":3,"aperture_type":2,"reinsert_type":2,"frame_rate":16.41322314049587,"frame_rate_array":[1,10,16,9,18,17,16,18,14,17,16,17,17,17,17,16,16,17,17,17,17,16,16,16,18,17,16,17,17,17,16,16,17,17,17,16,17,16,17,17,17,15,18,17,16,18,16,16,17,16,18,16,16,18,15,18,16,17,17,17,16,16,18,16,17,16,18,16,16,17,17,16,16,18,17,16,17,16,16,18,17,16,16,18,16,17,16,16,18,16,17,16,17,17,17,17,15,18,17,17,16,17,16,17,17,16,17,16,17,17,17,16,16,17,17,17,16,17,17,16,17],"number_of_frames":121,"aperture_center_x":640,"aperture_center_y":273.5,"fixation_cross":true,"fixation_cross_width":15,"fixation_cross_height":15,"fixation_cross_color":"#111","fixation_cross_thickness":1,"border":true,"border_thickness":2,"border_color":"transparent","canvas_width":1280,"canvas_height":547,"trial_type":"rdk","trial_index":35,"plugin_version":"2.0.0","time_elapsed":135826,"phase":"practice","target_direction":237,"distractor_direction":69},{"rt":3662,"stimulus":"\n        <div class=\"response-container\">\n          <div class=\"response-instruction\">\n            <p>rotate the bar by using the left and right arrow keys.</p>\n            <p>when you are determined, press the Enter key.</p>\n          </div>\n          <div class=\"response-circle\">\n            <div class=\"response-fixation\"></div>\n            <div id=\"bar\" class=\"rotating-bar\"></div>\n          </div>\n        </div>\n      ","response":"Enter","trial_type":"html-keyboard-response","trial_index":36,"plugin_version":"2.1.0","time_elapsed":139489,"random_initial_angle":185,"response_angle_css":330,"response_angle_rdk":120,"angular_error_target":-117,"angular_error_distractor":51,"target_direction":237,"target_group":"white","reward_points":0},{"rt":null,"stimulus":"\n          <p style=\"color: #FF3333;\">Your reward: 0 points</p>\n        ","response":null,"trial_type":"html-keyboard-response","trial_index":37,"plugin_version":"2.1.0","time_elapsed":141491},{"rt":null,"stimulus":"<div class=\"fixation\" style=\"font-size: 60px;\">+</div>","response":null,"trial_type":"html-keyboard-response","trial_index":38,"plugin_version":"2.1.0","time_elapsed":142505},{"target_group":"black","target_index":1,"condition_label":"practice","rt":-1,"response":"","correct":false,"choices":"ALL_KEYS","correct_choice":["a"],"trial_duration":2000,"flip_timestamps":[],"response_ends_trial":false,"number_of_apertures":2,"number_of_dots":[51,100],"number_of_sets":1,"coherent_direction":[359,118],"coherence":1,"opposite_coherence":0,"dot_radius":2,"dot_side_length":1,"dot_life":-1,"move_distance":1,"aperture_width":300,"aperture_height":300,"dot_color":["white","black"],"dot_shape":"circle","background_color":"#AAA","RDK_type":3,"aperture_type":2,"reinsert_type":2,"frame_rate":16.43089430894309,"frame_rate_array":[2,11,9,17,17,16,17,15,17,17,16,17,17,16,17,17,17,16,16,18,16,16,18,16,17,17,15,17,17,17,17,16,18,16,16,17,17,17,16,17,17,16,17,17,17,16,17,16,17,17,16,17,16,18,16,16,17,17,16,17,16,18,17,15,17,18,16,17,16,17,16,17,16,18,16,17,16,16,18,17,16,17,16,17,17,15,17,18,17,16,16,18,16,16,18,16,18,15,17,17,16,17,17,17,16,17,17,17,15,18,16,17,16,16,18,16,17,17,16,17,17,17,16],"number_of_frames":123,"aperture_center_x":640,"aperture_center_y":273.5,"fixation_cross":true,"fixation_cross_width":15,"fixation_cross_height":15,"fixation_cross_color":"#111","fixation_cross_thickness":1,"border":true,"border_thickness":2,"border_color":"transparent","canvas_width":1280,"canvas_height":547,"trial_type":"rdk","trial_index":39,"plugin_version":"2.0.0","time_elapsed":144530,"phase":"practice","target_direction":118,"distractor_direction":359},{"rt":2358,"stimulus":"\n        <div class=\"response-container\">\n          <div class=\"response-instruction\">\n            <p>rotate the bar by using the left and right arrow keys.</p>\n            <p>when you are determined, press the Enter key.</p>\n          </div>\n          <div class=\"response-circle\">\n            <div class=\"response-fixation\"></div>\n            <div id=\"bar\" class=\"rotating-bar\"></div>\n          </div>\n        </div>\n      ","response":"Enter","trial_type":"html-keyboard-response","trial_index":40,"plugin_version":"2.1.0","time_elapsed":146890,"random_initial_angle":7,"response_angle_css":-46,"response_angle_rdk":136,"angular_error_target":18,"angular_error_distractor":137,"target_direction":118,"target_group":"black","reward_points":6},{"rt":null,"stimulus":"\n          <p style=\"color: #00FF00;\">Your reward: 6 points</p>\n        ","response":null,"trial_type":"html-keyboard-response","trial_index":41,"plugin_version":"2.1.0","time_elapsed":148896},{"rt":null,"stimulus":"<div class=\"fixation\" style=\"font-size: 60px;\">+</div>","response":null,"trial_type":"html-keyboard-response","trial_index":42,"plugin_version":"2.1.0","time_elapsed":149900},{"target_group":"black","target_index":1,"condition_label":"practice","rt":-1,"response":"","correct":false,"choices":"ALL_KEYS","correct_choice":["a"],"trial_duration":2000,"flip_timestamps":[],"response_ends_trial":false,"number_of_apertures":2,"number_of_dots":[83,100],"number_of_sets":1,"coherent_direction":[68,335],"coherence":1,"opposite_coherence":0,"dot_radius":2,"dot_side_length":1,"dot_life":-1,"move_distance":1,"aperture_width":300,"aperture_height":300,"dot_color":["white","black"],"dot_shape":"circle","background_color":"#AAA","RDK_type":3,"aperture_type":2,"reinsert_type":2,"frame_rate":16.459016393442624,"frame_rate_array":[2,9,15,16,18,15,18,15,16,17,17,17,16,16,18,16,18,15,17,17,17,16,17,17,16,17,16,17,17,17,16,17,16,17,17,17,16,17,16,17,17,17,16,17,17,17,16,16,18,16,16,17,17,17,16,17,17,16,17,17,16,18,16,16,17,17,16,17,16,17,17,17,16,17,17,17,17,15,18,16,16,16,18,17,16,17,17,16,17,16,18,16,16,17,17,16,17,16,17,17,17,17,16,17,17,16,17,17,17,16,17,16,17,17,16,17,17,16,17,16,17,17],"number_of_frames":122,"aperture_center_x":640,"aperture_center_y":273.5,"fixation_cross":true,"fixation_cross_width":15,"fixation_cross_height":15,"fixation_cross_color":"#111","fixation_cross_thickness":1,"border":true,"border_thickness":2,"border_color":"transparent","canvas_width":1280,"canvas_height":547,"trial_type":"rdk","trial_index":43,"plugin_version":"2.0.0","time_elapsed":151914,"phase":"practice","target_direction":335,"distractor_direction":68},{"rt":4413,"stimulus":"\n        <div class=\"response-container\">\n          <div class=\"response-instruction\">\n            <p>rotate the bar by using the left and right arrow keys.</p>\n            <p>when you are determined, press the Enter key.</p>\n          </div>\n          <div class=\"response-circle\">\n            <div class=\"response-fixation\"></div>\n            <div id=\"bar\" class=\"rotating-bar\"></div>\n          </div>\n        </div>\n      ","response":"Enter","trial_type":"html-keyboard-response","trial_index":44,"plugin_version":"2.1.0","time_elapsed":156328,"random_initial_angle":118,"response_angle_css":301,"response_angle_rdk":149,"angular_error_target":174,"angular_error_distractor":81,"target_direction":335,"target_group":"black","reward_points":0},{"rt":null,"stimulus":"\n          <p style=\"color: #FF3333;\">Your reward: 0 points</p>\n        ","response":null,"trial_type":"html-keyboard-response","trial_index":45,"plugin_version":"2.1.0","time_elapsed":158329},{"rt":null,"stimulus":"<div class=\"fixation\" style=\"font-size: 60px;\">+</div>","response":null,"trial_type":"html-keyboard-response","trial_index":46,"plugin_version":"2.1.0","time_elapsed":159341},{"target_group":"black","target_index":1,"condition_label":"practice","rt":-1,"response":"","correct":false,"choices":"ALL_KEYS","correct_choice":["a"],"trial_duration":2000,"flip_timestamps":[],"response_ends_trial":false,"number_of_apertures":2,"number_of_dots":[65,100],"number_of_sets":1,"coherent_direction":[318,60],"coherence":1,"opposite_coherence":0,"dot_radius":2,"dot_side_length":1,"dot_life":-1,"move_distance":1,"aperture_width":300,"aperture_height":300,"dot_color":["white","black"],"dot_shape":"circle","background_color":"#AAA","RDK_type":3,"aperture_type":2,"reinsert_type":2,"frame_rate":16.553719008264462,"frame_rate_array":[2,18,16,19,16,16,16,17,16,17,16,18,15,18,16,17,16,17,17,16,17,16,18,16,16,18,17,16,16,17,17,17,16,17,16,17,17,16,17,16,18,16,16,17,17,17,16,18,16,16,17,16,18,16,17,17,16,17,17,16,18,15,16,18,16,17,17,16,17,17,17,16,16,18,16,17,16,17,17,16,17,17,16,17,17,17,16,17,17,16,17,17,16,17,16,17,17,17,16,17,17,16,17,17,16,17,16,17,17,16,17,17,17,16,16,17,17,17,17,16,17],"number_of_frames":121,"aperture_center_x":640,"aperture_center_y":273.5,"fixation_cross":true,"fixation_cross_width":15,"fixation_cross_height":15,"fixation_cross_color":"#111","fixation_cross_thickness":1,"border":true,"border_thickness":2,"border_color":"transparent","canvas_width":1280,"canvas_height":547,"trial_type":"rdk","trial_index":47,"plugin_version":"2.0.0","time_elapsed":161347,"phase":"practice","target_direction":60,"distractor_direction":318},{"rt":2880,"stimulus":"\n        <div class=\"response-container\">\n          <div class=\"response-instruction\">\n            <p>rotate the bar by using the left and right arrow keys.</p>\n            <p>when you are determined, press the Enter key.</p>\n          </div>\n          <div class=\"response-circle\">\n            <div class=\"response-fixation\"></div>\n            <div id=\"bar\" class=\"rotating-bar\"></div>\n          </div>\n        </div>\n      ","response":"Enter","trial_type":"html-keyboard-response","trial_index":48,"plugin_version":"2.1.0","time_elapsed":164229,"random_initial_angle":9,"response_angle_css":-45,"response_angle_rdk":135,"angular_error_target":75,"angular_error_distractor":177,"target_direction":60,"target_group":"black","reward_points":0},{"rt":null,"stimulus":"\n          <p style=\"color: #FF3333;\">Your reward: 0 points</p>\n        ","response":null,"trial_type":"html-keyboard-response","trial_index":49,"plugin_version":"2.1.0","time_elapsed":166240},{"rt":null,"stimulus":"<div class=\"fixation\" style=\"font-size: 60px;\">+</div>","response":null,"trial_type":"html-keyboard-response","trial_index":50,"plugin_version":"2.1.0","time_elapsed":167255},{"target_group":"white","target_index":0,"condition_label":"practice","rt":1820,"response":"Enter","correct":false,"choices":"ALL_KEYS","correct_choice":["a"],"trial_duration":2000,"flip_timestamps":[],"response_ends_trial":false,"number_of_apertures":2,"number_of_dots":[100,69],"number_of_sets":1,"coherent_direction":[299,155],"coherence":1,"opposite_coherence":0,"dot_radius":2,"dot_side_length":1,"dot_life":-1,"move_distance":1,"aperture_width":300,"aperture_height":300,"dot_color":["white","black"],"dot_shape":"circle","background_color":"#AAA","RDK_type":3,"aperture_type":2,"reinsert_type":2,"frame_rate":16.442622950819672,"frame_rate_array":[2,10,11,17,17,16,18,16,15,17,17,16,18,16,16,17,16,17,17,17,16,17,17,17,16,17,17,16,17,17,16,19,14,17,17,17,16,16,17,18,16,17,17,17,16,16,16,18,16,17,16,18,15,17,18,17,15,17,17,17,17,16,16,17,17,17,16,17,16,17,18,15,17,17,17,16,16,18,16,17,16,18,16,17,16,17,16,17,18,15,17,16,17,18,16,16,17,17,16,18,16,16,17,18,16,16,17,16,17,17,16,17,17,16,18,15,20,14,17,17,16,17],"number_of_frames":122,"aperture_center_x":640,"aperture_center_y":273.5,"fixation_cross":true,"fixation_cross_width":15,"fixation_cross_height":15,"fixation_cross_color":"#111","fixation_cross_thickness":1,"border":true,"border_thickness":2,"border_color":"transparent","canvas_width":1280,"canvas_height":547,"trial_type":"rdk","trial_index":51,"plugin_version":"2.0.0","time_elapsed":169269,"phase":"practice","target_direction":299,"distractor_direction":155},{"rt":484,"stimulus":"\n        <div class=\"response-container\">\n          <div class=\"response-instruction\">\n            <p>rotate the bar by using the left and right arrow keys.</p>\n            <p>when you are determined, press the Enter key.</p>\n          </div>\n          <div class=\"response-circle\">\n            <div class=\"response-fixation\"></div>\n            <div id=\"bar\" class=\"rotating-bar\"></div>\n          </div>\n        </div>\n      ","response":"Enter","trial_type":"html-keyboard-response","trial_index":52,"plugin_version":"2.1.0","time_elapsed":169753,"random_initial_angle":74,"response_angle_css":74,"response_angle_rdk":16,"angular_error_target":77,"angular_error_distractor":-139,"target_direction":299,"target_group":"white","reward_points":0},{"rt":null,"stimulus":"\n          <p style=\"color: #FF3333;\">Your reward: 0 points</p>\n        ","response":null,"trial_type":"html-keyboard-response","trial_index":53,"plugin_version":"2.1.0","time_elapsed":171786},{"rt":null,"stimulus":"<div class=\"fixation\" style=\"font-size: 60px;\">+</div>","response":null,"trial_type":"html-keyboard-response","trial_index":54,"plugin_version":"2.1.0","time_elapsed":172791},{"target_group":"black","target_index":1,"condition_label":"practice","rt":-1,"response":"","correct":false,"choices":"ALL_KEYS","correct_choice":["a"],"trial_duration":2000,"flip_timestamps":[],"response_ends_trial":false,"number_of_apertures":2,"number_of_dots":[52,100],"number_of_sets":1,"coherent_direction":[285,15],"coherence":1,"opposite_coherence":0,"dot_radius":2,"dot_side_length":1,"dot_life":-1,"move_distance":1,"aperture_width":300,"aperture_height":300,"dot_color":["white","black"],"dot_shape":"circle","background_color":"#AAA","RDK_type":3,"aperture_type":2,"reinsert_type":2,"frame_rate":16.40495867768595,"frame_rate_array":[2,10,15,9,18,17,16,17,15,17,16,18,16,17,16,16,17,18,15,18,16,17,16,17,17,17,16,17,17,17,16,17,16,16,17,17,17,16,17,17,16,18,16,17,16,17,17,16,17,17,17,16,16,17,17,16,17,17,16,17,17,17,17,16,17,16,17,17,16,17,16,17,17,16,17,17,17,17,16,16,17,17,17,16,17,17,16,17,17,16,17,17,17,16,17,16,17,16,17,16,18,16,16,18,16,17,17,17,16,17,16,16,18,16,17,17,16,16,17,17,16],"number_of_frames":121,"aperture_center_x":640,"aperture_center_y":273.5,"fixation_cross":true,"fixation_cross_width":15,"fixation_cross_height":15,"fixation_cross_color":"#111","fixation_cross_thickness":1,"border":true,"border_thickness":2,"border_color":"transparent","canvas_width":1280,"canvas_height":547,"trial_type":"rdk","trial_index":55,"plugin_version":"2.0.0","time_elapsed":174794,"phase":"practice","target_direction":15,"distractor_direction":285},{"rt":3085,"stimulus":"\n        <div class=\"response-container\">\n          <div class=\"response-instruction\">\n            <p>rotate the bar by using the left and right arrow keys.</p>\n            <p>when you are determined, press the Enter key.</p>\n          </div>\n          <div class=\"response-circle\">\n            <div class=\"response-fixation\"></div>\n            <div id=\"bar\" class=\"rotating-bar\"></div>\n          </div>\n        </div>\n      ","response":"Enter","trial_type":"html-keyboard-response","trial_index":56,"plugin_version":"2.1.0","time_elapsed":177882,"random_initial_angle":208,"response_angle_css":298,"response_angle_rdk":152,"angular_error_target":137,"angular_error_distractor":-133,"target_direction":15,"target_group":"black","reward_points":0},{"rt":null,"stimulus":"\n          <p style=\"color: #FF3333;\">Your reward: 0 points</p>\n        ","response":null,"trial_type":"html-keyboard-response","trial_index":57,"plugin_version":"2.1.0","time_elapsed":180042},{"rt":null,"stimulus":"<div class=\"fixation\" style=\"font-size: 60px;\">+</div>","response":null,"trial_type":"html-keyboard-response","trial_index":58,"plugin_version":"2.1.0","time_elapsed":181045},{"target_group":"white","target_index":0,"condition_label":"practice","rt":-1,"response":"","correct":false,"choices":"ALL_KEYS","correct_choice":["a"],"trial_duration":2000,"flip_timestamps":[],"response_ends_trial":false,"number_of_apertures":2,"number_of_dots":[100,73],"number_of_sets":1,"coherent_direction":[321,148],"coherence":1,"opposite_coherence":0,"dot_radius":2,"dot_side_length":1,"dot_life":-1,"move_distance":1,"aperture_width":300,"aperture_height":300,"dot_color":["white","black"],"dot_shape":"circle","background_color":"#AAA","RDK_type":3,"aperture_type":2,"reinsert_type":2,"frame_rate":16.52892561983471,"frame_rate_array":[1,15,17,18,15,17,18,15,17,15,17,18,16,16,17,17,17,16,18,16,16,17,17,17,17,15,17,17,17,16,17,17,16,17,16,18,16,16,17,17,16,17,17,17,16,17,17,17,17,16,16,16,18,17,16,16,17,17,17,16,16,18,16,17,17,16,17,16,17,17,17,16,17,17,16,17,17,16,16,18,16,17,17,17,17,16,17,16,17,16,17,17,16,17,17,17,16,17,17,15,17,17,17,17,16,17,16,18,16,17,17,15,18,17,16,16,17,17,16,17,18],"number_of_frames":121,"aperture_center_x":640,"aperture_center_y":273.5,"fixation_cross":true,"fixation_cross_width":15,"fixation_cross_height":15,"fixation_cross_color":"#111","fixation_cross_thickness":1,"border":true,"border_thickness":2,"border_color":"transparent","canvas_width":1280,"canvas_height":547,"trial_type":"rdk","trial_index":59,"plugin_version":"2.0.0","time_elapsed":183056,"phase":"practice","target_direction":321,"distractor_direction":148},{"rt":1651,"stimulus":"\n        <div class=\"response-container\">\n          <div class=\"response-instruction\">\n            <p>rotate the bar by using the left and right arrow keys.</p>\n            <p>when you are determined, press the Enter key.</p>\n          </div>\n          <div class=\"response-circle\">\n            <div class=\"response-fixation\"></div>\n            <div id=\"bar\" class=\"rotating-bar\"></div>\n          </div>\n        </div>\n      ","response":"Enter","trial_type":"html-keyboard-response","trial_index":60,"plugin_version":"2.1.0","time_elapsed":184708,"random_initial_angle":42,"response_angle_css":61,"response_angle_rdk":29,"angular_error_target":68,"angular_error_distractor":-119,"target_direction":321,"target_group":"white","reward_points":0},{"rt":null,"stimulus":"\n          <p style=\"color: #FF3333;\">Your reward: 0 points</p>\n        ","response":null,"trial_type":"html-keyboard-response","trial_index":61,"plugin_version":"2.1.0","time_elapsed":186716},{"rt":null,"stimulus":"<div class=\"fixation\" style=\"font-size: 60px;\">+</div>","response":null,"trial_type":"html-keyboard-response","trial_index":62,"plugin_version":"2.1.0","time_elapsed":187724},{"target_group":"white","target_index":0,"condition_label":"practice","rt":-1,"response":"","correct":false,"choices":"ALL_KEYS","correct_choice":["a"],"trial_duration":2000,"flip_timestamps":[],"response_ends_trial":false,"number_of_apertures":2,"number_of_dots":[100,62],"number_of_sets":1,"coherent_direction":[143,36],"coherence":1,"opposite_coherence":0,"dot_radius":2,"dot_side_length":1,"dot_life":-1,"move_distance":1,"aperture_width":300,"aperture_height":300,"dot_color":["white","black"],"dot_shape":"circle","background_color":"#AAA","RDK_type":3,"aperture_type":2,"reinsert_type":2,"frame_rate":16.434426229508198,"frame_rate_array":[2,10,9,19,17,17,16,15,16,17,17,17,16,17,17,16,17,17,16,16,17,17,17,17,17,17,16,16,17,17,16,17,17,16,17,17,16,17,17,16,16,18,16,17,16,17,17,17,16,16,18,17,15,18,17,16,16,17,17,16,18,15,17,18,15,18,17,15,17,17,17,17,16,17,16,17,16,18,17,15,18,16,16,17,17,17,17,16,16,17,17,17,17,16,17,16,18,16,17,16,17,17,16,17,16,17,17,17,16,17,17,16,17,16,18,15,17,18,16,17,16,17],"number_of_frames":122,"aperture_center_x":640,"aperture_center_y":273.5,"fixation_cross":true,"fixation_cross_width":15,"fixation_cross_height":15,"fixation_cross_color":"#111","fixation_cross_thickness":1,"border":true,"border_thickness":2,"border_color":"transparent","canvas_width":1280,"canvas_height":547,"trial_type":"rdk","trial_index":63,"plugin_version":"2.0.0","time_elapsed":189736,"phase":"practice","target_direction":143,"distractor_direction":36},{"rt":3657,"stimulus":"\n        <div class=\"response-container\">\n          <div class=\"response-instruction\">\n            <p>rotate the bar by using the left and right arrow keys.</p>\n            <p>when you are determined, press the Enter key.</p>\n          </div>\n          <div class=\"response-circle\">\n            <div class=\"response-fixation\"></div>\n            <div id=\"bar\" class=\"rotating-bar\"></div>\n          </div>\n        </div>\n      ","response":"Enter","trial_type":"html-keyboard-response","trial_index":64,"plugin_version":"2.1.0","time_elapsed":193393,"random_initial_angle":276,"response_angle_css":420,"response_angle_rdk":30,"angular_error_target":-113,"angular_error_distractor":-6,"target_direction":143,"target_group":"white","reward_points":0},{"rt":null,"stimulus":"\n          <p style=\"color: #FF3333;\">Your reward: 0 points</p>\n        ","response":null,"trial_type":"html-keyboard-response","trial_index":65,"plugin_version":"2.1.0","time_elapsed":195401},{"rt":6853,"stimulus":"\n        <div class=\"instructions-container\">\n          <h2>End of Practice</h2>\n          <p>You have completed the practice trials.</p>\n          <p>Press <strong>Enter</strong> key to begin the main experiment.</p>\n        </div>\n      ","response":"Enter","trial_type":"html-keyboard-response","trial_index":66,"plugin_version":"2.1.0","time_elapsed":202254},{"rt":null,"stimulus":"<div class=\"fixation\" style=\"font-size: 60px;\">+</div>","response":null,"trial_type":"html-keyboard-response","trial_index":67,"plugin_version":"2.1.0","time_elapsed":203266},{"phase":"learning-awareness","target_group":"white","condition_label":"W_H_vs_B_L_rep21","target_direction":19,"distractor_direction":271,"session_rotation":344,"rt":-1,"response":"","correct":false,"choices":"ALL_KEYS","correct_choice":["a"],"trial_duration":2000,"flip_timestamps":[],"response_ends_trial":false,"number_of_apertures":200,"number_of_dots":[1,1,1,1,1,1,1,1,1,1,1,1,1,1,1,1,1,1,1,1,1,1,1,1,1,1,1,1,1,1,1,1,1,1,1,1,1,1,1,1,1,1,1,1,1,1,1,1,1,1,1,1,1,1,1,1,1,1,1,1,1,1,1,1,1,1,1,1,1,1,1,1,1,1,1,1,1,1,1,1,1,1,1,1,1,1,1,1,1,1,1,1,1,1,1,1,1,1,1,1,1,1,1,1,1,1,1,1,1,1,1,1,1,1,1,1,1,1,1,1,1,1,1,1,1,1,1,1,1,1,1,1,1,1,1,1,1,1,1,1,1,1,1,1,1,1,1,1,1,1,1,1,1,1,1,1,1,1,1,1,1,1,1,1,1,1,1,1,1,1,1,1,1,1,1,1,1,1,1,1,1,1,1,1,1,1,1,1,1,1,1,1,1,1,1,1,1,1,1,1],"number_of_sets":1,"coherent_direction":[271,19,19,19,271,19,19,19,271,19,271,271,19,271,19,19,271,271,19,19,271,271,19,19,271,19,19,19,19,19,271,271,271,19,271,19,271,19,19,19,19,271,271,271,19,271,271,271,19,271,271,271,19,271,19,19,19,19,271,19,271,19,271,271,271,19,19,19,271,19,19,271,19,271,271,271,19,19,19,19,271,271,19,19,271,271,19,19,271,19,271,19,19,271,271,19,271,19,271,271,271,271,271,271,19,271,271,271,19,19,271,271,271,19,271,19,19,19,19,19,19,271,271,271,271,271,271,19,271,19,19,19,271,271,19,271,271,19,19,271,19,271,19,19,271,19,19,271,271,271,271,271,271,271,19,271,19,271,19,19,271,19,19,271,19,271,271,271,19,271,19,271,271,19,19,271,19,271,271,19,19,271,19,19,19,19,19,19,271,271,271,271,19,271,19,271,19,271,19,19],"coherence":1,"opposite_coherence":0,"dot_radius":2,"dot_side_length":1,"dot_life":-1,"move_distance":1,"aperture_width":300,"aperture_height":300,"dot_color":["black","white","white","white","black","white","white","white","black","white","black","black","white","black","white","white","black","black","white","white","black","black","white","white","black","white","white","white","white","white","black","black","black","white","black","white","black","white","white","white","white","black","black","black","white","black","black","black","white","black","black","black","white","black","white","white","white","white","black","white","black","white","black","black","black","white","white","white","black","white","white","black","white","black","black","black","white","white","white","white","black","black","white","white","black","black","white","white","black","white","black","white","white","black","black","white","black","white","black","black","black","black","black","black","white","black","black","black","white","white","black","black","black","white","black","white","white","white","white","white","white","black","black","black","black","black","black","white","black","white","white","white","black","black","white","black","black","white","white","black","white","black","white","white","black","white","white","black","black","black","black","black","black","black","white","black","white","black","white","white","black","white","white","black","white","black","black","black","white","black","white","black","black","white","white","black","white","black","black","white","white","black","white","white","white","white","white","white","black","black","black","black","white","black","white","black","white","black","white","white"],"dot_shape":"circle","background_color":"#AAA","RDK_type":3,"aperture_type":2,"reinsert_type":2,"frame_rate":16.50413223140496,"frame_rate_array":[2,10,18,18,15,18,17,15,16,18,17,16,17,15,18,17,16,17,16,17,17,16,16,17,17,18,15,18,16,16,17,17,17,17,16,17,16,17,16,18,16,16,17,17,16,17,17,16,18,16,16,17,18,16,16,17,16,17,18,15,17,17,17,16,16,17,17,17,16,17,17,16,17,18,16,16,17,16,18,16,16,17,17,17,17,15,18,16,16,17,17,18,16,16,17,17,16,17,18,16,15,18,17,16,16,17,16,17,18,16,16,17,17,17,17,15,17,18,16,17,17],"number_of_frames":121,"aperture_center_x":640,"aperture_center_y":273.5,"fixation_cross":true,"fixation_cross_width":15,"fixation_cross_height":15,"fixation_cross_color":"#111","fixation_cross_thickness":1,"border":true,"border_thickness":2,"border_color":"transparent","canvas_width":1280,"canvas_height":547,"trial_type":"rdk","trial_index":68,"plugin_version":"2.0.0","time_elapsed":205278},{"rt":2204,"stimulus":"\n        <div class=\"response-container\">\n          <div class=\"response-instruction\">\n            <p>rotate the bar by using the left and right arrow keys.</p>\n            <p>when you are determined, press the Enter key.</p>\n          </div>\n          <div class=\"response-circle\">\n            <div class=\"response-fixation\"></div>\n            <div id=\"bar\" class=\"rotating-bar\"></div>\n          </div>\n        </div>\n      ","response":"Enter","trial_type":"html-keyboard-response","trial_index":69,"plugin_version":"2.1.0","time_elapsed":207483,"random_initial_angle":286,"response_angle_css":245,"response_angle_rdk":205,"angular_error_target":-174,"angular_error_distractor":-66,"target_direction":19,"target_group":"white","reward_points":0},{"rt":null,"stimulus":"\n          <p style=\"color: #FF3333;\">Your reward: 0 points</p>\n        ","response":null,"trial_type":"html-keyboard-response","trial_index":70,"plugin_version":"2.1.0","time_elapsed":209494},{"rt":null,"stimulus":"<div class=\"fixation\" style=\"font-size: 60px;\">+</div>","response":null,"trial_type":"html-keyboard-response","trial_index":71,"plugin_version":"2.1.0","time_elapsed":210508},{"phase":"learning-awareness","target_group":"white","condition_label":"W_H_vs_B_L_rep11","target_direction":8,"distractor_direction":277,"session_rotation":344,"rt":-1,"response":"","correct":false,"choices":"ALL_KEYS","correct_choice":["a"],"trial_duration":2000,"flip_timestamps":[],"response_ends_trial":false,"number_of_apertures":200,"number_of_dots":[1,1,1,1,1,1,1,1,1,1,1,1,1,1,1,1,1,1,1,1,1,1,1,1,1,1,1,1,1,1,1,1,1,1,1,1,1,1,1,1,1,1,1,1,1,1,1,1,1,1,1,1,1,1,1,1,1,1,1,1,1,1,1,1,1,1,1,1,1,1,1,1,1,1,1,1,1,1,1,1,1,1,1,1,1,1,1,1,1,1,1,1,1,1,1,1,1,1,1,1,1,1,1,1,1,1,1,1,1,1,1,1,1,1,1,1,1,1,1,1,1,1,1,1,1,1,1,1,1,1,1,1,1,1,1,1,1,1,1,1,1,1,1,1,1,1,1,1,1,1,1,1,1,1,1,1,1,1,1,1,1,1,1,1,1,1,1,1,1,1,1,1,1,1,1,1,1,1,1,1,1,1,1,1,1,1,1,1,1,1,1,1,1,1,1,1,1,1,1,1],"number_of_sets":1,"coherent_direction":[8,8,277,8,277,277,277,8,8,277,277,8,277,8,277,8,8,277,8,8,277,8,8,277,8,277,277,8,8,277,8,8,8,8,8,277,277,8,277,277,277,277,277,277,277,8,277,8,277,8,8,8,8,277,8,277,277,8,277,8,8,8,8,277,277,277,277,8,8,277,277,277,277,8,8,8,277,277,277,8,8,8,8,277,277,8,8,277,8,8,277,277,277,277,8,277,8,277,8,8,8,277,8,277,8,8,277,277,277,277,277,277,277,8,277,277,8,277,8,8,277,8,8,277,8,277,277,8,8,8,8,277,277,8,277,8,8,277,277,8,277,277,8,277,277,8,8,8,277,277,277,277,8,277,8,277,8,277,277,277,8,8,277,8,277,8,8,8,277,277,8,8,8,8,8,277,277,277,8,277,277,8,8,8,277,277,277,8,8,8,277,8,277,8,277,8,277,277,8,8],"coherence":1,"opposite_coherence":0,"dot_radius":2,"dot_side_length":1,"dot_life":-1,"move_distance":1,"aperture_width":300,"aperture_height":300,"dot_color":["white","white","black","white","black","black","black","white","white","black","black","white","black","white","black","white","white","black","white","white","black","white","white","black","white","black","black","white","white","black","white","white","white","white","white","black","black","white","black","black","black","black","black","black","black","white","black","white","black","white","white","white","white","black","white","black","black","white","black","white","white","white","white","black","black","black","black","white","white","black","black","black","black","white","white","white","black","black","black","white","white","white","white","black","black","white","white","black","white","white","black","black","black","black","white","black","white","black","white","white","white","black","white","black","white","white","black","black","black","black","black","black","black","white","black","black","white","black","white","white","black","white","white","black","white","black","black","white","white","white","white","black","black","white","black","white","white","black","black","white","black","black","white","black","black","white","white","white","black","black","black","black","white","black","white","black","white","black","black","black","white","white","black","white","black","white","white","white","black","black","white","white","white","white","white","black","black","black","white","black","black","white","white","white","black","black","black","white","white","white","black","white","black","white","black","white","black","black","white","white"],"dot_shape":"circle","background_color":"#AAA","RDK_type":3,"aperture_type":2,"reinsert_type":2,"frame_rate":16.42622950819672,"frame_rate_array":[1,9,18,9,18,17,16,17,15,17,17,17,16,17,17,16,17,16,17,17,16,17,16,18,16,16,17,17,16,17,17,17,16,18,15,17,17,18,15,16,18,16,17,17,17,16,17,17,16,17,16,17,17,16,17,16,17,17,17,16,17,17,17,16,16,18,16,17,16,17,16,17,18,16,16,17,17,16,18,16,16,17,16,18,16,16,18,16,16,17,17,17,16,17,16,18,17,16,16,17,17,16,17,16,18,16,17,16,17,17,16,17,17,16,17,17,16,17,17,17,15,18],"number_of_frames":122,"aperture_center_x":640,"aperture_center_y":273.5,"fixation_cross":true,"fixation_cross_width":15,"fixation_cross_height":15,"fixation_cross_color":"#111","fixation_cross_thickness":1,"border":true,"border_thickness":2,"border_color":"transparent","canvas_width":1280,"canvas_height":547,"trial_type":"rdk","trial_index":72,"plugin_version":"2.0.0","time_elapsed":212522},{"rt":2056,"stimulus":"\n        <div class=\"response-container\">\n          <div class=\"response-instruction\">\n            <p>rotate the bar by using the left and right arrow keys.</p>\n            <p>when you are determined, press the Enter key.</p>\n          </div>\n          <div class=\"response-circle\">\n            <div class=\"response-fixation\"></div>\n            <div id=\"bar\" class=\"rotating-bar\"></div>\n          </div>\n        </div>\n      ","response":"Enter","trial_type":"html-keyboard-response","trial_index":73,"plugin_version":"2.1.0","time_elapsed":214579,"random_initial_angle":244,"response_angle_css":263,"response_angle_rdk":187,"angular_error_target":179,"angular_error_distractor":-90,"target_direction":8,"target_group":"white","reward_points":0},{"rt":null,"stimulus":"\n          <p style=\"color: #FF3333;\">Your reward: 0 points</p>\n        ","response":null,"trial_type":"html-keyboard-response","trial_index":74,"plugin_version":"2.1.0","time_elapsed":216592},{"rt":null,"stimulus":"<div class=\"fixation\" style=\"font-size: 60px;\">+</div>","response":null,"trial_type":"html-keyboard-response","trial_index":75,"plugin_version":"2.1.0","time_elapsed":217605},{"phase":"learning-awareness","target_group":"black","condition_label":"B_H_vs_W_L_rep17","target_direction":80,"distractor_direction":192,"session_rotation":344,"rt":-1,"response":"","correct":false,"choices":"ALL_KEYS","correct_choice":["a"],"trial_duration":2000,"flip_timestamps":[],"response_ends_trial":false,"number_of_apertures":200,"number_of_dots":[1,1,1,1,1,1,1,1,1,1,1,1,1,1,1,1,1,1,1,1,1,1,1,1,1,1,1,1,1,1,1,1,1,1,1,1,1,1,1,1,1,1,1,1,1,1,1,1,1,1,1,1,1,1,1,1,1,1,1,1,1,1,1,1,1,1,1,1,1,1,1,1,1,1,1,1,1,1,1,1,1,1,1,1,1,1,1,1,1,1,1,1,1,1,1,1,1,1,1,1,1,1,1,1,1,1,1,1,1,1,1,1,1,1,1,1,1,1,1,1,1,1,1,1,1,1,1,1,1,1,1,1,1,1,1,1,1,1,1,1,1,1,1,1,1,1,1,1,1,1,1,1,1,1,1,1,1,1,1,1,1,1,1,1,1,1,1,1,1,1,1,1,1,1,1,1,1,1,1,1,1,1,1,1,1,1,1,1,1,1,1,1,1,1,1,1,1,1,1,1],"number_of_sets":1,"coherent_direction":[80,80,192,192,192,192,192,80,80,80,192,192,192,80,192,80,192,192,80,192,80,192,80,80,80,192,192,192,192,80,192,192,192,80,80,192,192,192,80,192,192,192,192,192,80,192,192,80,80,192,80,192,192,80,80,192,80,192,80,80,80,80,80,80,80,192,80,192,80,192,192,80,192,80,80,192,192,80,80,80,192,192,192,192,192,80,80,80,80,192,80,192,192,192,80,80,192,192,80,192,192,80,192,80,80,80,192,80,192,192,80,192,192,80,80,192,192,192,192,192,192,192,80,192,192,192,80,192,192,192,80,192,192,192,80,80,80,192,192,80,192,80,80,192,80,80,80,80,192,80,80,80,80,80,192,80,80,80,80,192,80,192,80,192,80,80,192,192,80,192,80,80,192,192,80,192,192,80,80,192,80,80,80,80,192,80,80,80,192,192,192,80,192,80,80,80,192,80,80,80],"coherence":1,"opposite_coherence":0,"dot_radius":2,"dot_side_length":1,"dot_life":-1,"move_distance":1,"aperture_width":300,"aperture_height":300,"dot_color":["black","black","white","white","white","white","white","black","black","black","white","white","white","black","white","black","white","white","black","white","black","white","black","black","black","white","white","white","white","black","white","white","white","black","black","white","white","white","black","white","white","white","white","white","black","white","white","black","black","white","black","white","white","black","black","white","black","white","black","black","black","black","black","black","black","white","black","white","black","white","white","black","white","black","black","white","white","black","black","black","white","white","white","white","white","black","black","black","black","white","black","white","white","white","black","black","white","white","black","white","white","black","white","black","black","black","white","black","white","white","black","white","white","black","black","white","white","white","white","white","white","white","black","white","white","white","black","white","white","white","black","white","white","white","black","black","black","white","white","black","white","black","black","white","black","black","black","black","white","black","black","black","black","black","white","black","black","black","black","white","black","white","black","white","black","black","white","white","black","white","black","black","white","white","black","white","white","black","black","white","black","black","black","black","white","black","black","black","white","white","white","black","white","black","black","black","white","black","black","black"],"dot_shape":"circle","background_color":"#AAA","RDK_type":3,"aperture_type":2,"reinsert_type":2,"frame_rate":16.4672131147541,"frame_rate_array":[2,9,13,18,17,17,16,15,18,16,16,18,16,17,17,16,17,16,17,17,17,17,16,17,16,17,17,16,18,16,16,17,16,18,16,17,17,15,18,16,17,16,18,16,16,18,16,16,17,16,18,17,16,17,17,16,17,16,18,15,17,16,18,16,17,16,18,15,17,17,17,16,17,17,17,16,18,15,17,17,16,17,17,17,17,16,17,17,16,17,17,17,16,16,17,17,16,18,16,16,17,17,16,16,18,16,17,17,16,17,17,16,17,17,17,16,16,18,17,15,17,18],"number_of_frames":122,"aperture_center_x":640,"aperture_center_y":273.5,"fixation_cross":true,"fixation_cross_width":15,"fixation_cross_height":15,"fixation_cross_color":"#111","fixation_cross_thickness":1,"border":true,"border_thickness":2,"border_color":"transparent","canvas_width":1280,"canvas_height":547,"trial_type":"rdk","trial_index":76,"plugin_version":"2.0.0","time_elapsed":219618},{"rt":727,"stimulus":"\n        <div class=\"response-container\">\n          <div class=\"response-instruction\">\n            <p>rotate the bar by using the left and right arrow keys.</p>\n            <p>when you are determined, press the Enter key.</p>\n          </div>\n          <div class=\"response-circle\">\n            <div class=\"response-fixation\"></div>\n            <div id=\"bar\" class=\"rotating-bar\"></div>\n          </div>\n        </div>\n      ","response":"Enter","trial_type":"html-keyboard-response","trial_index":77,"plugin_version":"2.1.0","time_elapsed":220347,"random_initial_angle":79,"response_angle_css":79,"response_angle_rdk":11,"angular_error_target":-69,"angular_error_distractor":179,"target_direction":80,"target_group":"black","reward_points":0},{"rt":null,"stimulus":"\n          <p style=\"color: #FF3333;\">Your reward: 0 points</p>\n        ","response":null,"trial_type":"html-keyboard-response","trial_index":78,"plugin_version":"2.1.0","time_elapsed":222357},{"rt":null,"stimulus":"<div class=\"fixation\" style=\"font-size: 60px;\">+</div>","response":null,"trial_type":"html-keyboard-response","trial_index":79,"plugin_version":"2.1.0","time_elapsed":223369},{"phase":"learning-awareness","target_group":"white","condition_label":"W_H_vs_B_L_rep23","target_direction":28,"distractor_direction":254,"session_rotation":344,"rt":-1,"response":"","correct":false,"choices":"ALL_KEYS","correct_choice":["a"],"trial_duration":2000,"flip_timestamps":[],"response_ends_trial":false,"number_of_apertures":200,"number_of_dots":[1,1,1,1,1,1,1,1,1,1,1,1,1,1,1,1,1,1,1,1,1,1,1,1,1,1,1,1,1,1,1,1,1,1,1,1,1,1,1,1,1,1,1,1,1,1,1,1,1,1,1,1,1,1,1,1,1,1,1,1,1,1,1,1,1,1,1,1,1,1,1,1,1,1,1,1,1,1,1,1,1,1,1,1,1,1,1,1,1,1,1,1,1,1,1,1,1,1,1,1,1,1,1,1,1,1,1,1,1,1,1,1,1,1,1,1,1,1,1,1,1,1,1,1,1,1,1,1,1,1,1,1,1,1,1,1,1,1,1,1,1,1,1,1,1,1,1,1,1,1,1,1,1,1,1,1,1,1,1,1,1,1,1,1,1,1,1,1,1,1,1,1,1,1,1,1,1,1,1,1,1,1,1,1,1,1,1,1,1,1,1,1,1,1,1,1,1,1,1,1],"number_of_sets":1,"coherent_direction":[254,254,28,28,254,28,28,254,254,28,28,28,28,28,254,254,28,254,28,254,254,28,28,28,28,254,28,254,28,28,254,28,254,254,28,28,254,254,254,28,28,254,254,254,254,254,254,28,28,28,254,254,254,254,254,254,28,254,28,28,28,28,254,254,28,28,28,254,28,28,28,28,254,254,254,254,254,28,254,28,28,28,28,254,28,254,254,254,254,28,28,254,254,28,28,254,28,254,254,28,28,28,254,254,254,28,28,28,28,254,28,254,28,28,254,254,28,254,28,254,28,254,254,254,28,28,28,254,254,28,254,254,28,28,28,254,28,28,28,28,28,254,254,254,254,28,254,254,254,28,254,254,254,254,254,28,28,254,28,254,254,28,28,254,28,254,28,254,254,254,28,28,28,254,254,28,28,254,254,254,28,28,254,28,28,28,254,254,254,28,28,28,254,254,254,254,28,28,28,28],"coherence":1,"opposite_coherence":0,"dot_radius":2,"dot_side_length":1,"dot_life":-1,"move_distance":1,"aperture_width":300,"aperture_height":300,"dot_color":["black","black","white","white","black","white","white","black","black","white","white","white","white","white","black","black","white","black","white","black","black","white","white","white","white","black","white","black","white","white","black","white","black","black","white","white","black","black","black","white","white","black","black","black","black","black","black","white","white","white","black","black","black","black","black","black","white","black","white","white","white","white","black","black","white","white","white","black","white","white","white","white","black","black","black","black","black","white","black","white","white","white","white","black","white","black","black","black","black","white","white","black","black","white","white","black","white","black","black","white","white","white","black","black","black","white","white","white","white","black","white","black","white","white","black","black","white","black","white","black","white","black","black","black","white","white","white","black","black","white","black","black","white","white","white","black","white","white","white","white","white","black","black","black","black","white","black","black","black","white","black","black","black","black","black","white","white","black","white","black","black","white","white","black","white","black","white","black","black","black","white","white","white","black","black","white","white","black","black","black","white","white","black","white","white","white","black","black","black","white","white","white","black","black","black","black","white","white","white","white"],"dot_shape":"circle","background_color":"#AAA","RDK_type":3,"aperture_type":2,"reinsert_type":2,"frame_rate":16.475409836065573,"frame_rate_array":[2,9,16,17,18,15,18,15,16,18,16,17,17,16,17,17,16,17,16,17,17,17,18,15,16,16,18,16,18,15,17,17,17,16,17,16,17,17,17,17,16,17,16,17,16,17,17,17,16,17,17,17,16,16,17,17,17,16,17,17,16,17,17,17,16,16,17,16,18,16,17,17,16,17,17,16,17,17,17,17,16,16,17,17,17,16,17,16,17,17,16,16,18,16,17,16,17,17,17,16,17,17,17,16,16,18,16,16,17,17,17,16,17,16,17,17,17,16,17,16,17,17],"number_of_frames":122,"aperture_center_x":640,"aperture_center_y":273.5,"fixation_cross":true,"fixation_cross_width":15,"fixation_cross_height":15,"fixation_cross_color":"#111","fixation_cross_thickness":1,"border":true,"border_thickness":2,"border_color":"transparent","canvas_width":1280,"canvas_height":547,"trial_type":"rdk","trial_index":80,"plugin_version":"2.0.0","time_elapsed":225385},{"rt":2966,"stimulus":"\n        <div class=\"response-container\">\n          <div class=\"response-instruction\">\n            <p>rotate the bar by using the left and right arrow keys.</p>\n            <p>when you are determined, press the Enter key.</p>\n          </div>\n          <div class=\"response-circle\">\n            <div class=\"response-fixation\"></div>\n            <div id=\"bar\" class=\"rotating-bar\"></div>\n          </div>\n        </div>\n      ","response":"Enter","trial_type":"html-keyboard-response","trial_index":81,"plugin_version":"2.1.0","time_elapsed":228351,"random_initial_angle":172,"response_angle_css":237,"response_angle_rdk":213,"angular_error_target":-175,"angular_error_distractor":-41,"target_direction":28,"target_group":"white","reward_points":0},{"rt":null,"stimulus":"\n          <p style=\"color: #FF3333;\">Your reward: 0 points</p>\n        ","response":null,"trial_type":"html-keyboard-response","trial_index":82,"plugin_version":"2.1.0","time_elapsed":230356},{"rt":null,"stimulus":"<div class=\"fixation\" style=\"font-size: 60px;\">+</div>","response":null,"trial_type":"html-keyboard-response","trial_index":83,"plugin_version":"2.1.0","time_elapsed":231369},{"phase":"learning-awareness","target_group":"white","condition_label":"W_H_vs_B_L_rep5","target_direction":21,"distractor_direction":277,"session_rotation":344,"rt":-1,"response":"","correct":false,"choices":"ALL_KEYS","correct_choice":["a"],"trial_duration":2000,"flip_timestamps":[],"response_ends_trial":false,"number_of_apertures":200,"number_of_dots":[1,1,1,1,1,1,1,1,1,1,1,1,1,1,1,1,1,1,1,1,1,1,1,1,1,1,1,1,1,1,1,1,1,1,1,1,1,1,1,1,1,1,1,1,1,1,1,1,1,1,1,1,1,1,1,1,1,1,1,1,1,1,1,1,1,1,1,1,1,1,1,1,1,1,1,1,1,1,1,1,1,1,1,1,1,1,1,1,1,1,1,1,1,1,1,1,1,1,1,1,1,1,1,1,1,1,1,1,1,1,1,1,1,1,1,1,1,1,1,1,1,1,1,1,1,1,1,1,1,1,1,1,1,1,1,1,1,1,1,1,1,1,1,1,1,1,1,1,1,1,1,1,1,1,1,1,1,1,1,1,1,1,1,1,1,1,1,1,1,1,1,1,1,1,1,1,1,1,1,1,1,1,1,1,1,1,1,1,1,1,1,1,1,1,1,1,1,1,1,1],"number_of_sets":1,"coherent_direction":[277,277,277,21,277,277,21,21,277,21,21,277,277,277,277,21,277,21,21,277,277,21,21,277,277,277,277,21,277,277,21,277,21,21,21,21,277,277,277,277,21,21,21,277,21,277,21,277,277,277,277,21,277,21,277,21,277,277,277,21,21,21,277,21,277,277,277,21,277,277,277,21,21,277,21,277,277,21,277,21,277,277,277,277,277,21,21,277,21,21,21,277,277,277,277,21,277,277,277,21,21,21,277,21,21,21,277,21,277,277,21,21,277,21,21,277,21,277,21,21,277,21,21,21,21,21,277,21,277,21,277,21,21,277,277,21,21,21,277,21,21,21,277,277,21,21,21,277,21,277,21,277,21,21,21,21,21,277,21,21,21,21,277,21,277,277,21,21,277,277,277,21,277,277,21,277,277,277,277,21,277,21,21,277,21,21,21,21,277,277,277,21,21,21,21,21,277,277,277,277],"coherence":1,"opposite_coherence":0,"dot_radius":2,"dot_side_length":1,"dot_life":-1,"move_distance":1,"aperture_width":300,"aperture_height":300,"dot_color":["black","black","black","white","black","black","white","white","black","white","white","black","black","black","black","white","black","white","white","black","black","white","white","black","black","black","black","white","black","black","white","black","white","white","white","white","black","black","black","black","white","white","white","black","white","black","white","black","black","black","black","white","black","white","black","white","black","black","black","white","white","white","black","white","black","black","black","white","black","black","black","white","white","black","white","black","black","white","black","white","black","black","black","black","black","white","white","black","white","white","white","black","black","black","black","white","black","black","black","white","white","white","black","white","white","white","black","white","black","black","white","white","black","white","white","black","white","black","white","white","black","white","white","white","white","white","black","white","black","white","black","white","white","black","black","white","white","white","black","white","white","white","black","black","white","white","white","black","white","black","white","black","white","white","white","white","white","black","white","white","white","white","black","white","black","black","white","white","black","black","black","white","black","black","white","black","black","black","black","white","black","white","white","black","white","white","white","white","black","black","black","white","white","white","white","white","black","black","black","black"],"dot_shape":"circle","background_color":"#AAA","RDK_type":3,"aperture_type":2,"reinsert_type":2,"frame_rate":16.491803278688526,"frame_rate_array":[2,10,17,17,16,17,17,16,15,18,17,17,15,17,17,17,16,17,17,17,16,16,17,17,17,17,17,15,18,16,17,15,19,16,16,17,17,17,16,17,17,16,16,17,17,17,16,17,17,16,17,17,17,16,17,16,18,15,17,18,16,16,18,15,17,17,17,16,17,17,17,16,17,16,17,17,16,17,17,16,18,16,16,17,17,17,15,18,16,18,16,16,17,17,16,18,16,16,17,17,16,18,15,18,16,16,17,18,16,17,16,17,17,16,17,18,16,16,16,17,17,17],"number_of_frames":122,"aperture_center_x":640,"aperture_center_y":273.5,"fixation_cross":true,"fixation_cross_width":15,"fixation_cross_height":15,"fixation_cross_color":"#111","fixation_cross_thickness":1,"border":true,"border_thickness":2,"border_color":"transparent","canvas_width":1280,"canvas_height":547,"trial_type":"rdk","trial_index":84,"plugin_version":"2.0.0","time_elapsed":233394},{"rt":2162,"stimulus":"\n        <div class=\"response-container\">\n          <div class=\"response-instruction\">\n            <p>rotate the bar by using the left and right arrow keys.</p>\n            <p>when you are determined, press the Enter key.</p>\n          </div>\n          <div class=\"response-circle\">\n            <div class=\"response-fixation\"></div>\n            <div id=\"bar\" class=\"rotating-bar\"></div>\n          </div>\n        </div>\n      ","response":"Enter","trial_type":"html-keyboard-response","trial_index":85,"plugin_version":"2.1.0","time_elapsed":235556,"random_initial_angle":111,"response_angle_css":54,"response_angle_rdk":36,"angular_error_target":15,"angular_error_distractor":119,"target_direction":21,"target_group":"white","reward_points":7},{"rt":null,"stimulus":"\n          <p style=\"color: #00FF00;\">Your reward: 7 points</p>\n        ","response":null,"trial_type":"html-keyboard-response","trial_index":86,"plugin_version":"2.1.0","time_elapsed":237735},{"rt":null,"stimulus":"<div class=\"fixation\" style=\"font-size: 60px;\">+</div>","response":null,"trial_type":"html-keyboard-response","trial_index":87,"plugin_version":"2.1.0","time_elapsed":238736},{"phase":"learning-awareness","target_group":"black","condition_label":"B_H_vs_W_L_rep16","target_direction":114,"distractor_direction":207,"session_rotation":344,"rt":-1,"response":"","correct":false,"choices":"ALL_KEYS","correct_choice":["a"],"trial_duration":2000,"flip_timestamps":[],"response_ends_trial":false,"number_of_apertures":200,"number_of_dots":[1,1,1,1,1,1,1,1,1,1,1,1,1,1,1,1,1,1,1,1,1,1,1,1,1,1,1,1,1,1,1,1,1,1,1,1,1,1,1,1,1,1,1,1,1,1,1,1,1,1,1,1,1,1,1,1,1,1,1,1,1,1,1,1,1,1,1,1,1,1,1,1,1,1,1,1,1,1,1,1,1,1,1,1,1,1,1,1,1,1,1,1,1,1,1,1,1,1,1,1,1,1,1,1,1,1,1,1,1,1,1,1,1,1,1,1,1,1,1,1,1,1,1,1,1,1,1,1,1,1,1,1,1,1,1,1,1,1,1,1,1,1,1,1,1,1,1,1,1,1,1,1,1,1,1,1,1,1,1,1,1,1,1,1,1,1,1,1,1,1,1,1,1,1,1,1,1,1,1,1,1,1,1,1,1,1,1,1,1,1,1,1,1,1,1,1,1,1,1,1],"number_of_sets":1,"coherent_direction":[207,114,207,114,114,114,114,207,114,114,114,207,207,207,114,207,207,207,114,114,207,207,207,114,207,207,207,207,114,114,207,114,207,114,207,114,207,114,207,207,207,207,114,114,114,207,114,207,207,114,114,207,207,114,207,207,114,114,114,114,114,207,114,114,207,207,114,114,114,207,207,207,114,207,114,114,207,114,207,114,114,207,114,207,114,207,207,114,207,114,207,114,207,114,207,207,114,114,207,207,114,207,114,207,114,114,207,114,114,114,207,207,207,207,114,114,114,207,114,114,207,207,207,114,207,207,207,114,207,114,207,114,207,207,114,114,207,114,114,114,207,207,207,114,114,207,114,114,114,207,207,207,114,114,114,114,207,114,207,114,114,207,207,114,207,207,207,207,207,114,114,207,114,207,114,207,114,114,114,207,114,114,114,114,114,207,207,207,114,114,114,207,207,207,207,207,114,207,207,114],"coherence":1,"opposite_coherence":0,"dot_radius":2,"dot_side_length":1,"dot_life":-1,"move_distance":1,"aperture_width":300,"aperture_height":300,"dot_color":["white","black","white","black","black","black","black","white","black","black","black","white","white","white","black","white","white","white","black","black","white","white","white","black","white","white","white","white","black","black","white","black","white","black","white","black","white","black","white","white","white","white","black","black","black","white","black","white","white","black","black","white","white","black","white","white","black","black","black","black","black","white","black","black","white","white","black","black","black","white","white","white","black","white","black","black","white","black","white","black","black","white","black","white","black","white","white","black","white","black","white","black","white","black","white","white","black","black","white","white","black","white","black","white","black","black","white","black","black","black","white","white","white","white","black","black","black","white","black","black","white","white","white","black","white","white","white","black","white","black","white","black","white","white","black","black","white","black","black","black","white","white","white","black","black","white","black","black","black","white","white","white","black","black","black","black","white","black","white","black","black","white","white","black","white","white","white","white","white","black","black","white","black","white","black","white","black","black","black","white","black","black","black","black","black","white","white","white","black","black","black","white","white","white","white","white","black","white","white","black"],"dot_shape":"circle","background_color":"#AAA","RDK_type":3,"aperture_type":2,"reinsert_type":2,"frame_rate":16.475409836065573,"frame_rate_array":[2,10,15,18,17,16,17,16,16,17,16,17,16,18,16,17,17,16,17,16,17,17,16,17,17,17,17,17,15,16,17,17,17,17,16,17,17,17,16,17,16,17,17,17,16,17,16,17,17,16,16,18,17,16,17,17,17,16,16,17,17,17,16,17,16,18,16,17,16,16,19,15,17,17,16,17,17,16,18,15,17,17,16,18,16,17,16,16,17,17,17,17,16,17,16,17,18,16,17,16,16,18,16,16,17,17,17,16,17,17,16,17,16,18,16,17,16,17,16,17,16,17],"number_of_frames":122,"aperture_center_x":640,"aperture_center_y":273.5,"fixation_cross":true,"fixation_cross_width":15,"fixation_cross_height":15,"fixation_cross_color":"#111","fixation_cross_thickness":1,"border":true,"border_thickness":2,"border_color":"transparent","canvas_width":1280,"canvas_height":547,"trial_type":"rdk","trial_index":88,"plugin_version":"2.0.0","time_elapsed":240754},{"rt":696,"stimulus":"\n        <div class=\"response-container\">\n          <div class=\"response-instruction\">\n            <p>rotate the bar by using the left and right arrow keys.</p>\n            <p>when you are determined, press the Enter key.</p>\n          </div>\n          <div class=\"response-circle\">\n            <div class=\"response-fixation\"></div>\n            <div id=\"bar\" class=\"rotating-bar\"></div>\n          </div>\n        </div>\n      ","response":"Enter","trial_type":"html-keyboard-response","trial_index":89,"plugin_version":"2.1.0","time_elapsed":241450,"random_initial_angle":356,"response_angle_css":356,"response_angle_rdk":94,"angular_error_target":-20,"angular_error_distractor":-113,"target_direction":114,"target_group":"black","reward_points":6},{"rt":null,"stimulus":"\n          <p style=\"color: #00FF00;\">Your reward: 6 points</p>\n        ","response":null,"trial_type":"html-keyboard-response","trial_index":90,"plugin_version":"2.1.0","time_elapsed":243460},{"rt":null,"stimulus":"<div class=\"fixation\" style=\"font-size: 60px;\">+</div>","response":null,"trial_type":"html-keyboard-response","trial_index":91,"plugin_version":"2.1.0","time_elapsed":244461},{"phase":"learning-awareness","target_group":"white","condition_label":"W_H_vs_B_L_rep18","target_direction":11,"distractor_direction":280,"session_rotation":344,"rt":-1,"response":"","correct":false,"choices":"ALL_KEYS","correct_choice":["a"],"trial_duration":2000,"flip_timestamps":[],"response_ends_trial":false,"number_of_apertures":200,"number_of_dots":[1,1,1,1,1,1,1,1,1,1,1,1,1,1,1,1,1,1,1,1,1,1,1,1,1,1,1,1,1,1,1,1,1,1,1,1,1,1,1,1,1,1,1,1,1,1,1,1,1,1,1,1,1,1,1,1,1,1,1,1,1,1,1,1,1,1,1,1,1,1,1,1,1,1,1,1,1,1,1,1,1,1,1,1,1,1,1,1,1,1,1,1,1,1,1,1,1,1,1,1,1,1,1,1,1,1,1,1,1,1,1,1,1,1,1,1,1,1,1,1,1,1,1,1,1,1,1,1,1,1,1,1,1,1,1,1,1,1,1,1,1,1,1,1,1,1,1,1,1,1,1,1,1,1,1,1,1,1,1,1,1,1,1,1,1,1,1,1,1,1,1,1,1,1,1,1,1,1,1,1,1,1,1,1,1,1,1,1,1,1,1,1,1,1,1,1,1,1,1,1],"number_of_sets":1,"coherent_direction":[11,11,280,280,280,11,280,11,280,280,11,11,11,280,280,280,280,11,280,280,11,11,11,280,11,11,11,11,280,11,280,280,280,11,11,11,11,11,280,280,280,280,280,11,280,11,280,11,280,11,280,280,280,280,280,280,280,11,11,280,280,280,280,280,11,280,11,280,280,11,280,280,11,280,280,11,11,280,280,280,280,280,11,280,11,11,280,280,280,280,11,280,11,11,11,280,280,11,11,280,11,11,280,280,11,11,280,11,11,280,11,280,280,280,280,11,11,280,280,280,280,11,11,11,11,11,280,11,11,280,11,11,280,11,11,11,11,280,11,11,11,280,280,280,11,11,11,280,11,11,11,11,280,11,280,280,11,280,280,280,11,11,280,280,11,280,11,280,11,11,11,280,11,280,280,11,11,280,11,11,280,11,11,11,280,11,11,280,11,11,280,280,11,11,11,280,280,280,11,11],"coherence":1,"opposite_coherence":0,"dot_radius":2,"dot_side_length":1,"dot_life":-1,"move_distance":1,"aperture_width":300,"aperture_height":300,"dot_color":["white","white","black","black","black","white","black","white","black","black","white","white","white","black","black","black","black","white","black","black","white","white","white","black","white","white","white","white","black","white","black","black","black","white","white","white","white","white","black","black","black","black","black","white","black","white","black","white","black","white","black","black","black","black","black","black","black","white","white","black","black","black","black","black","white","black","white","black","black","white","black","black","white","black","black","white","white","black","black","black","black","black","white","black","white","white","black","black","black","black","white","black","white","white","white","black","black","white","white","black","white","white","black","black","white","white","black","white","white","black","white","black","black","black","black","white","white","black","black","black","black","white","white","white","white","white","black","white","white","black","white","white","black","white","white","white","white","black","white","white","white","black","black","black","white","white","white","black","white","white","white","white","black","white","black","black","white","black","black","black","white","white","black","black","white","black","white","black","white","white","white","black","white","black","black","white","white","black","white","white","black","white","white","white","black","white","white","black","white","white","black","black","white","white","white","black","black","black","white","white"],"dot_shape":"circle","background_color":"#AAA","RDK_type":3,"aperture_type":2,"reinsert_type":2,"frame_rate":16.421487603305785,"frame_rate_array":[2,11,16,9,16,18,16,17,15,17,17,16,17,17,16,16,17,18,16,16,18,16,16,18,16,17,16,16,17,17,17,16,17,17,16,16,18,16,17,17,16,17,17,16,17,17,17,15,18,16,18,16,16,18,16,16,17,17,16,17,17,16,16,18,16,17,17,17,17,16,16,17,17,17,16,17,16,17,16,18,17,16,16,17,17,16,16,17,18,17,15,17,17,17,16,17,18,16,16,17,17,16,17,16,17,17,17,16,16,17,17,17,17,17,16,17,16,17,17,16,17],"number_of_frames":121,"aperture_center_x":640,"aperture_center_y":273.5,"fixation_cross":true,"fixation_cross_width":15,"fixation_cross_height":15,"fixation_cross_color":"#111","fixation_cross_thickness":1,"border":true,"border_thickness":2,"border_color":"transparent","canvas_width":1280,"canvas_height":547,"trial_type":"rdk","trial_index":92,"plugin_version":"2.0.0","time_elapsed":246464},{"rt":4613,"stimulus":"\n        <div class=\"response-container\">\n          <div class=\"response-instruction\">\n            <p>rotate the bar by using the left and right arrow keys.</p>\n            <p>when you are determined, press the Enter key.</p>\n          </div>\n          <div class=\"response-circle\">\n            <div class=\"response-fixation\"></div>\n            <div id=\"bar\" class=\"rotating-bar\"></div>\n          </div>\n        </div>\n      ","response":"Enter","trial_type":"html-keyboard-response","trial_index":93,"plugin_version":"2.1.0","time_elapsed":251081,"random_initial_angle":67,"response_angle_css":236,"response_angle_rdk":214,"angular_error_target":-157,"angular_error_distractor":-66,"target_direction":11,"target_group":"white","reward_points":0},{"rt":null,"stimulus":"\n          <p style=\"color: #FF3333;\">Your reward: 0 points</p>\n        ","response":null,"trial_type":"html-keyboard-response","trial_index":94,"plugin_version":"2.1.0","time_elapsed":253090},{"rt":null,"stimulus":"<div class=\"fixation\" style=\"font-size: 60px;\">+</div>","response":null,"trial_type":"html-keyboard-response","trial_index":95,"plugin_version":"2.1.0","time_elapsed":254093},{"phase":"learning-awareness","target_group":"black","condition_label":"B_H_vs_W_L_rep15","target_direction":79,"distractor_direction":205,"session_rotation":344,"rt":-1,"response":"","correct":false,"choices":"ALL_KEYS","correct_choice":["a"],"trial_duration":2000,"flip_timestamps":[],"response_ends_trial":false,"number_of_apertures":200,"number_of_dots":[1,1,1,1,1,1,1,1,1,1,1,1,1,1,1,1,1,1,1,1,1,1,1,1,1,1,1,1,1,1,1,1,1,1,1,1,1,1,1,1,1,1,1,1,1,1,1,1,1,1,1,1,1,1,1,1,1,1,1,1,1,1,1,1,1,1,1,1,1,1,1,1,1,1,1,1,1,1,1,1,1,1,1,1,1,1,1,1,1,1,1,1,1,1,1,1,1,1,1,1,1,1,1,1,1,1,1,1,1,1,1,1,1,1,1,1,1,1,1,1,1,1,1,1,1,1,1,1,1,1,1,1,1,1,1,1,1,1,1,1,1,1,1,1,1,1,1,1,1,1,1,1,1,1,1,1,1,1,1,1,1,1,1,1,1,1,1,1,1,1,1,1,1,1,1,1,1,1,1,1,1,1,1,1,1,1,1,1,1,1,1,1,1,1,1,1,1,1,1,1],"number_of_sets":1,"coherent_direction":[79,205,205,79,79,79,79,205,79,205,205,205,79,205,205,79,205,79,205,79,205,205,205,79,205,205,205,205,79,79,79,205,79,205,205,205,79,79,79,79,79,79,205,205,79,79,205,79,79,79,79,205,205,205,79,79,79,205,205,79,79,79,79,205,79,79,79,79,205,79,205,79,79,79,79,205,205,205,79,205,79,205,205,205,205,205,79,79,79,205,79,205,79,79,79,205,205,205,79,79,205,79,205,79,205,79,205,79,205,205,79,79,205,205,79,205,205,205,79,205,205,79,205,79,205,79,205,205,205,79,205,79,205,79,79,205,205,79,205,205,205,79,205,205,205,79,79,79,79,205,79,205,205,79,79,205,79,79,79,79,205,79,79,79,79,79,205,79,79,205,205,79,205,205,205,205,205,205,79,79,79,205,205,205,79,79,205,205,79,205,205,205,205,205,79,79,79,205,79,205],"coherence":1,"opposite_coherence":0,"dot_radius":2,"dot_side_length":1,"dot_life":-1,"move_distance":1,"aperture_width":300,"aperture_height":300,"dot_color":["black","white","white","black","black","black","black","white","black","white","white","white","black","white","white","black","white","black","white","black","white","white","white","black","white","white","white","white","black","black","black","white","black","white","white","white","black","black","black","black","black","black","white","white","black","black","white","black","black","black","black","white","white","white","black","black","black","white","white","black","black","black","black","white","black","black","black","black","white","black","white","black","black","black","black","white","white","white","black","white","black","white","white","white","white","white","black","black","black","white","black","white","black","black","black","white","white","white","black","black","white","black","white","black","white","black","white","black","white","white","black","black","white","white","black","white","white","white","black","white","white","black","white","black","white","black","white","white","white","black","white","black","white","black","black","white","white","black","white","white","white","black","white","white","white","black","black","black","black","white","black","white","white","black","black","white","black","black","black","black","white","black","black","black","black","black","white","black","black","white","white","black","white","white","white","white","white","white","black","black","black","white","white","white","black","black","white","white","black","white","white","white","white","white","black","black","black","white","black","white"],"dot_shape":"circle","background_color":"#AAA","RDK_type":3,"aperture_type":2,"reinsert_type":2,"frame_rate":16.42622950819672,"frame_rate_array":[2,8,19,8,17,18,16,17,15,18,15,17,18,16,16,17,16,17,17,17,16,17,17,16,16,18,16,17,16,17,17,17,16,18,15,17,17,17,17,16,17,16,17,17,16,17,16,18,16,16,17,16,18,16,17,16,17,16,17,18,16,17,16,16,18,16,17,17,17,16,16,18,15,17,18,15,18,17,16,16,18,16,17,16,17,17,16,16,18,16,17,17,16,16,18,17,16,16,18,16,16,18,16,16,18,16,17,17,15,17,18,16,16,17,18,16,16,16,18,17,16,17],"number_of_frames":122,"aperture_center_x":640,"aperture_center_y":273.5,"fixation_cross":true,"fixation_cross_width":15,"fixation_cross_height":15,"fixation_cross_color":"#111","fixation_cross_thickness":1,"border":true,"border_thickness":2,"border_color":"transparent","canvas_width":1280,"canvas_height":547,"trial_type":"rdk","trial_index":96,"plugin_version":"2.0.0","time_elapsed":256106},{"rt":2393,"stimulus":"\n        <div class=\"response-container\">\n          <div class=\"response-instruction\">\n            <p>rotate the bar by using the left and right arrow keys.</p>\n            <p>when you are determined, press the Enter key.</p>\n          </div>\n          <div class=\"response-circle\">\n            <div class=\"response-fixation\"></div>\n            <div id=\"bar\" class=\"rotating-bar\"></div>\n          </div>\n        </div>\n      ","response":"Enter","trial_type":"html-keyboard-response","trial_index":97,"plugin_version":"2.1.0","time_elapsed":258501,"random_initial_angle":9,"response_angle_css":42,"response_angle_rdk":48,"angular_error_target":-31,"angular_error_distractor":-157,"target_direction":79,"target_group":"black","reward_points":3},{"rt":null,"stimulus":"\n          <p style=\"color: #00FF00;\">Your reward: 3 points</p>\n        ","response":null,"trial_type":"html-keyboard-response","trial_index":98,"plugin_version":"2.1.0","time_elapsed":260501},{"rt":null,"stimulus":"<div class=\"fixation\" style=\"font-size: 60px;\">+</div>","response":null,"trial_type":"html-keyboard-response","trial_index":99,"plugin_version":"2.1.0","time_elapsed":261512},{"phase":"learning-awareness","target_group":"black","condition_label":"B_H_vs_W_L_rep21","target_direction":100,"distractor_direction":207,"session_rotation":344,"rt":-1,"response":"","correct":false,"choices":"ALL_KEYS","correct_choice":["a"],"trial_duration":2000,"flip_timestamps":[],"response_ends_trial":false,"number_of_apertures":200,"number_of_dots":[1,1,1,1,1,1,1,1,1,1,1,1,1,1,1,1,1,1,1,1,1,1,1,1,1,1,1,1,1,1,1,1,1,1,1,1,1,1,1,1,1,1,1,1,1,1,1,1,1,1,1,1,1,1,1,1,1,1,1,1,1,1,1,1,1,1,1,1,1,1,1,1,1,1,1,1,1,1,1,1,1,1,1,1,1,1,1,1,1,1,1,1,1,1,1,1,1,1,1,1,1,1,1,1,1,1,1,1,1,1,1,1,1,1,1,1,1,1,1,1,1,1,1,1,1,1,1,1,1,1,1,1,1,1,1,1,1,1,1,1,1,1,1,1,1,1,1,1,1,1,1,1,1,1,1,1,1,1,1,1,1,1,1,1,1,1,1,1,1,1,1,1,1,1,1,1,1,1,1,1,1,1,1,1,1,1,1,1,1,1,1,1,1,1,1,1,1,1,1,1],"number_of_sets":1,"coherent_direction":[100,100,207,207,207,100,207,207,100,100,100,207,207,100,100,100,100,207,100,100,207,207,207,100,100,207,100,207,207,100,100,207,100,100,100,100,100,100,207,100,100,207,207,100,207,207,207,100,100,100,207,207,207,207,207,207,100,100,207,100,207,100,207,100,100,100,207,207,207,207,100,100,207,207,100,207,207,100,207,207,207,100,207,100,207,100,207,207,100,100,100,100,100,100,207,100,207,207,100,100,207,207,207,100,207,100,100,207,100,100,207,100,207,207,207,100,207,100,207,207,207,207,100,207,100,100,207,207,100,100,207,100,207,100,100,207,207,100,100,100,207,100,207,207,207,207,100,207,207,207,100,100,100,207,100,100,207,100,100,100,100,100,100,100,207,100,207,100,100,100,207,100,207,207,207,100,207,207,207,207,100,207,100,207,100,100,207,207,207,207,100,207,100,100,207,207,207,100,100,207],"coherence":1,"opposite_coherence":0,"dot_radius":2,"dot_side_length":1,"dot_life":-1,"move_distance":1,"aperture_width":300,"aperture_height":300,"dot_color":["black","black","white","white","white","black","white","white","black","black","black","white","white","black","black","black","black","white","black","black","white","white","white","black","black","white","black","white","white","black","black","white","black","black","black","black","black","black","white","black","black","white","white","black","white","white","white","black","black","black","white","white","white","white","white","white","black","black","white","black","white","black","white","black","black","black","white","white","white","white","black","black","white","white","black","white","white","black","white","white","white","black","white","black","white","black","white","white","black","black","black","black","black","black","white","black","white","white","black","black","white","white","white","black","white","black","black","white","black","black","white","black","white","white","white","black","white","black","white","white","white","white","black","white","black","black","white","white","black","black","white","black","white","black","black","white","white","black","black","black","white","black","white","white","white","white","black","white","white","white","black","black","black","white","black","black","white","black","black","black","black","black","black","black","white","black","white","black","black","black","white","black","white","white","white","black","white","white","white","white","black","white","black","white","black","black","white","white","white","white","black","white","black","black","white","white","white","black","black","white"],"dot_shape":"circle","background_color":"#AAA","RDK_type":3,"aperture_type":2,"reinsert_type":2,"frame_rate":16.40983606557377,"frame_rate_array":[2,9,16,10,17,17,16,17,15,17,16,17,17,16,17,17,16,16,17,18,16,17,16,17,17,17,16,16,17,17,17,17,15,18,17,15,19,16,16,17,16,17,17,16,17,17,17,16,17,17,17,16,16,17,17,17,16,17,16,17,19,14,17,17,16,16,18,17,15,17,17,17,17,17,17,15,18,16,16,17,17,17,16,18,16,17,17,16,17,17,16,16,18,16,17,16,17,16,17,16,18,16,17,17,16,17,17,16,16,18,17,16,16,17,18,16,16,17,17,16,17,16],"number_of_frames":122,"aperture_center_x":640,"aperture_center_y":273.5,"fixation_cross":true,"fixation_cross_width":15,"fixation_cross_height":15,"fixation_cross_color":"#111","fixation_cross_thickness":1,"border":true,"border_thickness":2,"border_color":"transparent","canvas_width":1280,"canvas_height":547,"trial_type":"rdk","trial_index":100,"plugin_version":"2.0.0","time_elapsed":263522},{"rt":962,"stimulus":"\n        <div class=\"response-container\">\n          <div class=\"response-instruction\">\n            <p>rotate the bar by using the left and right arrow keys.</p>\n            <p>when you are determined, press the Enter key.</p>\n          </div>\n          <div class=\"response-circle\">\n            <div class=\"response-fixation\"></div>\n            <div id=\"bar\" class=\"rotating-bar\"></div>\n          </div>\n        </div>\n      ","response":"Enter","trial_type":"html-keyboard-response","trial_index":101,"plugin_version":"2.1.0","time_elapsed":264487,"random_initial_angle":31,"response_angle_css":31,"response_angle_rdk":59,"angular_error_target":-41,"angular_error_distractor":-148,"target_direction":100,"target_group":"black","reward_points":1},{"rt":null,"stimulus":"\n          <p style=\"color: #FF3333;\">Your reward: 1 points</p>\n        ","response":null,"trial_type":"html-keyboard-response","trial_index":102,"plugin_version":"2.1.0","time_elapsed":266543},{"rt":null,"stimulus":"<div class=\"fixation\" style=\"font-size: 60px;\">+</div>","response":null,"trial_type":"html-keyboard-response","trial_index":103,"plugin_version":"2.1.0","time_elapsed":267554},{"phase":"learning-awareness","target_group":"white","condition_label":"W_H_vs_B_L_rep16","target_direction":19,"distractor_direction":255,"session_rotation":344,"rt":-1,"response":"","correct":false,"choices":"ALL_KEYS","correct_choice":["a"],"trial_duration":2000,"flip_timestamps":[],"response_ends_trial":false,"number_of_apertures":200,"number_of_dots":[1,1,1,1,1,1,1,1,1,1,1,1,1,1,1,1,1,1,1,1,1,1,1,1,1,1,1,1,1,1,1,1,1,1,1,1,1,1,1,1,1,1,1,1,1,1,1,1,1,1,1,1,1,1,1,1,1,1,1,1,1,1,1,1,1,1,1,1,1,1,1,1,1,1,1,1,1,1,1,1,1,1,1,1,1,1,1,1,1,1,1,1,1,1,1,1,1,1,1,1,1,1,1,1,1,1,1,1,1,1,1,1,1,1,1,1,1,1,1,1,1,1,1,1,1,1,1,1,1,1,1,1,1,1,1,1,1,1,1,1,1,1,1,1,1,1,1,1,1,1,1,1,1,1,1,1,1,1,1,1,1,1,1,1,1,1,1,1,1,1,1,1,1,1,1,1,1,1,1,1,1,1,1,1,1,1,1,1,1,1,1,1,1,1,1,1,1,1,1,1],"number_of_sets":1,"coherent_direction":[255,255,19,19,19,255,255,19,19,255,255,255,255,19,19,19,19,19,255,19,255,255,19,19,255,19,255,255,19,255,255,19,255,19,255,19,19,255,19,19,19,19,19,19,255,19,19,255,255,19,255,19,255,19,19,19,19,255,255,19,19,19,255,255,255,255,19,255,19,19,19,19,19,255,19,19,255,19,19,255,255,19,255,255,255,255,255,19,255,255,19,255,19,19,255,19,19,255,255,19,255,255,255,19,19,19,19,19,255,19,255,19,255,255,255,19,19,19,19,255,255,19,19,255,255,255,255,255,255,19,19,255,255,19,19,255,255,255,19,19,255,19,255,19,19,19,255,19,255,255,255,19,255,255,19,255,255,255,255,255,255,255,255,19,255,255,255,19,19,255,255,255,19,19,19,19,255,19,19,255,19,255,19,19,255,19,255,255,19,255,255,19,255,255,19,19,255,19,19,19],"coherence":1,"opposite_coherence":0,"dot_radius":2,"dot_side_length":1,"dot_life":-1,"move_distance":1,"aperture_width":300,"aperture_height":300,"dot_color":["black","black","white","white","white","black","black","white","white","black","black","black","black","white","white","white","white","white","black","white","black","black","white","white","black","white","black","black","white","black","black","white","black","white","black","white","white","black","white","white","white","white","white","white","black","white","white","black","black","white","black","white","black","white","white","white","white","black","black","white","white","white","black","black","black","black","white","black","white","white","white","white","white","black","white","white","black","white","white","black","black","white","black","black","black","black","black","white","black","black","white","black","white","white","black","white","white","black","black","white","black","black","black","white","white","white","white","white","black","white","black","white","black","black","black","white","white","white","white","black","black","white","white","black","black","black","black","black","black","white","white","black","black","white","white","black","black","black","white","white","black","white","black","white","white","white","black","white","black","black","black","white","black","black","white","black","black","black","black","black","black","black","black","white","black","black","black","white","white","black","black","black","white","white","white","white","black","white","white","black","white","black","white","white","black","white","black","black","white","black","black","white","black","black","white","white","black","white","white","white"],"dot_shape":"circle","background_color":"#AAA","RDK_type":3,"aperture_type":2,"reinsert_type":2,"frame_rate":16.479338842975206,"frame_rate_array":[2,10,16,18,16,17,16,16,17,16,17,17,16,17,16,18,16,16,18,15,17,17,17,16,17,17,16,18,16,16,17,18,16,15,18,17,16,17,16,17,17,17,16,17,16,18,16,17,17,16,17,16,17,17,16,17,16,18,16,16,18,16,17,17,16,17,16,17,16,18,16,16,17,18,15,17,17,17,16,16,18,17,17,15,17,16,18,17,16,17,16,17,16,18,16,17,16,17,17,17,16,17,17,16,17,16,17,16,18,16,16,18,16,17,16,17,17,17,16,17,16],"number_of_frames":121,"aperture_center_x":640,"aperture_center_y":273.5,"fixation_cross":true,"fixation_cross_width":15,"fixation_cross_height":15,"fixation_cross_color":"#111","fixation_cross_thickness":1,"border":true,"border_thickness":2,"border_color":"transparent","canvas_width":1280,"canvas_height":547,"trial_type":"rdk","trial_index":104,"plugin_version":"2.0.0","time_elapsed":269567},{"rt":3249,"stimulus":"\n        <div class=\"response-container\">\n          <div class=\"response-instruction\">\n            <p>rotate the bar by using the left and right arrow keys.</p>\n            <p>when you are determined, press the Enter key.</p>\n          </div>\n          <div class=\"response-circle\">\n            <div class=\"response-fixation\"></div>\n            <div id=\"bar\" class=\"rotating-bar\"></div>\n          </div>\n        </div>\n      ","response":"Enter","trial_type":"html-keyboard-response","trial_index":105,"plugin_version":"2.1.0","time_elapsed":272818,"random_initial_angle":227,"response_angle_css":221,"response_angle_rdk":229,"angular_error_target":-150,"angular_error_distractor":-26,"target_direction":19,"target_group":"white","reward_points":0},{"rt":null,"stimulus":"\n          <p style=\"color: #FF3333;\">Your reward: 0 points</p>\n        ","response":null,"trial_type":"html-keyboard-response","trial_index":106,"plugin_version":"2.1.0","time_elapsed":274824},{"rt":null,"stimulus":"<div class=\"fixation\" style=\"font-size: 60px;\">+</div>","response":null,"trial_type":"html-keyboard-response","trial_index":107,"plugin_version":"2.1.0","time_elapsed":275826},{"phase":"learning-awareness","tar