[{"rt":410307,"stimulus":"Welcome to the experiment. Press any key to begin.","response":" ","trial_type":"html-keyboard-response","trial_index":0,"plugin_version":"2.1.0","time_elapsed":410317},{"rt":14066,"stimulus":"\n        <div class=\"instructions-container\">\n          <h2>Instructions</h2>\n\n          <p>\n          In this experiment, you will see <strong>two Random Dot Kinematograms (RDKs)</strong> displayed simultaneously.\n          </p>\n\n          <p>\n          An RDK is a visual stimulus consisting of many small dots that move coherently in a single direction. \n          In this experiment, the dots will be either <strong>white</strong> or <strong>black</strong> \n          (see the short demo below for an example of an RDK stimulus).\n          </p>\n\n          <p>\n          On each trial, the two RDKs will move in different directions. \n          Your task is to decide <strong>which RDK appears to contain more dots</strong>.\n          </p>\n\n          <p>\n          The RDK that you judge to have more dots is called the <strong>target RDK</strong>. \n          For example, if the white RDK appears to have more dots than the black RDK, \n          you should report the motion direction of the white RDK.\n          </p>\n\n          <p>\n          After viewing the RDKs, you will rotate a bar to indicate the perceived direction of the target RDK \n          using the <strong>left</strong> and <strong>right arrow keys</strong>. \n          Press <strong>Enter</strong> when you are satisfied with your response.\n          When the bar is held down, the rotation speed increases.\n          </p>\n\n          <p>\n          You will receive points based on the <strong>accuracy of your response</strong>, \n          and your final <strong>bonus reward</strong> may depend on your overall performance. \n          Please try to respond as accurately as possible.\n          </p>\n\n          <p>\n          You will first complete <strong>16 practice trials</strong>. \n          Press the <strong>Enter</strong> key to start the practice phase.\n          </p>\n\n          <canvas id=\"instruction-demo-rdk\" width=\"200\" height=\"200\"style=\"display:block;margin:12px auto; border-radius: 50%;\"></canvas>\n        </div>\n      ","response":"Enter","trial_type":"html-keyboard-response","trial_index":1,"plugin_version":"2.1.0","time_elapsed":424389},{"rt":null,"stimulus":"<div class=\"fixation\" style=\"font-size: 60px;\">+</div>","response":null,"trial_type":"html-keyboard-response","trial_index":2,"plugin_version":"2.1.0","time_elapsed":425399},{"target_group":"white","target_index":0,"condition_label":"practice","rt":-1,"response":"","correct":false,"choices":"ALL_KEYS","correct_choice":["a"],"trial_duration":2000,"flip_timestamps":[],"response_ends_trial":false,"number_of_apertures":2,"number_of_dots":[100,80],"number_of_sets":1,"coherent_direction":[176,54],"coherence":1,"opposite_coherence":0,"dot_radius":2,"dot_side_length":1,"dot_life":-1,"move_distance":1,"aperture_width":300,"aperture_height":300,"dot_color":["white","black"],"dot_shape":"circle","background_color":"#AAA","RDK_type":3,"aperture_type":2,"reinsert_type":2,"frame_rate":16.56198347107438,"frame_rate_array":[2,12,30,3,18,16,16,17,17,18,15,17,17,18,15,17,17,16,17,16,18,17,15,18,18,15,17,16,16,19,14,17,17,17,16,17,17,20,13,17,17,20,13,16,18,16,17,17,16,18,15,17,17,18,17,15,18,16,15,17,17,17,16,18,15,17,19,15,17,17,18,16,16,17,16,18,15,17,18,16,17,17,20,16,16,17,17,18,16,16,17,14,17,17,17,19,18,19,13,18,17,16,16,17,17,16,15,16,18,16,17,17,18,15,17,17,17,17,17,18,15],"number_of_frames":121,"aperture_center_x":676.5,"aperture_center_y":380.5,"fixation_cross":true,"fixation_cross_width":15,"fixation_cross_height":15,"fixation_cross_color":"#111","fixation_cross_thickness":1,"border":true,"border_thickness":2,"border_color":"transparent","canvas_width":1353,"canvas_height":761,"trial_type":"rdk","trial_index":3,"plugin_version":"2.0.0","time_elapsed":427406,"phase":"practice","target_direction":176,"distractor_direction":54},{"rt":15040,"stimulus":"\n        <div class=\"response-container\">\n          <div class=\"response-instruction\">\n            <p>rotate the bar by using the left and right arrow keys.</p>\n            <p>when you are determined, press the Enter key.</p>\n          </div>\n          <div class=\"response-circle\">\n            <div class=\"response-fixation\"></div>\n            <div id=\"bar\" class=\"rotating-bar\"></div>\n          </div>\n        </div>\n      ","response":"Enter","trial_type":"html-keyboard-response","trial_index":4,"plugin_version":"2.1.0","time_elapsed":442449,"random_initial_angle":250,"response_angle_css":250,"response_angle_rdk":200,"angular_error_target":24,"angular_error_distractor":146,"target_direction":176,"target_group":"white","reward_points":5},{"rt":null,"stimulus":"\n          <p style=\"color: #00FF00;\">Your reward: 5 points</p>\n        ","response":null,"trial_type":"html-keyboard-response","trial_index":5,"plugin_version":"2.1.0","time_elapsed":444454},{"rt":null,"stimulus":"<div class=\"fixation\" style=\"font-size: 60px;\">+</div>","response":null,"trial_type":"html-keyboard-response","trial_index":6,"plugin_version":"2.1.0","time_elapsed":445459},{"target_group":"black","target_index":1,"condition_label":"practice","rt":481,"response":"ArrowLeft","correct":false,"choices":"ALL_KEYS","correct_choice":["a"],"trial_duration":2000,"flip_timestamps":[],"response_ends_trial":false,"number_of_apertures":2,"number_of_dots":[91,100],"number_of_sets":1,"coherent_direction":[62,196],"coherence":1,"opposite_coherence":0,"dot_radius":2,"dot_side_length":1,"dot_life":-1,"move_distance":1,"aperture_width":300,"aperture_height":300,"dot_color":["white","black"],"dot_shape":"circle","background_color":"#AAA","RDK_type":3,"aperture_type":2,"reinsert_type":2,"frame_rate":16.702479338842974,"frame_rate_array":[7,13,17,17,16,17,17,17,18,16,17,17,16,17,17,17,17,17,17,17,17,17,17,17,17,17,17,17,17,18,16,17,17,17,17,16,17,17,17,16,17,16,17,17,17,17,17,17,17,17,16,19,15,17,17,17,17,17,17,17,16,17,16,18,15,16,17,17,17,18,16,16,17,17,17,16,17,19,15,16,17,16,17,16,17,17,17,16,17,17,16,17,16,18,15,17,17,16,17,17,17,17,17,17,17,16,16,17,17,17,17,17,17,17,16,17,17,17,17,17,18],"number_of_frames":121,"aperture_center_x":676.5,"aperture_center_y":380.5,"fixation_cross":true,"fixation_cross_width":15,"fixation_cross_height":15,"fixation_cross_color":"#111","fixation_cross_thickness":1,"border":true,"border_thickness":2,"border_color":"transparent","canvas_width":1353,"canvas_height":761,"trial_type":"rdk","trial_index":7,"plugin_version":"2.0.0","time_elapsed":447467,"phase":"practice","target_direction":196,"distractor_direction":62},{"rt":8885,"stimulus":"\n        <div class=\"response-container\">\n          <div class=\"response-instruction\">\n            <p>rotate the bar by using the left and right arrow keys.</p>\n            <p>when you are determined, press the Enter key.</p>\n          </div>\n          <div class=\"response-circle\">\n            <div class=\"response-fixation\"></div>\n            <div id=\"bar\" class=\"rotating-bar\"></div>\n          </div>\n        </div>\n      ","response":"Enter","trial_type":"html-keyboard-response","trial_index":8,"plugin_version":"2.1.0","time_elapsed":456353,"random_initial_angle":221,"response_angle_css":227,"response_angle_rdk":223,"angular_error_target":27,"angular_error_distractor":161,"target_direction":196,"target_group":"black","reward_points":4},{"rt":null,"stimulus":"\n          <p style=\"color: #00FF00;\">Your reward: 4 points</p>\n        ","response":null,"trial_type":"html-keyboard-response","trial_index":9,"plugin_version":"2.1.0","time_elapsed":458367},{"rt":null,"stimulus":"<div class=\"fixation\" style=\"font-size: 60px;\">+</div>","response":null,"trial_type":"html-keyboard-response","trial_index":10,"plugin_version":"2.1.0","time_elapsed":459376},{"target_group":"white","target_index":0,"condition_label":"practice","rt":-1,"response":"","correct":false,"choices":"ALL_KEYS","correct_choice":["a"],"trial_duration":2000,"flip_timestamps":[],"response_ends_trial":false,"number_of_apertures":2,"number_of_dots":[100,53],"number_of_sets":1,"coherent_direction":[311,61],"coherence":1,"opposite_coherence":0,"dot_radius":2,"dot_side_length":1,"dot_life":-1,"move_distance":1,"aperture_width":300,"aperture_height":300,"dot_color":["white","black"],"dot_shape":"circle","background_color":"#AAA","RDK_type":3,"aperture_type":2,"reinsert_type":2,"frame_rate":16.58677685950413,"frame_rate_array":[5,9,18,16,17,17,17,17,16,17,17,16,17,16,17,17,17,17,16,17,16,17,17,16,17,17,16,17,17,16,16,17,17,17,16,17,16,18,16,17,17,17,16,17,17,16,17,16,17,17,17,17,17,16,17,17,17,16,17,16,17,17,15,17,17,17,17,16,17,16,17,17,16,17,17,16,17,17,17,16,18,16,17,17,17,16,17,18,16,17,17,17,17,17,17,17,18,16,16,17,17,17,18,16,17,16,16,17,17,17,16,17,17,17,17,17,17,17,17,17,16],"number_of_frames":121,"aperture_center_x":676.5,"aperture_center_y":380.5,"fixation_cross":true,"fixation_cross_width":15,"fixation_cross_height":15,"fixation_cross_color":"#111","fixation_cross_thickness":1,"border":true,"border_thickness":2,"border_color":"transparent","canvas_width":1353,"canvas_height":761,"trial_type":"rdk","trial_index":11,"plugin_version":"2.0.0","time_elapsed":461381,"phase":"practice","target_direction":311,"distractor_direction":61},{"rt":4001,"stimulus":"\n        <div class=\"response-container\">\n          <div class=\"response-instruction\">\n            <p>rotate the bar by using the left and right arrow keys.</p>\n            <p>when you are determined, press the Enter key.</p>\n          </div>\n          <div class=\"response-circle\">\n            <div class=\"response-fixation\"></div>\n            <div id=\"bar\" class=\"rotating-bar\"></div>\n          </div>\n        </div>\n      ","response":"Enter","trial_type":"html-keyboard-response","trial_index":12,"plugin_version":"2.1.0","time_elapsed":465384,"random_initial_angle":350,"response_angle_css":368,"response_angle_rdk":82,"angular_error_target":131,"angular_error_distractor":21,"target_direction":311,"target_group":"white","reward_points":0},{"rt":null,"stimulus":"\n          <p style=\"color: #FF3333;\">Your reward: 0 points</p>\n        ","response":null,"trial_type":"html-keyboard-response","trial_index":13,"plugin_version":"2.1.0","time_elapsed":467391},{"rt":null,"stimulus":"<div class=\"fixation\" style=\"font-size: 60px;\">+</div>","response":null,"trial_type":"html-keyboard-response","trial_index":14,"plugin_version":"2.1.0","time_elapsed":468399},{"target_group":"white","target_index":0,"condition_label":"practice","rt":-1,"response":"","correct":false,"choices":"ALL_KEYS","correct_choice":["a"],"trial_duration":2000,"flip_timestamps":[],"response_ends_trial":false,"number_of_apertures":2,"number_of_dots":[100,83],"number_of_sets":1,"coherent_direction":[287,140],"coherence":1,"opposite_coherence":0,"dot_radius":2,"dot_side_length":1,"dot_life":-1,"move_distance":1,"aperture_width":300,"aperture_height":300,"dot_color":["white","black"],"dot_shape":"circle","background_color":"#AAA","RDK_type":3,"aperture_type":2,"reinsert_type":2,"frame_rate":16.675,"frame_rate_array":[7,17,17,17,17,16,17,17,17,17,16,17,17,16,17,17,17,19,14,17,17,16,17,17,17,16,17,17,17,16,17,17,17,19,15,16,18,16,17,17,17,19,14,17,18,16,16,17,17,17,16,17,17,16,17,17,17,19,14,17,17,16,20,15,16,16,18,17,17,15,16,17,17,19,14,17,17,16,17,17,17,16,17,17,17,16,17,16,17,17,17,17,17,16,17,17,17,16,17,17,17,19,15,17,16,17,16,17,17,17,17,17,17,17,17,16,17,16,16,17],"number_of_frames":120,"aperture_center_x":676.5,"aperture_center_y":380.5,"fixation_cross":true,"fixation_cross_width":15,"fixation_cross_height":15,"fixation_cross_color":"#111","fixation_cross_thickness":1,"border":true,"border_thickness":2,"border_color":"transparent","canvas_width":1353,"canvas_height":761,"trial_type":"rdk","trial_index":15,"plugin_version":"2.0.0","time_elapsed":470406,"phase":"practice","target_direction":287,"distractor_direction":140},{"rt":1561,"stimulus":"\n        <div class=\"response-container\">\n          <div class=\"response-instruction\">\n            <p>rotate the bar by using the left and right arrow keys.</p>\n            <p>when you are determined, press the Enter key.</p>\n          </div>\n          <div class=\"response-circle\">\n            <div class=\"response-fixation\"></div>\n            <div id=\"bar\" class=\"rotating-bar\"></div>\n          </div>\n        </div>\n      ","response":"Enter","trial_type":"html-keyboard-response","trial_index":16,"plugin_version":"2.1.0","time_elapsed":471968,"random_initial_angle":298,"response_angle_css":298,"response_angle_rdk":152,"angular_error_target":-135,"angular_error_distractor":12,"target_direction":287,"target_group":"white","reward_points":0},{"rt":null,"stimulus":"\n          <p style=\"color: #FF3333;\">Your reward: 0 points</p>\n        ","response":null,"trial_type":"html-keyboard-response","trial_index":17,"plugin_version":"2.1.0","time_elapsed":473970},{"rt":null,"stimulus":"<div class=\"fixation\" style=\"font-size: 60px;\">+</div>","response":null,"trial_type":"html-keyboard-response","trial_index":18,"plugin_version":"2.1.0","time_elapsed":474974},{"target_group":"white","target_index":0,"condition_label":"practice","rt":-1,"response":"","correct":false,"choices":"ALL_KEYS","correct_choice":["a"],"trial_duration":2000,"flip_timestamps":[],"response_ends_trial":false,"number_of_apertures":2,"number_of_dots":[100,68],"number_of_sets":1,"coherent_direction":[199,62],"coherence":1,"opposite_coherence":0,"dot_radius":2,"dot_side_length":1,"dot_life":-1,"move_distance":1,"aperture_width":300,"aperture_height":300,"dot_color":["white","black"],"dot_shape":"circle","background_color":"#AAA","RDK_type":3,"aperture_type":2,"reinsert_type":2,"frame_rate":16.791666666666668,"frame_rate_array":[14,18,18,14,17,17,17,17,17,17,17,17,17,17,17,19,14,17,19,14,17,17,17,17,17,17,36,5,10,21,15,18,19,14,16,17,19,16,12,19,14,17,17,17,17,17,17,18,14,17,18,16,17,16,19,15,18,16,17,17,17,18,15,17,19,14,18,16,17,17,17,16,17,17,17,17,17,16,19,15,17,17,18,15,17,17,18,18,17,14,20,14,19,15,19,15,16,17,19,17,14,19,14,17,19,15,18,14,17,17,17,16,17,17,17,17,17,17,17,17],"number_of_frames":120,"aperture_center_x":676.5,"aperture_center_y":380.5,"fixation_cross":true,"fixation_cross_width":15,"fixation_cross_height":15,"fixation_cross_color":"#111","fixation_cross_thickness":1,"border":true,"border_thickness":2,"border_color":"transparent","canvas_width":1353,"canvas_height":761,"trial_type":"rdk","trial_index":19,"plugin_version":"2.0.0","time_elapsed":476986,"phase":"practice","target_direction":199,"distractor_direction":62},{"rt":6320,"stimulus":"\n        <div class=\"response-container\">\n          <div class=\"response-instruction\">\n            <p>rotate the bar by using the left and right arrow keys.</p>\n            <p>when you are determined, press the Enter key.</p>\n          </div>\n          <div class=\"response-circle\">\n            <div class=\"response-fixation\"></div>\n            <div id=\"bar\" class=\"rotating-bar\"></div>\n          </div>\n        </div>\n      ","response":"Enter","trial_type":"html-keyboard-response","trial_index":20,"plugin_version":"2.1.0","time_elapsed":483307,"random_initial_angle":206,"response_angle_css":395,"response_angle_rdk":55,"angular_error_target":-144,"angular_error_distractor":-7,"target_direction":199,"target_group":"white","reward_points":0},{"rt":null,"stimulus":"\n          <p style=\"color: #FF3333;\">Your reward: 0 points</p>\n        ","response":null,"trial_type":"html-keyboard-response","trial_index":21,"plugin_version":"2.1.0","time_elapsed":485320},{"rt":null,"stimulus":"<div class=\"fixation\" style=\"font-size: 60px;\">+</div>","response":null,"trial_type":"html-keyboard-response","trial_index":22,"plugin_version":"2.1.0","time_elapsed":486336},{"target_group":"black","target_index":1,"condition_label":"practice","rt":-1,"response":"","correct":false,"choices":"ALL_KEYS","correct_choice":["a"],"trial_duration":2000,"flip_timestamps":[],"response_ends_trial":false,"number_of_apertures":2,"number_of_dots":[60,100],"number_of_sets":1,"coherent_direction":[282,66],"coherence":1,"opposite_coherence":0,"dot_radius":2,"dot_side_length":1,"dot_life":-1,"move_distance":1,"aperture_width":300,"aperture_height":300,"dot_color":["white","black"],"dot_shape":"circle","background_color":"#AAA","RDK_type":3,"aperture_type":2,"reinsert_type":2,"frame_rate":16.758333333333333,"frame_rate_array":[22,12,16,17,17,17,16,17,17,17,17,16,16,17,17,17,17,17,17,17,17,17,17,17,17,17,17,17,17,17,16,17,17,17,17,16,17,16,16,17,17,20,13,16,17,16,17,17,17,17,16,17,17,17,16,16,17,17,17,17,17,16,16,17,17,17,17,16,17,17,17,21,13,17,16,17,17,16,17,17,16,17,17,16,17,17,16,17,17,16,17,17,17,16,17,17,17,17,17,17,17,17,17,16,17,17,17,18,16,17,17,16,17,16,18,15,17,17,16,17],"number_of_frames":120,"aperture_center_x":676.5,"aperture_center_y":380.5,"fixation_cross":true,"fixation_cross_width":15,"fixation_cross_height":15,"fixation_cross_color":"#111","fixation_cross_thickness":1,"border":true,"border_thickness":2,"border_color":"transparent","canvas_width":1353,"canvas_height":761,"trial_type":"rdk","trial_index":23,"plugin_version":"2.0.0","time_elapsed":488340,"phase":"practice","target_direction":66,"distractor_direction":282},{"rt":1625,"stimulus":"\n        <div class=\"response-container\">\n          <div class=\"response-instruction\">\n            <p>rotate the bar by using the left and right arrow keys.</p>\n            <p>when you are determined, press the Enter key.</p>\n          </div>\n          <div class=\"response-circle\">\n            <div class=\"response-fixation\"></div>\n            <div id=\"bar\" class=\"rotating-bar\"></div>\n          </div>\n        </div>\n      ","response":"Enter","trial_type":"html-keyboard-response","trial_index":24,"plugin_version":"2.1.0","time_elapsed":489966,"random_initial_angle":319,"response_angle_css":319,"response_angle_rdk":131,"angular_error_target":65,"angular_error_distractor":-151,"target_direction":66,"target_group":"black","reward_points":0},{"rt":null,"stimulus":"\n          <p style=\"color: #FF3333;\">Your reward: 0 points</p>\n        ","response":null,"trial_type":"html-keyboard-response","trial_index":25,"plugin_version":"2.1.0","time_elapsed":491974},{"rt":null,"stimulus":"<div class=\"fixation\" style=\"font-size: 60px;\">+</div>","response":null,"trial_type":"html-keyboard-response","trial_index":26,"plugin_version":"2.1.0","time_elapsed":492979},{"target_group":"white","target_index":0,"condition_label":"practice","rt":-1,"response":"","correct":false,"choices":"ALL_KEYS","correct_choice":["a"],"trial_duration":2000,"flip_timestamps":[],"response_ends_trial":false,"number_of_apertures":2,"number_of_dots":[100,63],"number_of_sets":1,"coherent_direction":[288,102],"coherence":1,"opposite_coherence":0,"dot_radius":2,"dot_side_length":1,"dot_life":-1,"move_distance":1,"aperture_width":300,"aperture_height":300,"dot_color":["white","black"],"dot_shape":"circle","background_color":"#AAA","RDK_type":3,"aperture_type":2,"reinsert_type":2,"frame_rate":16.694214876033058,"frame_rate_array":[6,17,16,19,14,17,17,16,17,17,17,16,17,17,17,19,15,16,17,17,16,17,17,17,17,17,17,19,14,17,17,19,14,17,17,16,17,17,17,16,17,17,17,16,17,20,13,16,17,17,17,17,17,16,17,17,16,17,17,18,15,17,17,17,16,17,17,17,17,16,17,16,17,17,19,14,17,17,17,17,17,19,14,17,17,17,17,17,17,19,15,17,17,17,17,17,17,20,13,17,17,17,17,17,17,16,17,17,17,19,14,17,17,19,14,17,17,17,16,17,17],"number_of_frames":121,"aperture_center_x":676.5,"aperture_center_y":380.5,"fixation_cross":true,"fixation_cross_width":15,"fixation_cross_height":15,"fixation_cross_color":"#111","fixation_cross_thickness":1,"border":true,"border_thickness":2,"border_color":"transparent","canvas_width":1353,"canvas_height":761,"trial_type":"rdk","trial_index":27,"plugin_version":"2.0.0","time_elapsed":494988,"phase":"practice","target_direction":288,"distractor_direction":102},{"rt":4865,"stimulus":"\n        <div class=\"response-container\">\n          <div class=\"response-instruction\">\n            <p>rotate the bar by using the left and right arrow keys.</p>\n            <p>when you are determined, press the Enter key.</p>\n          </div>\n          <div class=\"response-circle\">\n            <div class=\"response-fixation\"></div>\n            <div id=\"bar\" class=\"rotating-bar\"></div>\n          </div>\n        </div>\n      ","response":"Enter","trial_type":"html-keyboard-response","trial_index":28,"plugin_version":"2.1.0","time_elapsed":499854,"random_initial_angle":84,"response_angle_css":-25,"response_angle_rdk":115,"angular_error_target":-173,"angular_error_distractor":13,"target_direction":288,"target_group":"white","reward_points":0},{"rt":null,"stimulus":"\n          <p style=\"color: #FF3333;\">Your reward: 0 points</p>\n        ","response":null,"trial_type":"html-keyboard-response","trial_index":29,"plugin_version":"2.1.0","time_elapsed":501867},{"rt":null,"stimulus":"<div class=\"fixation\" style=\"font-size: 60px;\">+</div>","response":null,"trial_type":"html-keyboard-response","trial_index":30,"plugin_version":"2.1.0","time_elapsed":502885},{"target_group":"black","target_index":1,"condition_label":"practice","rt":-1,"response":"","correct":false,"choices":"ALL_KEYS","correct_choice":["a"],"trial_duration":2000,"flip_timestamps":[],"response_ends_trial":false,"number_of_apertures":2,"number_of_dots":[63,100],"number_of_sets":1,"coherent_direction":[305,158],"coherence":1,"opposite_coherence":0,"dot_radius":2,"dot_side_length":1,"dot_life":-1,"move_distance":1,"aperture_width":300,"aperture_height":300,"dot_color":["white","black"],"dot_shape":"circle","background_color":"#AAA","RDK_type":3,"aperture_type":2,"reinsert_type":2,"frame_rate":16.725,"frame_rate_array":[13,17,17,17,17,17,17,17,17,18,15,17,16,19,15,17,17,17,17,17,17,17,17,17,17,17,16,17,16,17,16,16,17,17,17,17,16,17,17,17,17,16,17,17,17,16,17,16,17,17,16,16,17,17,17,17,17,17,16,17,16,17,17,16,17,17,16,17,16,17,17,17,17,17,17,17,17,17,16,17,17,16,17,17,16,17,17,16,17,17,17,17,16,17,17,17,16,17,17,17,16,17,17,16,17,16,17,17,17,17,17,17,16,17,16,17,17,16,17,17],"number_of_frames":120,"aperture_center_x":676.5,"aperture_center_y":380.5,"fixation_cross":true,"fixation_cross_width":15,"fixation_cross_height":15,"fixation_cross_color":"#111","fixation_cross_thickness":1,"border":true,"border_thickness":2,"border_color":"transparent","canvas_width":1353,"canvas_height":761,"trial_type":"rdk","trial_index":31,"plugin_version":"2.0.0","time_elapsed":504899,"phase":"practice","target_direction":158,"distractor_direction":305},{"rt":1812,"stimulus":"\n        <div class=\"response-container\">\n          <div class=\"response-instruction\">\n            <p>rotate the bar by using the left and right arrow keys.</p>\n            <p>when you are determined, press the Enter key.</p>\n          </div>\n          <div class=\"response-circle\">\n            <div class=\"response-fixation\"></div>\n            <div id=\"bar\" class=\"rotating-bar\"></div>\n          </div>\n        </div>\n      ","response":"Enter","trial_type":"html-keyboard-response","trial_index":32,"plugin_version":"2.1.0","time_elapsed":506712,"random_initial_angle":207,"response_angle_css":223,"response_angle_rdk":227,"angular_error_target":69,"angular_error_distractor":-78,"target_direction":158,"target_group":"black","reward_points":0},{"rt":null,"stimulus":"\n          <p style=\"color: #FF3333;\">Your reward: 0 points</p>\n        ","response":null,"trial_type":"html-keyboard-response","trial_index":33,"plugin_version":"2.1.0","time_elapsed":508729},{"rt":null,"stimulus":"<div class=\"fixation\" style=\"font-size: 60px;\">+</div>","response":null,"trial_type":"html-keyboard-response","trial_index":34,"plugin_version":"2.1.0","time_elapsed":509733},{"target_group":"black","target_index":1,"condition_label":"practice","rt":533,"response":"ArrowRight","correct":false,"choices":"ALL_KEYS","correct_choice":["a"],"trial_duration":2000,"flip_timestamps":[],"response_ends_trial":false,"number_of_apertures":2,"number_of_dots":[85,100],"number_of_sets":1,"coherent_direction":[227,40],"coherence":1,"opposite_coherence":0,"dot_radius":2,"dot_side_length":1,"dot_life":-1,"move_distance":1,"aperture_width":300,"aperture_height":300,"dot_color":["white","black"],"dot_shape":"circle","background_color":"#AAA","RDK_type":3,"aperture_type":2,"reinsert_type":2,"frame_rate":16.741666666666667,"frame_rate_array":[14,16,17,17,17,17,17,17,16,17,16,17,17,17,17,17,17,16,16,17,17,17,17,17,16,17,16,17,17,17,17,17,16,17,17,17,16,17,17,17,16,17,17,17,16,17,17,16,17,17,16,17,16,17,17,16,17,16,17,17,17,16,17,17,17,17,16,17,17,16,17,17,16,17,17,17,17,17,17,17,16,17,17,17,17,17,17,17,17,16,17,17,17,17,17,16,17,17,16,17,17,17,17,17,16,17,17,17,16,16,17,17,17,17,17,17,17,17,17,16],"number_of_frames":120,"aperture_center_x":676.5,"aperture_center_y":380.5,"fixation_cross":true,"fixation_cross_width":15,"fixation_cross_height":15,"fixation_cross_color":"#111","fixation_cross_thickness":1,"border":true,"border_thickness":2,"border_color":"transparent","canvas_width":1353,"canvas_height":761,"trial_type":"rdk","trial_index":35,"plugin_version":"2.0.0","time_elapsed":511745,"phase":"practice","target_direction":40,"distractor_direction":227},{"rt":1561,"stimulus":"\n        <div class=\"response-container\">\n          <div class=\"response-instruction\">\n            <p>rotate the bar by using the left and right arrow keys.</p>\n            <p>when you are determined, press the Enter key.</p>\n          </div>\n          <div class=\"response-circle\">\n            <div class=\"response-fixation\"></div>\n            <div id=\"bar\" class=\"rotating-bar\"></div>\n          </div>\n        </div>\n      ","response":"Enter","trial_type":"html-keyboard-response","trial_index":36,"plugin_version":"2.1.0","time_elapsed":513307,"random_initial_angle":65,"response_angle_css":65,"response_angle_rdk":25,"angular_error_target":-15,"angular_error_distractor":158,"target_direction":40,"target_group":"black","reward_points":7},{"rt":null,"stimulus":"\n          <p style=\"color: #00FF00;\">Your reward: 7 points</p>\n        ","response":null,"trial_type":"html-keyboard-response","trial_index":37,"plugin_version":"2.1.0","time_elapsed":515314},{"rt":null,"stimulus":"<div class=\"fixation\" style=\"font-size: 60px;\">+</div>","response":null,"trial_type":"html-keyboard-response","trial_index":38,"plugin_version":"2.1.0","time_elapsed":516328},{"target_group":"black","target_index":1,"condition_label":"practice","rt":-1,"response":"","correct":false,"choices":"ALL_KEYS","correct_choice":["a"],"trial_duration":2000,"flip_timestamps":[],"response_ends_trial":false,"number_of_apertures":2,"number_of_dots":[72,100],"number_of_sets":1,"coherent_direction":[134,269],"coherence":1,"opposite_coherence":0,"dot_radius":2,"dot_side_length":1,"dot_life":-1,"move_distance":1,"aperture_width":300,"aperture_height":300,"dot_color":["white","black"],"dot_shape":"circle","background_color":"#AAA","RDK_type":3,"aperture_type":2,"reinsert_type":2,"frame_rate":16.644628099173552,"frame_rate_array":[5,14,17,17,17,17,17,17,16,17,17,17,17,17,16,17,17,17,16,16,17,17,17,17,17,16,16,17,17,17,17,17,17,17,17,16,17,16,17,17,17,19,14,17,19,16,15,19,15,17,17,16,17,17,17,16,18,16,17,20,15,15,20,13,19,15,19,14,16,17,17,17,17,17,16,16,17,19,15,16,18,17,17,16,16,17,18,16,17,16,16,17,17,19,14,17,19,15,16,16,19,15,17,17,17,16,19,15,17,17,18,16,17,16,18,15,17,17,17,19,15],"number_of_frames":121,"aperture_center_x":676.5,"aperture_center_y":380.5,"fixation_cross":true,"fixation_cross_width":15,"fixation_cross_height":15,"fixation_cross_color":"#111","fixation_cross_thickness":1,"border":true,"border_thickness":2,"border_color":"transparent","canvas_width":1353,"canvas_height":761,"trial_type":"rdk","trial_index":39,"plugin_version":"2.0.0","time_elapsed":518334,"phase":"practice","target_direction":269,"distractor_direction":134},{"rt":2278,"stimulus":"\n        <div class=\"response-container\">\n          <div class=\"response-instruction\">\n            <p>rotate the bar by using the left and right arrow keys.</p>\n            <p>when you are determined, press the Enter key.</p>\n          </div>\n          <div class=\"response-circle\">\n            <div class=\"response-fixation\"></div>\n            <div id=\"bar\" class=\"rotating-bar\"></div>\n          </div>\n        </div>\n      ","response":"Enter","trial_type":"html-keyboard-response","trial_index":40,"plugin_version":"2.1.0","time_elapsed":520614,"random_initial_angle":40,"response_angle_css":40,"response_angle_rdk":50,"angular_error_target":141,"angular_error_distractor":-84,"target_direction":269,"target_group":"black","reward_points":0},{"rt":null,"stimulus":"\n          <p style=\"color: #FF3333;\">Your reward: 0 points</p>\n        ","response":null,"trial_type":"html-keyboard-response","trial_index":41,"plugin_version":"2.1.0","time_elapsed":522631},{"rt":null,"stimulus":"<div class=\"fixation\" style=\"font-size: 60px;\">+</div>","response":null,"trial_type":"html-keyboard-response","trial_index":42,"plugin_version":"2.1.0","time_elapsed":523635},{"target_group":"white","target_index":0,"condition_label":"practice","rt":373,"response":"ArrowRight","correct":false,"choices":"ALL_KEYS","correct_choice":["a"],"trial_duration":2000,"flip_timestamps":[],"response_ends_trial":false,"number_of_apertures":2,"number_of_dots":[100,78],"number_of_sets":1,"coherent_direction":[93,336],"coherence":1,"opposite_coherence":0,"dot_radius":2,"dot_side_length":1,"dot_life":-1,"move_distance":1,"aperture_width":300,"aperture_height":300,"dot_color":["white","black"],"dot_shape":"circle","background_color":"#AAA","RDK_type":3,"aperture_type":2,"reinsert_type":2,"frame_rate":16.641666666666666,"frame_rate_array":[9,16,17,17,17,17,15,17,17,17,19,15,16,18,16,16,17,17,16,17,17,16,17,17,16,17,16,17,17,16,18,16,17,17,16,17,16,17,17,17,16,17,17,16,17,17,17,17,17,17,16,16,17,17,17,17,17,19,14,17,17,17,17,17,16,17,17,17,16,18,16,17,17,17,16,17,16,18,16,16,17,17,17,16,17,17,16,17,17,17,17,16,17,17,16,17,16,17,16,17,16,17,17,16,18,16,16,17,17,16,17,17,17,17,17,16,17,16,17,16],"number_of_frames":120,"aperture_center_x":676.5,"aperture_center_y":380.5,"fixation_cross":true,"fixation_cross_width":15,"fixation_cross_height":15,"fixation_cross_color":"#111","fixation_cross_thickness":1,"border":true,"border_thickness":2,"border_color":"transparent","canvas_width":1353,"canvas_height":761,"trial_type":"rdk","trial_index":43,"plugin_version":"2.0.0","time_elapsed":525646,"phase":"practice","target_direction":93,"distractor_direction":336},{"rt":2353,"stimulus":"\n        <div class=\"response-container\">\n          <div class=\"response-instruction\">\n            <p>rotate the bar by using the left and right arrow keys.</p>\n            <p>when you are determined, press the Enter key.</p>\n          </div>\n          <div class=\"response-circle\">\n            <div class=\"response-fixation\"></div>\n            <div id=\"bar\" class=\"rotating-bar\"></div>\n          </div>\n        </div>\n      ","response":"Enter","trial_type":"html-keyboard-response","trial_index":44,"plugin_version":"2.1.0","time_elapsed":528001,"random_initial_angle":294,"response_angle_css":294,"response_angle_rdk":156,"angular_error_target":63,"angular_error_distractor":-180,"target_direction":93,"target_group":"white","reward_points":0},{"rt":null,"stimulus":"\n          <p style=\"color: #FF3333;\">Your reward: 0 points</p>\n        ","response":null,"trial_type":"html-keyboard-response","trial_index":45,"plugin_version":"2.1.0","time_elapsed":530013},{"rt":null,"stimulus":"<div class=\"fixation\" style=\"font-size: 60px;\">+</div>","response":null,"trial_type":"html-keyboard-response","trial_index":46,"plugin_version":"2.1.0","time_elapsed":531021},{"target_group":"black","target_index":1,"condition_label":"practice","rt":-1,"response":"","correct":false,"choices":"ALL_KEYS","correct_choice":["a"],"trial_duration":2000,"flip_timestamps":[],"response_ends_trial":false,"number_of_apertures":2,"number_of_dots":[80,100],"number_of_sets":1,"coherent_direction":[330,117],"coherence":1,"opposite_coherence":0,"dot_radius":2,"dot_side_length":1,"dot_life":-1,"move_distance":1,"aperture_width":300,"aperture_height":300,"dot_color":["white","black"],"dot_shape":"circle","background_color":"#AAA","RDK_type":3,"aperture_type":2,"reinsert_type":2,"frame_rate":16.675,"frame_rate_array":[5,17,17,16,17,16,17,17,17,17,16,17,17,17,17,17,17,17,16,17,17,17,17,17,16,17,16,17,17,16,17,17,17,17,17,17,18,16,17,17,17,17,16,17,17,17,17,17,16,16,17,16,17,16,17,17,17,17,17,16,16,17,16,17,17,17,17,16,17,17,17,16,17,17,16,17,17,17,17,17,17,17,17,16,17,17,17,17,17,17,16,16,17,17,17,17,16,17,17,16,17,17,17,17,18,15,17,17,17,17,16,17,17,17,16,17,17,16,17,17],"number_of_frames":120,"aperture_center_x":676.5,"aperture_center_y":380.5,"fixation_cross":true,"fixation_cross_width":15,"fixation_cross_height":15,"fixation_cross_color":"#111","fixation_cross_thickness":1,"border":true,"border_thickness":2,"border_color":"transparent","canvas_width":1353,"canvas_height":761,"trial_type":"rdk","trial_index":47,"plugin_version":"2.0.0","time_elapsed":533024,"phase":"practice","target_direction":117,"distractor_direction":330},{"rt":3233,"stimulus":"\n        <div class=\"response-container\">\n          <div class=\"response-instruction\">\n            <p>rotate the bar by using the left and right arrow keys.</p>\n            <p>when you are determined, press the Enter key.</p>\n          </div>\n          <div class=\"response-circle\">\n            <div class=\"response-fixation\"></div>\n            <div id=\"bar\" class=\"rotating-bar\"></div>\n          </div>\n        </div>\n      ","response":"Enter","trial_type":"html-keyboard-response","trial_index":48,"plugin_version":"2.1.0","time_elapsed":536257,"random_initial_angle":74,"response_angle_css":-18,"response_angle_rdk":108,"angular_error_target":-9,"angular_error_distractor":138,"target_direction":117,"target_group":"black","reward_points":8},{"rt":null,"stimulus":"\n          <p style=\"color: #00FF00;\">Your reward: 8 points</p>\n        ","response":null,"trial_type":"html-keyboard-response","trial_index":49,"plugin_version":"2.1.0","time_elapsed":538265},{"rt":null,"stimulus":"<div class=\"fixation\" style=\"font-size: 60px;\">+</div>","response":null,"trial_type":"html-keyboard-response","trial_index":50,"plugin_version":"2.1.0","time_elapsed":539280},{"target_group":"black","target_index":1,"condition_label":"practice","rt":-1,"response":"","correct":false,"choices":"ALL_KEYS","correct_choice":["a"],"trial_duration":2000,"flip_timestamps":[],"response_ends_trial":false,"number_of_apertures":2,"number_of_dots":[67,100],"number_of_sets":1,"coherent_direction":[7,182],"coherence":1,"opposite_coherence":0,"dot_radius":2,"dot_side_length":1,"dot_life":-1,"move_distance":1,"aperture_width":300,"aperture_height":300,"dot_color":["white","black"],"dot_shape":"circle","background_color":"#AAA","RDK_type":3,"aperture_type":2,"reinsert_type":2,"frame_rate":16.741666666666667,"frame_rate_array":[9,17,17,17,17,17,17,16,17,17,17,17,16,17,17,17,16,17,17,16,17,16,17,17,16,17,17,17,17,16,17,16,17,17,17,16,17,17,17,16,17,17,17,17,17,17,17,17,16,17,17,17,17,17,17,17,17,17,17,17,16,18,18,17,17,14,17,16,17,18,16,18,16,17,17,17,17,17,17,17,17,17,19,13,17,17,17,17,17,17,17,17,17,16,17,17,19,14,19,14,17,17,16,17,17,17,17,17,17,17,16,17,17,17,17,17,16,17,17,16],"number_of_frames":120,"aperture_center_x":676.5,"aperture_center_y":380.5,"fixation_cross":true,"fixation_cross_width":15,"fixation_cross_height":15,"fixation_cross_color":"#111","fixation_cross_thickness":1,"border":true,"border_thickness":2,"border_color":"transparent","canvas_width":1353,"canvas_height":761,"trial_type":"rdk","trial_index":51,"plugin_version":"2.0.0","time_elapsed":541290,"phase":"practice","target_direction":182,"distractor_direction":7},{"rt":3354,"stimulus":"\n        <div class=\"response-container\">\n          <div class=\"response-instruction\">\n            <p>rotate the bar by using the left and right arrow keys.</p>\n            <p>when you are determined, press the Enter key.</p>\n          </div>\n          <div class=\"response-circle\">\n            <div class=\"response-fixation\"></div>\n            <div id=\"bar\" class=\"rotating-bar\"></div>\n          </div>\n        </div>\n      ","response":"Enter","trial_type":"html-keyboard-response","trial_index":52,"plugin_version":"2.1.0","time_elapsed":544646,"random_initial_angle":95,"response_angle_css":86,"response_angle_rdk":4,"angular_error_target":-178,"angular_error_distractor":-3,"target_direction":182,"target_group":"black","reward_points":0},{"rt":null,"stimulus":"\n          <p style=\"color: #FF3333;\">Your reward: 0 points</p>\n        ","response":null,"trial_type":"html-keyboard-response","trial_index":53,"plugin_version":"2.1.0","time_elapsed":546651},{"rt":null,"stimulus":"<div class=\"fixation\" style=\"font-size: 60px;\">+</div>","response":null,"trial_type":"html-keyboard-response","trial_index":54,"plugin_version":"2.1.0","time_elapsed":547659},{"target_group":"white","target_index":0,"condition_label":"practice","rt":1288,"response":"ArrowLeft","correct":false,"choices":"ALL_KEYS","correct_choice":["a"],"trial_duration":2000,"flip_timestamps":[],"response_ends_trial":false,"number_of_apertures":2,"number_of_dots":[100,80],"number_of_sets":1,"coherent_direction":[45,219],"coherence":1,"opposite_coherence":0,"dot_radius":2,"dot_side_length":1,"dot_life":-1,"move_distance":1,"aperture_width":300,"aperture_height":300,"dot_color":["white","black"],"dot_shape":"circle","background_color":"#AAA","RDK_type":3,"aperture_type":2,"reinsert_type":2,"frame_rate":16.716666666666665,"frame_rate_array":[16,14,17,17,17,16,17,17,16,17,16,17,17,17,16,17,17,17,18,16,17,16,17,17,18,16,16,18,15,18,16,17,16,19,16,16,18,17,16,17,17,17,17,16,17,17,16,17,17,16,17,17,16,17,17,16,17,16,17,17,17,17,17,16,17,17,17,17,16,17,17,17,17,15,17,17,16,17,17,16,17,18,15,16,17,17,18,16,16,17,17,17,17,17,16,16,17,16,17,17,16,17,17,17,17,17,16,17,17,17,17,17,17,17,17,16,16,17,17,17],"number_of_frames":120,"aperture_center_x":676.5,"aperture_center_y":380.5,"fixation_cross":true,"fixation_cross_width":15,"fixation_cross_height":15,"fixation_cross_color":"#111","fixation_cross_thickness":1,"border":true,"border_thickness":2,"border_color":"transparent","canvas_width":1353,"canvas_height":761,"trial_type":"rdk","trial_index":55,"plugin_version":"2.0.0","time_elapsed":549671,"phase":"practice","target_direction":45,"distractor_direction":219},{"rt":5047,"stimulus":"\n        <div class=\"response-container\">\n          <div class=\"response-instruction\">\n            <p>rotate the bar by using the left and right arrow keys.</p>\n            <p>when you are determined, press the Enter key.</p>\n          </div>\n          <div class=\"response-circle\">\n            <div class=\"response-fixation\"></div>\n            <div id=\"bar\" class=\"rotating-bar\"></div>\n          </div>\n        </div>\n      ","response":"Enter","trial_type":"html-keyboard-response","trial_index":56,"plugin_version":"2.1.0","time_elapsed":554719,"random_initial_angle":7,"response_angle_css":175,"response_angle_rdk":275,"angular_error_target":-130,"angular_error_distractor":56,"target_direction":45,"target_group":"white","reward_points":0},{"rt":null,"stimulus":"\n          <p style=\"color: #FF3333;\">Your reward: 0 points</p>\n        ","response":null,"trial_type":"html-keyboard-response","trial_index":57,"plugin_version":"2.1.0","time_elapsed":556728},{"rt":null,"stimulus":"<div class=\"fixation\" style=\"font-size: 60px;\">+</div>","response":null,"trial_type":"html-keyboard-response","trial_index":58,"plugin_version":"2.1.0","time_elapsed":557738},{"target_group":"white","target_index":0,"condition_label":"practice","rt":220,"response":"ArrowRight","correct":false,"choices":"ALL_KEYS","correct_choice":["a"],"trial_duration":2000,"flip_timestamps":[],"response_ends_trial":false,"number_of_apertures":2,"number_of_dots":[100,98],"number_of_sets":1,"coherent_direction":[164,318],"coherence":1,"opposite_coherence":0,"dot_radius":2,"dot_side_length":1,"dot_life":-1,"move_distance":1,"aperture_width":300,"aperture_height":300,"dot_color":["white","black"],"dot_shape":"circle","background_color":"#AAA","RDK_type":3,"aperture_type":2,"reinsert_type":2,"frame_rate":16.775,"frame_rate_array":[14,18,16,17,17,17,17,17,17,17,17,17,17,16,17,17,17,17,17,17,17,17,17,17,16,17,17,17,17,17,16,17,17,17,17,17,16,17,17,16,17,17,17,16,19,15,18,16,16,17,17,16,17,17,17,17,18,15,17,17,17,17,17,16,17,17,17,16,16,17,18,16,17,17,17,16,17,17,18,15,16,17,17,17,16,17,16,17,17,17,17,17,17,17,17,17,17,16,17,17,17,17,16,17,16,17,16,17,17,17,17,17,16,17,16,17,16,17,17,17],"number_of_frames":120,"aperture_center_x":676.5,"aperture_center_y":380.5,"fixation_cross":true,"fixation_cross_width":15,"fixation_cross_height":15,"fixation_cross_color":"#111","fixation_cross_thickness":1,"border":true,"border_thickness":2,"border_color":"transparent","canvas_width":1353,"canvas_height":761,"trial_type":"rdk","trial_index":59,"plugin_version":"2.0.0","time_elapsed":559742,"phase":"practice","target_direction":164,"distractor_direction":318},{"rt":4148,"stimulus":"\n        <div class=\"response-container\">\n          <div class=\"response-instruction\">\n            <p>rotate the bar by using the left and right arrow keys.</p>\n            <p>when you are determined, press the Enter key.</p>\n          </div>\n          <div class=\"response-circle\">\n            <div class=\"response-fixation\"></div>\n            <div id=\"bar\" class=\"rotating-bar\"></div>\n          </div>\n        </div>\n      ","response":"Enter","trial_type":"html-keyboard-response","trial_index":60,"plugin_version":"2.1.0","time_elapsed":563891,"random_initial_angle":92,"response_angle_css":-45,"response_angle_rdk":135,"angular_error_target":-29,"angular_error_distractor":177,"target_direction":164,"target_group":"white","reward_points":4},{"rt":null,"stimulus":"\n          <p style=\"color: #00FF00;\">Your reward: 4 points</p>\n        ","response":null,"trial_type":"html-keyboard-response","trial_index":61,"plugin_version":"2.1.0","time_elapsed":565904},{"rt":null,"stimulus":"<div class=\"fixation\" style=\"font-size: 60px;\">+</div>","response":null,"trial_type":"html-keyboard-response","trial_index":62,"plugin_version":"2.1.0","time_elapsed":566921},{"target_group":"black","target_index":1,"condition_label":"practice","rt":-1,"response":"","correct":false,"choices":"ALL_KEYS","correct_choice":["a"],"trial_duration":2000,"flip_timestamps":[],"response_ends_trial":false,"number_of_apertures":2,"number_of_dots":[65,100],"number_of_sets":1,"coherent_direction":[143,20],"coherence":1,"opposite_coherence":0,"dot_radius":2,"dot_side_length":1,"dot_life":-1,"move_distance":1,"aperture_width":300,"aperture_height":300,"dot_color":["white","black"],"dot_shape":"circle","background_color":"#AAA","RDK_type":3,"aperture_type":2,"reinsert_type":2,"frame_rate":16.725,"frame_rate_array":[11,17,17,17,16,16,20,13,18,15,17,17,17,17,17,16,17,17,17,17,19,14,16,17,17,17,17,16,17,17,17,16,17,19,15,17,17,17,17,17,17,16,17,17,17,16,19,15,18,15,17,16,17,16,17,17,17,17,17,17,17,16,17,16,18,16,16,17,17,16,17,17,17,19,14,17,17,18,15,17,17,17,17,16,17,16,17,17,17,18,15,17,17,17,17,17,16,17,17,17,17,16,17,17,17,16,17,17,17,16,17,17,17,17,17,17,17,17,17,17],"number_of_frames":120,"aperture_center_x":676.5,"aperture_center_y":380.5,"fixation_cross":true,"fixation_cross_width":15,"fixation_cross_height":15,"fixation_cross_color":"#111","fixation_cross_thickness":1,"border":true,"border_thickness":2,"border_color":"transparent","canvas_width":1353,"canvas_height":761,"trial_type":"rdk","trial_index":63,"plugin_version":"2.0.0","time_elapsed":568933,"phase":"practice","target_direction":20,"distractor_direction":143},{"rt":3277,"stimulus":"\n        <div class=\"response-container\">\n          <div class=\"response-instruction\">\n            <p>rotate the bar by using the left and right arrow keys.</p>\n            <p>when you are determined, press the Enter key.</p>\n          </div>\n          <div class=\"response-circle\">\n            <div class=\"response-fixation\"></div>\n            <div id=\"bar\" class=\"rotating-bar\"></div>\n          </div>\n        </div>\n      ","response":"Enter","trial_type":"html-keyboard-response","trial_index":64,"plugin_version":"2.1.0","time_elapsed":572210,"random_initial_angle":65,"response_angle_css":95,"response_angle_rdk":355,"angular_error_target":-25,"angular_error_distractor":-148,"target_direction":20,"target_group":"black","reward_points":5},{"rt":null,"stimulus":"\n          <p style=\"color: #00FF00;\">Your reward: 5 points</p>\n        ","response":null,"trial_type":"html-keyboard-response","trial_index":65,"plugin_version":"2.1.0","time_elapsed":574226},{"rt":2951,"stimulus":"\n        <div class=\"instructions-container\">\n          <h2>End of Practice</h2>\n          <p>You have completed the practice trials.</p>\n          <p>Press <strong>Enter</strong> key to begin the main experiment.</p>\n        </div>\n      ","response":"Enter","trial_type":"html-keyboard-response","trial_index":66,"plugin_version":"2.1.0","time_elapsed":577179},{"rt":null,"stimulus":"<div class=\"fixation\" style=\"font-size: 60px;\">+</div>","response":null,"trial_type":"html-keyboard-response","trial_index":67,"plugin_version":"2.1.0","time_elapsed":578184},{"phase":"learning-awareness","target_group":"black","condition_label":"B_H_vs_W_L_rep24","target_direction":231,"distractor_direction":329,"session_rotation":109,"rt":-1,"response":"","correct":false,"choices":"ALL_KEYS","correct_choice":["a"],"trial_duration":2000,"flip_timestamps":[],"response_ends_trial":false,"number_of_apertures":200,"number_of_dots":[1,1,1,1,1,1,1,1,1,1,1,1,1,1,1,1,1,1,1,1,1,1,1,1,1,1,1,1,1,1,1,1,1,1,1,1,1,1,1,1,1,1,1,1,1,1,1,1,1,1,1,1,1,1,1,1,1,1,1,1,1,1,1,1,1,1,1,1,1,1,1,1,1,1,1,1,1,1,1,1,1,1,1,1,1,1,1,1,1,1,1,1,1,1,1,1,1,1,1,1,1,1,1,1,1,1,1,1,1,1,1,1,1,1,1,1,1,1,1,1,1,1,1,1,1,1,1,1,1,1,1,1,1,1,1,1,1,1,1,1,1,1,1,1,1,1,1,1,1,1,1,1,1,1,1,1,1,1,1,1,1,1,1,1,1,1,1,1,1,1,1,1,1,1,1,1,1,1,1,1,1,1,1,1,1,1,1,1,1,1,1,1,1,1,1,1,1,1,1,1],"number_of_sets":1,"coherent_direction":[329,329,231,231,231,329,329,329,329,231,231,231,329,329,329,329,231,329,231,329,329,329,329,231,231,329,231,231,231,329,329,231,329,231,231,329,231,231,231,329,231,329,231,329,231,231,329,231,329,329,231,231,329,231,231,231,329,329,329,231,329,329,329,329,231,231,329,329,329,231,231,231,231,329,231,329,329,231,231,231,329,329,329,231,329,231,231,231,231,231,231,329,329,231,329,231,231,329,329,329,329,329,231,329,231,329,231,231,231,231,329,329,231,329,231,329,329,329,329,329,231,329,329,231,329,329,329,329,231,329,231,231,231,231,231,231,231,231,329,329,329,231,231,231,231,231,231,231,231,231,329,329,231,329,231,231,329,329,231,329,329,329,329,231,231,231,231,329,231,329,329,231,231,329,329,231,329,231,231,329,231,231,329,329,231,329,231,329,329,329,329,231,329,231,329,329,329,231,329,231],"coherence":1,"opposite_coherence":0,"dot_radius":2,"dot_side_length":1,"dot_life":-1,"move_distance":1,"aperture_width":300,"aperture_height":300,"dot_color":["white","white","black","black","black","white","white","white","white","black","black","black","white","white","white","white","black","white","black","white","white","white","white","black","black","white","black","black","black","white","white","black","white","black","black","white","black","black","black","white","black","white","black","white","black","black","white","black","white","white","black","black","white","black","black","black","white","white","white","black","white","white","white","white","black","black","white","white","white","black","black","black","black","white","black","white","white","black","black","black","white","white","white","black","white","black","black","black","black","black","black","white","white","black","white","black","black","white","white","white","white","white","black","white","black","white","black","black","black","black","white","white","black","white","black","white","white","white","white","white","black","white","white","black","white","white","white","white","black","white","black","black","black","black","black","black","black","black","white","white","white","black","black","black","black","black","black","black","black","black","white","white","black","white","black","black","white","white","black","white","white","white","white","black","black","black","black","white","black","white","white","black","black","white","white","black","white","black","black","white","black","black","white","white","black","white","black","white","white","white","white","black","white","black","white","white","white","black","white","black"],"dot_shape":"circle","background_color":"#AAA","RDK_type":3,"aperture_type":2,"reinsert_type":2,"frame_rate":16.716666666666665,"frame_rate_array":[17,14,17,17,16,17,16,17,17,16,17,16,16,18,16,17,17,17,16,17,17,17,16,16,17,17,18,16,16,17,18,16,17,16,16,17,17,17,17,16,16,17,17,17,17,17,17,16,17,17,17,16,16,17,18,16,16,17,17,16,17,17,17,17,16,18,16,17,17,17,17,16,18,16,17,18,16,16,17,17,17,16,17,17,16,16,17,17,17,17,17,16,18,16,18,15,18,17,16,17,17,17,16,17,17,16,17,17,16,17,17,16,18,15,18,17,17,16,17,17],"number_of_frames":120,"aperture_center_x":676.5,"aperture_center_y":380.5,"fixation_cross":true,"fixation_cross_width":15,"fixation_cross_height":15,"fixation_cross_color":"#111","fixation_cross_thickness":1,"border":true,"border_thickness":2,"border_color":"transparent","canvas_width":1353,"canvas_height":761,"trial_type":"rdk","trial_index":68,"plugin_version":"2.0.0","time_elapsed":580194},{"rt":2839,"stimulus":"\n        <div class=\"response-container\">\n          <div class=\"response-instruction\">\n            <p>rotate the bar by using the left and right arrow keys.</p>\n            <p>when you are determined, press the Enter key.</p>\n          </div>\n          <div class=\"response-circle\">\n            <div class=\"response-fixation\"></div>\n            <div id=\"bar\" class=\"rotating-bar\"></div>\n          </div>\n        </div>\n      ","response":"Enter","trial_type":"html-keyboard-response","trial_index":69,"plugin_version":"2.1.0","time_elapsed":583034,"random_initial_angle":71,"response_angle_css":90,"response_angle_rdk":0,"angular_error_target":129,"angular_error_distractor":31,"target_direction":231,"target_group":"black","reward_points":0},{"rt":null,"stimulus":"\n          <p style=\"color: #FF3333;\">Your reward: 0 points</p>\n        ","response":null,"trial_type":"html-keyboard-response","trial_index":70,"plugin_version":"2.1.0","time_elapsed":585043},{"rt":null,"stimulus":"<div class=\"fixation\" style=\"font-size: 60px;\">+</div>","response":null,"trial_type":"html-keyboard-response","trial_index":71,"plugin_version":"2.1.0","time_elapsed":586048},{"phase":"learning-awareness","target_group":"black","condition_label":"B_H_vs_W_L_rep21","target_direction":223,"distractor_direction":322,"session_rotation":109,"rt":-1,"response":"","correct":false,"choices":"ALL_KEYS","correct_choice":["a"],"trial_duration":2000,"flip_timestamps":[],"response_ends_trial":false,"number_of_apertures":200,"number_of_dots":[1,1,1,1,1,1,1,1,1,1,1,1,1,1,1,1,1,1,1,1,1,1,1,1,1,1,1,1,1,1,1,1,1,1,1,1,1,1,1,1,1,1,1,1,1,1,1,1,1,1,1,1,1,1,1,1,1,1,1,1,1,1,1,1,1,1,1,1,1,1,1,1,1,1,1,1,1,1,1,1,1,1,1,1,1,1,1,1,1,1,1,1,1,1,1,1,1,1,1,1,1,1,1,1,1,1,1,1,1,1,1,1,1,1,1,1,1,1,1,1,1,1,1,1,1,1,1,1,1,1,1,1,1,1,1,1,1,1,1,1,1,1,1,1,1,1,1,1,1,1,1,1,1,1,1,1,1,1,1,1,1,1,1,1,1,1,1,1,1,1,1,1,1,1,1,1,1,1,1,1,1,1,1,1,1,1,1,1,1,1,1,1,1,1,1,1,1,1,1,1],"number_of_sets":1,"coherent_direction":[322,223,322,223,223,322,322,322,223,223,322,223,223,223,322,223,322,223,223,322,223,223,322,322,322,223,223,223,322,322,322,223,223,322,322,223,322,223,322,322,223,322,322,223,322,223,223,322,223,322,322,223,322,223,322,322,223,322,223,223,223,223,322,322,322,322,223,322,223,223,223,223,322,223,322,322,223,223,223,223,223,322,322,322,322,223,223,223,322,223,322,223,223,223,322,322,322,223,223,223,223,223,223,322,223,223,223,223,223,223,322,322,223,322,322,322,322,322,322,223,322,223,322,322,322,322,322,322,322,223,322,223,223,322,322,223,322,322,223,223,322,223,223,223,223,223,322,322,223,322,223,322,223,322,223,322,322,322,223,322,322,223,322,223,322,322,223,223,223,223,322,322,322,322,223,223,322,223,223,322,223,223,322,322,322,223,322,223,223,322,223,322,223,322,223,322,322,322,322,223],"coherence":1,"opposite_coherence":0,"dot_radius":2,"dot_side_length":1,"dot_life":-1,"move_distance":1,"aperture_width":300,"aperture_height":300,"dot_color":["white","black","white","black","black","white","white","white","black","black","white","black","black","black","white","black","white","black","black","white","black","black","white","white","white","black","black","black","white","white","white","black","black","white","white","black","white","black","white","white","black","white","white","black","white","black","black","white","black","white","white","black","white","black","white","white","black","white","black","black","black","black","white","white","white","white","black","white","black","black","black","black","white","black","white","white","black","black","black","black","black","white","white","white","white","black","black","black","white","black","white","black","black","black","white","white","white","black","black","black","black","black","black","white","black","black","black","black","black","black","white","white","black","white","white","white","white","white","white","black","white","black","white","white","white","white","white","white","white","black","white","black","black","white","white","black","white","white","black","black","white","black","black","black","black","black","white","white","black","white","black","white","black","white","black","white","white","white","black","white","white","black","white","black","white","white","black","black","black","black","white","white","white","white","black","black","white","black","black","white","black","black","white","white","white","black","white","black","black","white","black","white","black","white","black","white","white","white","white","black"],"dot_shape":"circle","background_color":"#AAA","RDK_type":3,"aperture_type":2,"reinsert_type":2,"frame_rate":16.725,"frame_rate_array":[13,17,18,16,17,16,17,17,17,18,17,17,18,16,17,17,17,17,16,17,17,17,16,17,17,16,17,16,17,17,17,16,16,17,16,16,17,16,17,17,17,16,17,17,16,17,16,17,17,17,17,17,17,17,16,17,17,17,17,16,18,17,16,17,16,17,17,17,16,17,17,17,16,16,18,18,14,17,17,17,17,16,17,17,17,16,17,17,16,17,17,17,16,17,17,16,17,17,17,17,17,17,17,16,17,17,16,17,17,17,16,17,17,16,17,16,17,17,17,17],"number_of_frames":120,"aperture_center_x":676.5,"aperture_center_y":380.5,"fixation_cross":true,"fixation_cross_width":15,"fixation_cross_height":15,"fixation_cross_color":"#111","fixation_cross_thickness":1,"border":true,"border_thickness":2,"border_color":"transparent","canvas_width":1353,"canvas_height":761,"trial_type":"rdk","trial_index":72,"plugin_version":"2.0.0","time_elapsed":588061},{"rt":4075,"stimulus":"\n        <div class=\"response-container\">\n          <div class=\"response-instruction\">\n            <p>rotate the bar by using the left and right arrow keys.</p>\n            <p>when you are determined, press the Enter key.</p>\n          </div>\n          <div class=\"response-circle\">\n            <div class=\"response-fixation\"></div>\n            <div id=\"bar\" class=\"rotating-bar\"></div>\n          </div>\n        </div>\n      ","response":"Enter","trial_type":"html-keyboard-response","trial_index":73,"plugin_version":"2.1.0","time_elapsed":592137,"random_initial_angle":205,"response_angle_css":303,"response_angle_rdk":147,"angular_error_target":-76,"angular_error_distractor":-175,"target_direction":223,"target_group":"black","reward_points":0},{"rt":null,"stimulus":"\n          <p style=\"color: #FF3333;\">Your reward: 0 points</p>\n        ","response":null,"trial_type":"html-keyboard-response","trial_index":74,"plugin_version":"2.1.0","time_elapsed":594140},{"rt":null,"stimulus":"<div class=\"fixation\" style=\"font-size: 60px;\">+</div>","response":null,"trial_type":"html-keyboard-response","trial_index":75,"plugin_version":"2.1.0","time_elapsed":595156},{"phase":"learning-awareness","target_group":"black","condition_label":"B_H_vs_W_L_rep22","target_direction":214,"distractor_direction":325,"session_rotation":109,"rt":-1,"response":"","correct":false,"choices":"ALL_KEYS","correct_choice":["a"],"trial_duration":2000,"flip_timestamps":[],"response_ends_trial":false,"number_of_apertures":200,"number_of_dots":[1,1,1,1,1,1,1,1,1,1,1,1,1,1,1,1,1,1,1,1,1,1,1,1,1,1,1,1,1,1,1,1,1,1,1,1,1,1,1,1,1,1,1,1,1,1,1,1,1,1,1,1,1,1,1,1,1,1,1,1,1,1,1,1,1,1,1,1,1,1,1,1,1,1,1,1,1,1,1,1,1,1,1,1,1,1,1,1,1,1,1,1,1,1,1,1,1,1,1,1,1,1,1,1,1,1,1,1,1,1,1,1,1,1,1,1,1,1,1,1,1,1,1,1,1,1,1,1,1,1,1,1,1,1,1,1,1,1,1,1,1,1,1,1,1,1,1,1,1,1,1,1,1,1,1,1,1,1,1,1,1,1,1,1,1,1,1,1,1,1,1,1,1,1,1,1,1,1,1,1,1,1,1,1,1,1,1,1,1,1,1,1,1,1,1,1,1,1,1,1],"number_of_sets":1,"coherent_direction":[325,214,214,214,214,325,325,325,325,214,214,325,214,214,214,325,325,325,214,325,325,325,214,214,325,214,325,214,325,214,214,214,214,325,325,325,325,325,214,325,325,214,214,214,214,325,214,214,214,325,325,325,214,214,325,214,325,325,325,325,214,325,214,325,214,325,325,214,325,325,325,214,214,214,325,214,325,214,214,214,214,214,325,325,325,214,214,325,325,325,214,325,325,214,214,214,214,214,214,325,325,214,325,214,214,214,214,214,214,325,325,214,325,325,214,325,214,325,214,214,325,214,214,214,214,214,214,325,214,214,325,214,214,325,214,325,214,325,325,214,325,325,325,214,325,325,214,214,214,214,325,325,325,325,214,214,214,325,325,325,325,214,214,214,325,214,325,325,325,325,325,214,214,325,325,325,325,325,325,214,325,325,325,214,325,325,214,325,214,214,325,214,214,325,325,325,214,325,214,214],"coherence":1,"opposite_coherence":0,"dot_radius":2,"dot_side_length":1,"dot_life":-1,"move_distance":1,"aperture_width":300,"aperture_height":300,"dot_color":["white","black","black","black","black","white","white","white","white","black","black","white","black","black","black","white","white","white","black","white","white","white","black","black","white","black","white","black","white","black","black","black","black","white","white","white","white","white","black","white","white","black","black","black","black","white","black","black","black","white","white","white","black","black","white","black","white","white","white","white","black","white","black","white","black","white","white","black","white","white","white","black","black","black","white","black","white","black","black","black","black","black","white","white","white","black","black","white","white","white","black","white","white","black","black","black","black","black","black","white","white","black","white","black","black","black","black","black","black","white","white","black","white","white","black","white","black","white","black","black","white","black","black","black","black","black","black","white","black","black","white","black","black","white","black","white","black","white","white","black","white","white","white","black","white","white","black","black","black","black","white","white","white","white","black","black","black","white","white","white","white","black","black","black","white","black","white","white","white","white","white","black","black","white","white","white","white","white","white","black","white","white","white","black","white","white","black","white","black","black","white","black","black","white","white","white","black","white","black","black"],"dot_shape":"circle","background_color":"#AAA","RDK_type":3,"aperture_type":2,"reinsert_type":2,"frame_rate":16.633333333333333,"frame_rate_array":[6,16,17,17,16,17,17,16,18,17,16,17,17,16,16,17,17,19,15,16,18,14,17,16,16,17,16,18,16,18,17,17,17,16,17,17,16,17,17,17,16,17,17,18,15,16,17,17,17,16,17,16,17,17,17,16,16,17,17,17,17,17,17,17,16,17,16,18,16,16,18,17,17,16,16,18,16,16,18,16,17,17,17,17,17,16,17,17,17,16,17,17,16,17,17,18,17,16,17,17,16,18,18,16,16,16,18,16,17,16,18,16,16,17,17,17,16,17,17,16],"number_of_frames":120,"aperture_center_x":676.5,"aperture_center_y":380.5,"fixation_cross":true,"fixation_cross_width":15,"fixation_cross_height":15,"fixation_cross_color":"#111","fixation_cross_thickness":1,"border":true,"border_thickness":2,"border_color":"transparent","canvas_width":1353,"canvas_height":761,"trial_type":"rdk","trial_index":76,"plugin_version":"2.0.0","time_elapsed":597160},{"rt":2541,"stimulus":"\n        <div class=\"response-container\">\n          <div class=\"response-instruction\">\n            <p>rotate the bar by using the left and right arrow keys.</p>\n            <p>when you are determined, press the Enter key.</p>\n          </div>\n          <div class=\"response-circle\">\n            <div class=\"response-fixation\"></div>\n            <div id=\"bar\" class=\"rotating-bar\"></div>\n          </div>\n        </div>\n      ","response":"Enter","trial_type":"html-keyboard-response","trial_index":77,"plugin_version":"2.1.0","time_elapsed":599702,"random_initial_angle":250,"response_angle_css":233,"response_angle_rdk":217,"angular_error_target":3,"angular_error_distractor":-108,"target_direction":214,"target_group":"black","reward_points":9},{"rt":null,"stimulus":"\n          <p style=\"color: #00FF00;\">Your reward: 9 points</p>\n        ","response":null,"trial_type":"html-keyboard-response","trial_index":78,"plugin_version":"2.1.0","time_elapsed":601704},{"rt":null,"stimulus":"<div class=\"fixation\" style=\"font-size: 60px;\">+</div>","response":null,"trial_type":"html-keyboard-response","trial_index":79,"plugin_version":"2.1.0","time_elapsed":602722},{"phase":"learning-awareness","target_group":"white","condition_label":"W_H_vs_B_L_rep21","target_direction":136,"distractor_direction":42,"session_rotation":109,"rt":-1,"response":"","correct":false,"choices":"ALL_KEYS","correct_choice":["a"],"trial_duration":2000,"flip_timestamps":[],"response_ends_trial":false,"number_of_apertures":200,"number_of_dots":[1,1,1,1,1,1,1,1,1,1,1,1,1,1,1,1,1,1,1,1,1,1,1,1,1,1,1,1,1,1,1,1,1,1,1,1,1,1,1,1,1,1,1,1,1,1,1,1,1,1,1,1,1,1,1,1,1,1,1,1,1,1,1,1,1,1,1,1,1,1,1,1,1,1,1,1,1,1,1,1,1,1,1,1,1,1,1,1,1,1,1,1,1,1,1,1,1,1,1,1,1,1,1,1,1,1,1,1,1,1,1,1,1,1,1,1,1,1,1,1,1,1,1,1,1,1,1,1,1,1,1,1,1,1,1,1,1,1,1,1,1,1,1,1,1,1,1,1,1,1,1,1,1,1,1,1,1,1,1,1,1,1,1,1,1,1,1,1,1,1,1,1,1,1,1,1,1,1,1,1,1,1,1,1,1,1,1,1,1,1,1,1,1,1,1,1,1,1,1,1],"number_of_sets":1,"coherent_direction":[136,42,136,42,136,42,42,42,136,136,136,136,136,136,42,136,42,136,42,42,136,136,42,42,136,42,136,136,42,42,42,42,136,136,136,42,42,42,136,136,42,136,42,136,42,42,42,42,136,42,136,136,42,42,42,42,136,136,42,42,136,42,136,136,136,42,136,42,136,42,42,42,42,136,42,136,42,42,42,42,42,136,42,136,42,42,136,136,42,42,136,42,136,42,136,136,136,42,42,42,136,42,136,136,42,136,42,136,42,42,42,136,42,136,136,136,136,42,42,136,136,136,136,136,42,42,42,42,42,136,42,42,42,42,136,136,136,136,136,136,136,136,136,42,42,136,136,136,136,136,42,42,136,136,136,42,136,136,42,42,42,42,136,42,42,136,136,42,136,42,136,136,42,136,136,136,42,136,136,42,42,42,42,136,42,136,42,136,136,136,42,136,136,42,42,136,42,42,136,42],"coherence":1,"opposite_coherence":0,"dot_radius":2,"dot_side_length":1,"dot_life":-1,"move_distance":1,"aperture_width":300,"aperture_height":300,"dot_color":["white","black","white","black","white","black","black","black","white","white","white","white","white","white","black","white","black","white","black","black","white","white","black","black","white","black","white","white","black","black","black","black","white","white","white","black","black","black","white","white","black","white","black","white","black","black","black","black","white","black","white","white","black","black","black","black","white","white","black","black","white","black","white","white","white","black","white","black","white","black","black","black","black","white","black","white","black","black","black","black","black","white","black","white","black","black","white","white","black","black","white","black","white","black","white","white","white","black","black","black","white","black","white","white","black","white","black","white","black","black","black","white","black","white","white","white","white","black","black","white","white","white","white","white","black","black","black","black","black","white","black","black","black","black","white","white","white","white","white","white","white","white","white","black","black","white","white","white","white","white","black","black","white","white","white","black","white","white","black","black","black","black","white","black","black","white","white","black","white","black","white","white","black","white","white","white","black","white","white","black","black","black","black","white","black","white","black","white","white","white","black","white","white","black","black","white","black","black","white","black"],"dot_shape":"circle","background_color":"#AAA","RDK_type":3,"aperture_type":2,"reinsert_type":2,"frame_rate":16.65,"frame_rate_array":[5,20,11,15,17,17,16,18,17,16,17,17,17,17,17,17,17,17,17,16,17,17,17,16,18,17,16,17,17,17,17,17,17,16,17,17,17,16,17,18,15,17,17,16,17,18,17,16,17,17,17,17,18,16,16,17,17,19,15,17,15,18,16,17,17,17,17,17,15,17,17,17,16,18,16,17,17,16,16,18,16,17,16,17,16,16,17,17,16,18,16,16,17,16,18,16,17,16,17,19,17,15,17,17,16,17,17,16,17,17,17,15,19,15,17,17,17,17,17,18],"number_of_frames":120,"aperture_center_x":676.5,"aperture_center_y":380.5,"fixation_cross":true,"fixation_cross_width":15,"fixation_cross_height":15,"fixation_cross_color":"#111","fixation_cross_thickness":1,"border":true,"border_thickness":2,"border_color":"transparent","canvas_width":1353,"canvas_height":761,"trial_type":"rdk","trial_index":80,"plugin_version":"2.0.0","time_elapsed":604729},{"rt":2964,"stimulus":"\n        <div class=\"response-container\">\n          <div class=\"response-instruction\">\n            <p>rotate the bar by using the left and right arrow keys.</p>\n            <p>when you are determined, press the Enter key.</p>\n          </div>\n          <div class=\"response-circle\">\n            <div class=\"response-fixation\"></div>\n            <div id=\"bar\" class=\"rotating-bar\"></div>\n          </div>\n        </div>\n      ","response":"Enter","trial_type":"html-keyboard-response","trial_index":81,"plugin_version":"2.1.0","time_elapsed":607695,"random_initial_angle":94,"response_angle_css":119,"response_angle_rdk":331,"angular_error_target":-165,"angular_error_distractor":-71,"target_direction":136,"target_group":"white","reward_points":0},{"rt":null,"stimulus":"\n          <p style=\"color: #FF3333;\">Your reward: 0 points</p>\n        ","response":null,"trial_type":"html-keyboard-response","trial_index":82,"plugin_version":"2.1.0","time_elapsed":609702},{"rt":null,"stimulus":"<div class=\"fixation\" style=\"font-size: 60px;\">+</div>","response":null,"trial_type":"html-keyboard-response","trial_index":83,"plugin_version":"2.1.0","time_elapsed":610705},{"phase":"learning-awareness","target_group":"white","condition_label":"W_H_vs_B_L_rep24","target_direction":145,"distractor_direction":20,"session_rotation":109,"rt":-1,"response":"","correct":false,"choices":"ALL_KEYS","correct_choice":["a"],"trial_duration":2000,"flip_timestamps":[],"response_ends_trial":false,"number_of_apertures":200,"number_of_dots":[1,1,1,1,1,1,1,1,1,1,1,1,1,1,1,1,1,1,1,1,1,1,1,1,1,1,1,1,1,1,1,1,1,1,1,1,1,1,1,1,1,1,1,1,1,1,1,1,1,1,1,1,1,1,1,1,1,1,1,1,1,1,1,1,1,1,1,1,1,1,1,1,1,1,1,1,1,1,1,1,1,1,1,1,1,1,1,1,1,1,1,1,1,1,1,1,1,1,1,1,1,1,1,1,1,1,1,1,1,1,1,1,1,1,1,1,1,1,1,1,1,1,1,1,1,1,1,1,1,1,1,1,1,1,1,1,1,1,1,1,1,1,1,1,1,1,1,1,1,1,1,1,1,1,1,1,1,1,1,1,1,1,1,1,1,1,1,1,1,1,1,1,1,1,1,1,1,1,1,1,1,1,1,1,1,1,1,1,1,1,1,1,1,1,1,1,1,1,1,1],"number_of_sets":1,"coherent_direction":[145,20,145,145,145,145,145,20,20,20,20,20,20,145,145,20,20,20,20,20,145,145,20,145,20,145,20,145,20,145,145,20,20,145,20,145,145,20,20,145,145,145,145,20,145,145,145,145,145,20,145,20,20,145,20,20,20,145,145,20,145,20,145,20,20,20,145,145,145,145,145,20,145,145,20,145,20,145,20,20,145,20,20,145,20,20,20,20,20,20,145,145,145,20,145,20,145,145,20,20,145,20,145,145,20,20,20,20,145,145,145,20,145,20,20,145,145,20,145,145,145,145,20,20,20,20,145,20,20,145,145,20,145,145,145,20,20,145,20,20,145,20,145,145,145,20,145,145,145,20,20,20,145,20,145,20,20,145,145,20,145,145,20,20,20,145,20,20,20,145,20,145,20,145,145,20,20,145,145,145,145,145,145,145,20,145,145,20,20,145,20,145,20,20,20,20,20,20,145,20],"coherence":1,"opposite_coherence":0,"dot_radius":2,"dot_side_length":1,"dot_life":-1,"move_distance":1,"aperture_width":300,"aperture_height":300,"dot_color":["white","black","white","white","white","white","white","black","black","black","black","black","black","white","white","black","black","black","black","black","white","white","black","white","black","white","black","white","black","white","white","black","black","white","black","white","white","black","black","white","white","white","white","black","white","white","white","white","white","black","white","black","black","white","black","black","black","white","white","black","white","black","white","black","black","black","white","white","white","white","white","black","white","white","black","white","black","white","black","black","white","black","black","white","black","black","black","black","black","black","white","white","white","black","white","black","white","white","black","black","white","black","white","white","black","black","black","black","white","white","white","black","white","black","black","white","white","black","white","white","white","white","black","black","black","black","white","black","black","white","white","black","white","white","white","black","black","white","black","black","white","black","white","white","white","black","white","white","white","black","black","black","white","black","white","black","black","white","white","black","white","white","black","black","black","white","black","black","black","white","black","white","black","white","white","black","black","white","white","white","white","white","white","white","black","white","white","black","black","white","black","white","black","black","black","black","black","black","white","black"],"dot_shape":"circle","background_color":"#AAA","RDK_type":3,"aperture_type":2,"reinsert_type":2,"frame_rate":16.75,"frame_rate_array":[16,18,15,16,17,17,16,17,16,18,17,17,17,16,16,18,17,17,17,16,18,17,17,16,17,17,17,16,17,18,17,17,17,17,17,17,16,18,17,16,17,16,18,16,17,17,17,18,16,16,16,16,18,16,16,18,16,16,18,16,16,17,17,16,17,17,17,17,16,17,17,16,17,18,16,17,17,16,17,16,18,17,16,17,17,17,16,17,17,17,17,17,17,17,15,18,15,18,17,16,18,16,16,17,17,17,17,15,18,17,16,17,16,17,16,17,17,16,17,16],"number_of_frames":120,"aperture_center_x":676.5,"aperture_center_y":380.5,"fixation_cross":true,"fixation_cross_width":15,"fixation_cross_height":15,"fixation_cross_color":"#111","fixation_cross_thickness":1,"border":true,"border_thickness":2,"border_color":"transparent","canvas_width":1353,"canvas_height":761,"trial_type":"rdk","trial_index":84,"plugin_version":"2.0.0","time_elapsed":612712},{"rt":1576,"stimulus":"\n        <div class=\"response-container\">\n          <div class=\"response-instruction\">\n            <p>rotate the bar by using the left and right arrow keys.</p>\n            <p>when you are determined, press the Enter key.</p>\n          </div>\n          <div class=\"response-circle\">\n            <div class=\"response-fixation\"></div>\n            <div id=\"bar\" class=\"rotating-bar\"></div>\n          </div>\n        </div>\n      ","response":"Enter","trial_type":"html-keyboard-response","trial_index":85,"plugin_version":"2.1.0","time_elapsed":614289,"random_initial_angle":345,"response_angle_css":356,"response_angle_rdk":94,"angular_error_target":-51,"angular_error_distractor":74,"target_direction":145,"target_group":"white","reward_points":0},{"rt":null,"stimulus":"\n          <p style=\"color: #FF3333;\">Your reward: 0 points</p>\n        ","response":null,"trial_type":"html-keyboard-response","trial_index":86,"plugin_version":"2.1.0","time_elapsed":616299},{"rt":null,"stimulus":"<div class=\"fixation\" style=\"font-size: 60px;\">+</div>","response":null,"trial_type":"html-keyboard-response","trial_index":87,"plugin_version":"2.1.0","time_elapsed":617306},{"phase":"learning-awareness","target_group":"black","condition_label":"B_H_vs_W_L_rep12","target_direction":205,"distractor_direction":322,"session_rotation":109,"rt":-1,"response":"","correct":false,"choices":"ALL_KEYS","correct_choice":["a"],"trial_duration":2000,"flip_timestamps":[],"response_ends_trial":false,"number_of_apertures":200,"number_of_dots":[1,1,1,1,1,1,1,1,1,1,1,1,1,1,1,1,1,1,1,1,1,1,1,1,1,1,1,1,1,1,1,1,1,1,1,1,1,1,1,1,1,1,1,1,1,1,1,1,1,1,1,1,1,1,1,1,1,1,1,1,1,1,1,1,1,1,1,1,1,1,1,1,1,1,1,1,1,1,1,1,1,1,1,1,1,1,1,1,1,1,1,1,1,1,1,1,1,1,1,1,1,1,1,1,1,1,1,1,1,1,1,1,1,1,1,1,1,1,1,1,1,1,1,1,1,1,1,1,1,1,1,1,1,1,1,1,1,1,1,1,1,1,1,1,1,1,1,1,1,1,1,1,1,1,1,1,1,1,1,1,1,1,1,1,1,1,1,1,1,1,1,1,1,1,1,1,1,1,1,1,1,1,1,1,1,1,1,1,1,1,1,1,1,1,1,1,1,1,1,1],"number_of_sets":1,"coherent_direction":[322,322,205,205,322,322,322,205,322,205,322,205,322,205,205,205,205,205,205,322,322,205,205,322,322,205,322,322,205,205,322,322,205,205,322,205,322,205,322,322,322,205,205,205,205,205,322,205,322,205,322,205,205,205,322,205,205,322,205,205,322,205,205,205,205,322,205,205,205,205,205,322,205,322,322,322,205,322,322,205,205,322,322,322,322,205,205,322,322,322,322,205,322,322,205,322,322,322,205,205,205,322,205,205,322,205,322,205,322,205,322,322,322,322,205,322,205,322,322,322,205,322,322,322,205,205,322,322,322,322,205,205,205,205,322,322,205,322,205,322,205,322,322,322,322,322,205,322,322,205,322,205,205,322,322,205,205,205,205,205,205,205,205,322,322,322,205,322,322,322,322,205,205,322,322,322,322,205,322,205,205,205,205,205,322,322,322,322,205,205,205,205,322,205,322,205,205,205,322,322],"coherence":1,"opposite_coherence":0,"dot_radius":2,"dot_side_length":1,"dot_life":-1,"move_distance":1,"aperture_width":300,"aperture_height":300,"dot_color":["white","white","black","black","white","white","white","black","white","black","white","black","white","black","black","black","black","black","black","white","white","black","black","white","white","black","white","white","black","black","white","white","black","black","white","black","white","black","white","white","white","black","black","black","black","black","white","black","white","black","white","black","black","black","white","black","black","white","black","black","white","black","black","black","black","white","black","black","black","black","black","white","black","white","white","white","black","white","white","black","black","white","white","white","white","black","black","white","white","white","white","black","white","white","black","white","white","white","black","black","black","white","black","black","white","black","white","black","white","black","white","white","white","white","black","white","black","white","white","white","black","white","white","white","black","black","white","white","white","white","black","black","black","black","white","white","black","white","black","white","black","white","white","white","white","white","black","white","white","black","white","black","black","white","white","black","black","black","black","black","black","black","black","white","white","white","black","white","white","white","white","black","black","white","white","white","white","black","white","black","black","black","black","black","white","white","white","white","black","black","black","black","white","black","white","black","black","black","white","white"],"dot_shape":"circle","background_color":"#AAA","RDK_type":3,"aperture_type":2,"reinsert_type":2,"frame_rate":16.619834710743802,"frame_rate_array":[6,9,17,16,17,17,17,17,17,17,17,16,16,17,17,17,16,17,16,17,17,17,16,17,17,17,17,17,16,17,17,17,16,17,16,17,16,17,17,16,17,17,17,16,17,17,17,17,16,17,18,15,17,17,17,16,17,17,17,16,17,16,17,17,17,17,16,17,17,17,16,17,16,17,16,17,16,17,17,17,17,17,17,17,16,17,17,17,17,16,17,17,17,17,17,17,18,17,15,17,18,16,16,18,17,16,17,16,17,17,17,17,16,18,16,19,22,10,18,18,16],"number_of_frames":121,"aperture_center_x":676.5,"aperture_center_y":380.5,"fixation_cross":true,"fixation_cross_width":15,"fixation_cross_height":15,"fixation_cross_color":"#111","fixation_cross_thickness":1,"border":true,"border_thickness":2,"border_color":"transparent","canvas_width":1353,"canvas_height":761,"trial_type":"rdk","trial_index":88,"plugin_version":"2.0.0","time_elapsed":619312},{"rt":1485,"stimulus":"\n        <div class=\"response-container\">\n          <div class=\"response-instruction\">\n            <p>rotate the bar by using the left and right arrow keys.</p>\n            <p>when you are determined, press the Enter key.</p>\n          </div>\n          <div class=\"response-circle\">\n            <div class=\"response-fixation\"></div>\n            <div id=\"bar\" class=\"rotating-bar\"></div>\n          </div>\n        </div>\n      ","response":"Enter","trial_type":"html-keyboard-response","trial_index":89,"plugin_version":"2.1.0","time_elapsed":620798,"random_initial_angle":126,"response_angle_css":126,"response_angle_rdk":324,"angular_error_target":119,"angular_error_distractor":2,"target_direction":205,"target_group":"black","reward_points":0},{"rt":null,"stimulus":"\n          <p style=\"color: #FF3333;\">Your reward: 0 points</p>\n        ","response":null,"trial_type":"html-keyboard-response","trial_index":90,"plugin_version":"2.1.0","time_elapsed":622803},{"rt":null,"stimulus":"<div class=\"fixation\" style=\"font-size: 60px;\">+</div>","response":null,"trial_type":"html-keyboard-response","trial_index":91,"plugin_version":"2.1.0","time_elapsed":623807},{"phase":"learning-awareness","target_group":"white","condition_label":"W_H_vs_B_L_rep3","target_direction":153,"distractor_direction":20,"session_rotation":109,"rt":-1,"response":"","correct":false,"choices":"ALL_KEYS","correct_choice":["a"],"trial_duration":2000,"flip_timestamps":[],"response_ends_trial":false,"number_of_apertures":200,"number_of_dots":[1,1,1,1,1,1,1,1,1,1,1,1,1,1,1,1,1,1,1,1,1,1,1,1,1,1,1,1,1,1,1,1,1,1,1,1,1,1,1,1,1,1,1,1,1,1,1,1,1,1,1,1,1,1,1,1,1,1,1,1,1,1,1,1,1,1,1,1,1,1,1,1,1,1,1,1,1,1,1,1,1,1,1,1,1,1,1,1,1,1,1,1,1,1,1,1,1,1,1,1,1,1,1,1,1,1,1,1,1,1,1,1,1,1,1,1,1,1,1,1,1,1,1,1,1,1,1,1,1,1,1,1,1,1,1,1,1,1,1,1,1,1,1,1,1,1,1,1,1,1,1,1,1,1,1,1,1,1,1,1,1,1,1,1,1,1,1,1,1,1,1,1,1,1,1,1,1,1,1,1,1,1,1,1,1,1,1,1,1,1,1,1,1,1,1,1,1,1,1,1],"number_of_sets":1,"coherent_direction":[153,153,153,20,153,153,20,153,20,20,20,20,153,20,153,153,20,153,153,20,20,153,153,20,153,20,153,153,153,20,20,20,153,153,153,153,153,20,20,153,153,20,20,153,20,20,153,153,20,153,153,153,20,20,153,20,20,20,20,153,153,20,153,20,20,153,153,20,153,20,153,20,20,153,20,153,20,153,20,153,20,153,20,20,153,153,153,153,153,20,20,153,20,153,20,20,153,20,153,153,20,20,153,20,20,20,20,153,20,153,153,20,153,20,20,20,153,153,20,153,153,20,153,153,153,153,153,20,153,20,20,20,20,20,153,153,20,153,20,20,153,20,20,20,20,20,20,153,153,20,20,20,153,20,20,153,153,20,153,20,20,153,153,20,153,20,153,153,153,153,153,153,153,153,20,153,20,20,153,20,153,20,153,20,153,153,153,20,20,20,20,20,20,153,20,20,20,153,153,153],"coherence":1,"opposite_coherence":0,"dot_radius":2,"dot_side_length":1,"dot_life":-1,"move_distance":1,"aperture_width":300,"aperture_height":300,"dot_color":["white","white","white","black","white","white","black","white","black","black","black","black","white","black","white","white","black","white","white","black","black","white","white","black","white","black","white","white","white","black","black","black","white","white","white","white","white","black","black","white","white","black","black","white","black","black","white","white","black","white","white","white","black","black","white","black","black","black","black","white","white","black","white","black","black","white","white","black","white","black","white","black","black","white","black","white","black","white","black","white","black","white","black","black","white","white","white","white","white","black","black","white","black","white","black","black","white","black","white","white","black","black","white","black","black","black","black","white","black","white","white","black","white","black","black","black","white","white","black","white","white","black","white","white","white","white","white","black","white","black","black","black","black","black","white","white","black","white","black","black","white","black","black","black","black","black","black","white","white","black","black","black","white","black","black","white","white","black","white","black","black","white","white","black","white","black","white","white","white","white","white","white","white","white","black","white","black","black","white","black","white","black","white","black","white","white","white","black","black","black","black","black","black","white","black","black","black","white","white","white"],"dot_shape":"circle","background_color":"#AAA","RDK_type":3,"aperture_type":2,"reinsert_type":2,"frame_rate":16.741666666666667,"frame_rate_array":[18,13,17,18,17,17,16,17,17,17,17,17,17,16,16,17,16,17,17,17,16,16,17,17,17,16,17,16,17,18,16,16,17,17,16,17,16,17,17,17,17,17,17,16,17,17,17,17,16,17,17,16,17,17,17,17,16,17,17,17,16,17,16,17,17,17,17,16,18,16,17,16,17,16,18,17,17,16,17,17,17,16,17,16,16,16,18,17,17,17,17,16,17,17,17,16,17,17,17,17,16,17,17,16,17,17,16,18,17,16,17,17,17,17,17,17,17,16,17,17],"number_of_frames":120,"aperture_center_x":676.5,"aperture_center_y":380.5,"fixation_cross":true,"fixation_cross_width":15,"fixation_cross_height":15,"fixation_cross_color":"#111","fixation_cross_thickness":1,"border":true,"border_thickness":2,"border_color":"transparent","canvas_width":1353,"canvas_height":761,"trial_type":"rdk","trial_index":92,"plugin_version":"2.0.0","time_elapsed":625810},{"rt":3250,"stimulus":"\n        <div class=\"response-container\">\n          <div class=\"response-instruction\">\n            <p>rotate the bar by using the left and right arrow keys.</p>\n            <p>when you are determined, press the Enter key.</p>\n          </div>\n          <div class=\"response-circle\">\n            <div class=\"response-fixation\"></div>\n            <div id=\"bar\" class=\"rotating-bar\"></div>\n          </div>\n        </div>\n      ","response":"Enter","trial_type":"html-keyboard-response","trial_index":93,"plugin_version":"2.1.0","time_elapsed":629060,"random_initial_angle":195,"response_angle_css":128,"response_angle_rdk":322,"angular_error_target":169,"angular_error_distractor":-58,"target_direction":153,"target_group":"white","reward_points":0},{"rt":null,"stimulus":"\n          <p style=\"color: #FF3333;\">Your reward: 0 points</p>\n        ","response":null,"trial_type":"html-keyboard-response","trial_index":94,"plugin_version":"2.1.0","time_elapsed":631062},{"rt":null,"stimulus":"<div class=\"fixation\" style=\"font-size: 60px;\">+</div>","response":null,"trial_type":"html-keyboard-response","trial_index":95,"plugin_version":"2.1.0","time_elapsed":632065},{"phase":"learning-awareness","target_group":"white","condition_label":"W_H_vs_B_L_rep12","target_direction":148,"distractor_direction":20,"session_rotation":109,"rt":-1,"response":"","correct":false,"choices":"ALL_KEYS","correct_choice":["a"],"trial_duration":2000,"flip_timestamps":[],"response_ends_trial":false,"number_of_apertures":200,"number_of_dots":[1,1,1,1,1,1,1,1,1,1,1,1,1,1,1,1,1,1,1,1,1,1,1,1,1,1,1,1,1,1,1,1,1,1,1,1,1,1,1,1,1,1,1,1,1,1,1,1,1,1,1,1,1,1,1,1,1,1,1,1,1,1,1,1,1,1,1,1,1,1,1,1,1,1,1,1,1,1,1,1,1,1,1,1,1,1,1,1,1,1,1,1,1,1,1,1,1,1,1,1,1,1,1,1,1,1,1,1,1,1,1,1,1,1,1,1,1,1,1,1,1,1,1,1,1,1,1,1,1,1,1,1,1,1,1,1,1,1,1,1,1,1,1,1,1,1,1,1,1,1,1,1,1,1,1,1,1,1,1,1,1,1,1,1,1,1,1,1,1,1,1,1,1,1,1,1,1,1,1,1,1,1,1,1,1,1,1,1,1,1,1,1,1,1,1,1,1,1,1,1],"number_of_sets":1,"coherent_direction":[20,148,20,20,148,20,20,20,20,20,20,148,20,148,148,20,148,20,148,20,148,148,20,20,20,20,20,148,148,20,148,148,148,148,148,20,148,148,20,20,148,148,20,148,20,20,20,20,20,20,20,148,148,148,20,148,148,20,148,20,148,148,148,20,148,148,20,20,148,20,20,20,20,148,20,148,148,20,148,20,148,20,20,20,148,20,148,20,20,20,20,20,148,20,20,148,148,148,148,148,20,20,20,148,148,148,20,148,20,20,20,148,148,20,148,148,148,148,148,148,20,20,20,20,148,20,148,148,20,148,20,148,20,20,148,20,148,148,20,20,148,20,148,148,148,20,148,20,20,148,148,148,20,148,148,20,148,148,20,20,148,148,148,148,20,20,20,148,148,20,20,148,148,148,148,20,20,148,20,148,148,148,20,148,148,20,20,20,148,148,20,148,148,148,20,20,148,20,20,20],"coherence":1,"opposite_coherence":0,"dot_radius":2,"dot_side_length":1,"dot_life":-1,"move_distance":1,"aperture_width":300,"aperture_height":300,"dot_color":["black","white","black","black","white","black","black","black","black","black","black","white","black","white","white","black","white","black","white","black","white","white","black","black","black","black","black","white","white","black","white","white","white","white","white","black","white","white","black","black","white","white","black","white","black","black","black","black","black","black","black","white","white","white","black","white","white","black","white","black","white","white","white","black","white","white","black","black","white","black","black","black","black","white","black","white","white","black","white","black","white","black","black","black","white","black","white","black","black","black","black","black","white","black","black","white","white","white","white","white","black","black","black","white","white","white","black","white","black","black","black","white","white","black","white","white","white","white","white","white","black","black","black","black","white","black","white","white","black","white","black","white","black","black","white","black","white","white","black","black","white","black","white","white","white","black","white","black","black","white","white","white","black","white","white","black","white","white","black","black","white","white","white","white","black","black","black","white","white","black","black","white","white","white","white","black","black","white","black","white","white","white","black","white","white","black","black","black","white","white","black","white","white","white","black","black","white","black","black","black"],"dot_shape":"circle","background_color":"#AAA","RDK_type":3,"aperture_type":2,"reinsert_type":2,"frame_rate":16.65,"frame_rate_array":[10,7,17,17,17,16,17,18,17,16,18,16,17,16,16,18,16,16,17,17,17,17,16,17,17,17,17,16,17,17,16,17,17,16,17,17,17,18,15,17,17,17,17,17,17,17,17,16,17,17,17,17,17,17,17,16,17,17,17,17,17,17,16,17,16,16,17,17,17,16,17,17,17,17,17,17,17,16,16,17,17,17,17,17,17,16,18,16,17,17,17,17,18,15,17,17,17,16,18,15,17,16,17,17,17,17,17,17,16,17,17,16,17,17,17,16,17,17,17,17],"number_of_frames":120,"aperture_center_x":676.5,"aperture_center_y":380.5,"fixation_cross":true,"fixation_cross_width":15,"fixation_cross_height":15,"fixation_cross_color":"#111","fixation_cross_thickness":1,"border":true,"border_thickness":2,"border_color":"transparent","canvas_width":1353,"canvas_height":761,"trial_type":"rdk","trial_index":96,"plugin_version":"2.0.0","time_elapsed":634072},{"rt":2862,"stimulus":"\n        <div class=\"response-container\">\n          <div class=\"response-instruction\">\n            <p>rotate the bar by using the left and right arrow keys.</p>\n            <p>when you are determined, press the Enter key.</p>\n          </div>\n          <div class=\"response-circle\">\n            <div class=\"response-fixation\"></div>\n            <div id=\"bar\" class=\"rotating-bar\"></div>\n          </div>\n        </div>\n      ","response":"Enter","trial_type":"html-keyboard-response","trial_index":97,"plugin_version":"2.1.0","time_elapsed":636936,"random_initial_angle":324,"response_angle_css":282,"response_angle_rdk":168,"angular_error_target":20,"angular_error_distractor":148,"target_direction":148,"target_group":"white","reward_points":6},{"rt":null,"stimulus":"\n          <p style=\"color: #00FF00;\">Your reward: 6 points</p>\n        ","response":null,"trial_type":"html-keyboard-response","trial_index":98,"plugin_version":"2.1.0","time_elapsed":638950},{"rt":null,"stimulus":"<div class=\"fixation\" style=\"font-size: 60px;\">+</div>","response":null,"trial_type":"html-keyboard-response","trial_index":99,"plugin_version":"2.1.0","time_elapsed":639961},{"phase":"learning-awareness","target_group":"white","condition_label":"W_H_vs_B_L_rep6","target_direction":142,"distractor_direction":19,"session_rotation":109,"rt":130,"response":"ArrowLeft","correct":false,"choices":"ALL_KEYS","correct_choice":["a"],"trial_duration":2000,"flip_timestamps":[],"response_ends_trial":false,"number_of_apertures":200,"number_of_dots":[1,1,1,1,1,1,1,1,1,1,1,1,1,1,1,1,1,1,1,1,1,1,1,1,1,1,1,1,1,1,1,1,1,1,1,1,1,1,1,1,1,1,1,1,1,1,1,1,1,1,1,1,1,1,1,1,1,1,1,1,1,1,1,1,1,1,1,1,1,1,1,1,1,1,1,1,1,1,1,1,1,1,1,1,1,1,1,1,1,1,1,1,1,1,1,1,1,1,1,1,1,1,1,1,1,1,1,1,1,1,1,1,1,1,1,1,1,1,1,1,1,1,1,1,1,1,1,1,1,1,1,1,1,1,1,1,1,1,1,1,1,1,1,1,1,1,1,1,1,1,1,1,1,1,1,1,1,1,1,1,1,1,1,1,1,1,1,1,1,1,1,1,1,1,1,1,1,1,1,1,1,1,1,1,1,1,1,1,1,1,1,1,1,1,1,1,1,1,1,1],"number_of_sets":1,"coherent_direction":[19,142,142,19,19,19,19,142,19,19,142,142,19,19,142,142,142,142,142,19,142,19,142,19,19,19,142,19,142,142,142,19,19,19,19,142,19,19,19,142,142,142,19,142,142,19,19,19,19,142,142,19,142,19,19,142,142,142,142,142,142,142,19,19,142,19,19,142,142,142,142,19,19,142,142,19,142,142,19,142,142,142,19,142,19,142,19,142,142,142,142,19,142,142,142,19,142,142,19,142,142,19,142,19,19,19,19,19,142,19,19,142,19,142,19,19,19,19,19,142,19,142,142,142,142,19,19,142,142,19,142,142,142,142,142,142,142,142,142,142,142,19,19,19,142,19,142,19,142,19,142,142,19,142,142,19,19,19,19,142,19,142,142,142,19,142,19,19,19,19,142,19,19,19,19,19,19,19,19,19,19,19,142,19,142,19,19,142,19,19,19,142,142,19,142,142,19,19,142,19],"coherence":1,"opposite_coherence":0,"dot_radius":2,"dot_side_length":1,"dot_life":-1,"move_distance":1,"aperture_width":300,"aperture_height":300,"dot_color":["black","white","white","black","black","black","black","white","black","black","white","white","black","black","white","white","white","white","white","black","white","black","white","black","black","black","white","black","white","white","white","black","black","black","black","white","black","black","black","white","white","white","black","white","white","black","black","black","black","white","white","black","white","black","black","white","white","white","white","white","white","white","black","black","white","black","black","white","white","white","white","black","black","white","white","black","white","white","black","white","white","white","black","white","black","white","black","white","white","white","white","black","white","white","white","black","white","white","black","white","white","black","white","black","black","black","black","black","white","black","black","white","black","white","black","black","black","black","black","white","black","white","white","white","white","black","black","white","white","black","white","white","white","white","white","white","white","white","white","white","white","black","black","black","white","black","white","black","white","black","white","white","black","white","white","black","black","black","black","white","black","white","white","white","black","white","black","black","black","black","white","black","black","black","black","black","black","black","black","black","black","black","white","black","white","black","black","white","black","black","black","white","white","black","white","white","black","black","white","black"],"dot_shape":"circle","background_color":"#AAA","RDK_type":3,"aperture_type":2,"reinsert_type":2,"frame_rate":16.636363636363637,"frame_rate_array":[6,14,18,16,16,17,16,17,17,17,17,17,16,17,17,18,17,17,17,17,16,17,18,17,15,17,16,16,18,17,16,18,17,16,17,17,16,17,15,17,17,18,16,17,16,17,17,16,18,18,16,17,17,17,17,16,17,17,16,16,17,18,17,16,17,16,17,18,17,16,16,17,16,17,16,17,17,17,16,16,17,17,17,16,17,15,19,15,17,17,17,16,17,18,16,17,16,17,16,17,17,17,17,17,16,16,17,17,17,16,16,17,17,17,16,17,16,17,17,16,19],"number_of_frames":121,"aperture_center_x":676.5,"aperture_center_y":380.5,"fixation_cross":true,"fixation_cross_width":15,"fixation_cross_height":15,"fixation_cross_color":"#111","fixation_cross_thickness":1,"border":true,"border_thickness":2,"border_color":"transparent","canvas_width":1353,"canvas_height":761,"trial_type":"rdk","trial_index":100,"plugin_version":"2.0.0","time_elapsed":641975},{"rt":3724,"stimulus":"\n        <div class=\"response-container\">\n          <div class=\"response-instruction\">\n            <p>rotate the bar by using the left and right arrow keys.</p>\n            <p>when you are determined, press the Enter key.</p>\n          </div>\n          <div class=\"response-circle\">\n            <div class=\"response-fixation\"></div>\n            <div id=\"bar\" class=\"rotating-bar\"></div>\n          </div>\n        </div>\n      ","response":"Enter","trial_type":"html-keyboard-response","trial_index":101,"plugin_version":"2.1.0","time_elapsed":645701,"random_initial_angle":128,"response_angle_css":91,"response_angle_rdk":359,"angular_error_target":-143,"angular_error_distractor":-20,"target_direction":142,"target_group":"white","reward_points":0},{"rt":null,"stimulus":"\n          <p style=\"color: #FF3333;\">Your reward: 0 points</p>\n        ","response":null,"trial_type":"html-keyboard-response","trial_index":102,"plugin_version":"2.1.0","time_elapsed":647709},{"rt":null,"stimulus":"<div class=\"fixation\" style=\"font-size: 60px;\">+</div>","response":null,"trial_type":"html-keyboard-response","trial_index":103,"plugin_version":"2.1.0","time_elapsed":648721},{"phase":"learning-awareness","target_group":"white","condition_label":"W_H_vs_B_L_rep8","target_direction":124,"distractor_direction":20,"session_rotation":109,"rt":-1,"response":"","correct":false,"choices":"ALL_KEYS","correct_choice":["a"],"trial_duration":2000,"flip_timestamps":[],"response_ends_trial":false,"number_of_apertures":200,"number_of_dots":[1,1,1,1,1,1,1,1,1,1,1,1,1,1,1,1,1,1,1,1,1,1,1,1,1,1,1,1,1,1,1,1,1,1,1,1,1,1,1,1,1,1,1,1,1,1,1,1,1,1,1,1,1,1,1,1,1,1,1,1,1,1,1,1,1,1,1,1,1,1,1,1,1,1,1,1,1,1,1,1,1,1,1,1,1,1,1,1,1,1,1,1,1,1,1,1,1,1,1,1,1,1,1,1,1,1,1,1,1,1,1,1,1,1,1,1,1,1,1,1,1,1,1,1,1,1,1,1,1,1,1,1,1,1,1,1,1,1,1,1,1,1,1,1,1,1,1,1,1,1,1,1,1,1,1,1,1,1,1,1,1,1,1,1,1,1,1,1,1,1,1,1,1,1,1,1,1,1,1,1,1,1,1,1,1,1,1,1,1,1,1,1,1,1,1,1,1,1,1,1],"number_of_sets":1,"coherent_direction":[20,124,20,20,20,20,124,124,124,20,20,124,20,124,124,20,20,124,20,124,124,20,20,20,20,124,20,20,124,124,124,124,20,124,20,20,124,20,20,124,124,20,124,20,20,20,124,124,124,124,20,124,20,124,20,20,124,124,20,20,20,20,20,20,20,20,124,124,124,124,124,20,124,124,124,20,20,20,124,124,20,20,124,20,124,124,124,20,124,20,20,124,20,124,20,124,20,20,124,20,124,124,124,20,20,124,124,20,124,124,124,20,124,124,124,20,20,20,20,20,124,124,124,124,20,20,20,20,124,20,20,20,20,20,20,20,20,124,124,124,124,20,20,20,124,20,124,20,20,124,124,20,124,20,20,124,20,124,124,124,20,20,20,124,124,20,124,124,124,124,124,124,20,124,20,124,124,20,124,20,20,20,124,124,20,124,124,124,124,20,124,124,20,20,20,124,124,124,20,124],"coherence":1,"opposite_coherence":0,"dot_radius":2,"dot_side_length":1,"dot_life":-1,"move_distance":1,"aperture_width":300,"aperture_height":300,"dot_color":["black","white","black","black","black","black","white","white","white","black","black","white","black","white","white","black","black","white","black","white","white","black","black","black","black","white","black","black","white","white","white","white","black","white","black","black","white","black","black","white","white","black","white","black","black","black","white","white","white","white","black","white","black","white","black","black","white","white","black","black","black","black","black","black","black","black","white","white","white","white","white","black","white","white","white","black","black","black","white","white","black","black","white","black","white","white","white","black","white","black","black","white","black","white","black","white","black","black","white","black","white","white","white","black","black","white","white","black","white","white","white","black","white","white","white","black","black","black","black","black","white","white","white","white","black","black","black","black","white","black","black","black","black","black","black","black","black","white","white","white","white","black","black","black","white","black","white","black","black","white","white","black","white","black","black","white","black","white","white","white","black","black","black","white","white","black","white","white","white","white","white","white","black","white","black","white","white","black","white","black","black","black","white","white","black","white","white","white","white","black","white","white","black","black","black","white","white","white","black","white"],"dot_shape":"circle","background_color":"#AAA","RDK_type":3,"aperture_type":2,"reinsert_type":2,"frame_rate":16.666666666666668,"frame_rate_array":[9,15,18,16,17,17,17,17,17,16,18,17,17,17,16,17,17,16,17,17,16,17,15,18,17,16,17,16,17,17,16,17,17,17,17,17,18,16,17,17,17,15,18,17,16,17,16,16,17,18,16,17,17,16,16,17,16,17,16,15,17,17,17,16,17,17,18,16,17,16,17,18,17,16,17,17,18,17,17,17,16,17,17,16,17,17,16,17,17,17,16,17,16,18,16,19,14,18,17,17,16,17,17,17,16,15,17,17,16,18,16,17,16,17,16,18,17,16,17,17],"number_of_frames":120,"aperture_center_x":676.5,"aperture_center_y":380.5,"fixation_cross":true,"fixation_cross_width":15,"fixation_cross_height":15,"fixation_cross_color":"#111","fixation_cross_thickness":1,"border":true,"border_thickness":2,"border_color":"transparent","canvas_width":1353,"canvas_height":761,"trial_type":"rdk","trial_index":104,"plugin_version":"2.0.0","time_elapsed":650734},{"rt":2875,"stimulus":"\n        <div class=\"response-container\">\n          <div class=\"response-instruction\">\n            <p>rotate the bar by using the left and right arrow keys.</p>\n            <p>when you are determined, press the Enter key.</p>\n          </div>\n          <div class=\"response-circle\">\n            <div class=\"response-fixation\"></div>\n            <div id=\"bar\" class=\"rotating-bar\"></div>\n          </div>\n        </div>\n      ","response":"Enter","trial_type":"html-keyboard-response","trial_index":105,"plugin_version":"2.1.0","time_elapsed":653611,"random_initial_angle":16,"response_angle_css":-57,"response_angle_rdk":147,"angular_error_target":23,"angular_error_distractor":127,"target_direction":124,"target_group":"white","reward_points":5},{"rt":null,"stimulus":"\n          <p style=\"color: #00FF00;\">Your reward: 5 points</p>\n        ","response":null,"trial_type":"html-keyboard-response","trial_index":106,"plugin_version":"2.1.0","time_elapsed":655620},{"