[{"rt":38638,"stimulus":"Welcome to the experiment. Press any key to begin.","response":"n","trial_type":"html-keyboard-response","trial_index":0,"plugin_version":"2.1.0","time_elapsed":38643},{"rt":58802,"stimulus":"\n        <div class=\"instructions-container\">\n          <h2>Instructions</h2>\n\n          <p>\n          In this experiment, you will see <strong>two Random Dot Kinematograms (RDKs)</strong> displayed simultaneously.\n          </p>\n\n          <p>\n          An RDK is a visual stimulus consisting of many small dots that move coherently in a single direction. \n          In this experiment, the dots will be either <strong>white</strong> or <strong>black</strong> \n          (see the short demo below for an example of an RDK stimulus).\n          </p>\n\n          <p>\n          On each trial, the two RDKs will move in different directions. \n          Your task is to decide <strong>which RDK appears to contain more dots</strong>.\n          </p>\n\n          <p>\n          The RDK that you judge to have more dots is called the <strong>target RDK</strong>. \n          For example, if the white RDK appears to have more dots than the black RDK, \n          you should report the motion direction of the white RDK.\n          </p>\n\n          <p>\n          After viewing the RDKs, you will rotate a bar to indicate the perceived direction of the target RDK \n          using the <strong>left</strong> and <strong>right arrow keys</strong>. \n          Press <strong>Enter</strong> when you are satisfied with your response.\n          When the bar is held down, the rotation speed increases.\n          </p>\n\n          <p>\n          You will receive points based on the <strong>accuracy of your response</strong>, \n          and your final <strong>bonus reward</strong> may depend on your overall performance. \n          Please try to respond as accurately as possible.\n          </p>\n\n          <p>\n          You will first complete <strong>16 practice trials</strong>. \n          Press the <strong>Enter</strong> key to start the practice phase.\n          </p>\n\n          <canvas id=\"instruction-demo-rdk\" width=\"200\" height=\"200\"style=\"display:block;margin:12px auto; border-radius: 50%;\"></canvas>\n        </div>\n      ","response":"Enter","trial_type":"html-keyboard-response","trial_index":1,"plugin_version":"2.1.0","time_elapsed":97450},{"rt":null,"stimulus":"<div class=\"fixation\" style=\"font-size: 60px;\">+</div>","response":null,"trial_type":"html-keyboard-response","trial_index":2,"plugin_version":"2.1.0","time_elapsed":98464},{"target_group":"white","target_index":0,"condition_label":"practice","rt":-1,"response":"","correct":false,"choices":"ALL_KEYS","correct_choice":["a"],"trial_duration":2000,"flip_timestamps":[],"response_ends_trial":false,"number_of_apertures":2,"number_of_dots":[100,77],"number_of_sets":1,"coherent_direction":[6,218],"coherence":1,"opposite_coherence":0,"dot_radius":2,"dot_side_length":1,"dot_life":-1,"move_distance":1,"aperture_width":300,"aperture_height":300,"dot_color":["white","black"],"dot_shape":"circle","background_color":"#AAA","RDK_type":3,"aperture_type":2,"reinsert_type":2,"frame_rate":17.443478260869565,"frame_rate_array":[5,12,106,17,14,15,16,17,17,17,17,16,17,17,17,17,19,15,17,16,17,17,17,17,17,18,15,17,18,16,17,20,17,19,14,15,18,16,17,16,17,16,17,17,17,17,17,17,17,17,17,17,17,17,17,17,17,17,17,17,17,17,17,17,17,17,17,17,17,16,17,17,17,17,17,17,16,17,18,16,17,17,16,17,17,17,17,17,17,17,17,20,16,21,15,18,10,17,16,18,16,16,16,17,17,17,17,17,17,17,18,17,15,16,17],"number_of_frames":115,"aperture_center_x":698,"aperture_center_y":392.5,"fixation_cross":true,"fixation_cross_width":15,"fixation_cross_height":15,"fixation_cross_color":"#111","fixation_cross_thickness":1,"border":true,"border_thickness":2,"border_color":"transparent","canvas_width":1396,"canvas_height":785,"trial_type":"rdk","trial_index":3,"plugin_version":"2.0.0","time_elapsed":100469,"phase":"practice","target_direction":6,"distractor_direction":218},{"rt":35963,"stimulus":"\n        <div class=\"response-container\">\n          <div class=\"response-instruction\">\n            <p>rotate the bar by using the left and right arrow keys.</p>\n            <p>when you are determined, press the Enter key.</p>\n          </div>\n          <div class=\"response-circle\">\n            <div class=\"response-fixation\"></div>\n            <div id=\"bar\" class=\"rotating-bar\"></div>\n          </div>\n        </div>\n      ","response":"Enter","trial_type":"html-keyboard-response","trial_index":4,"plugin_version":"2.1.0","time_elapsed":136433,"random_initial_angle":210,"response_angle_css":457,"response_angle_rdk":353,"angular_error_target":-13,"angular_error_distractor":135,"target_direction":6,"target_group":"white","reward_points":7},{"rt":null,"stimulus":"\n          <p style=\"color: #00FF00;\">Your reward: 7 points</p>\n        ","response":null,"trial_type":"html-keyboard-response","trial_index":5,"plugin_version":"2.1.0","time_elapsed":138437},{"rt":null,"stimulus":"<div class=\"fixation\" style=\"font-size: 60px;\">+</div>","response":null,"trial_type":"html-keyboard-response","trial_index":6,"plugin_version":"2.1.0","time_elapsed":139444},{"target_group":"black","target_index":1,"condition_label":"practice","rt":-1,"response":"","correct":false,"choices":"ALL_KEYS","correct_choice":["a"],"trial_duration":2000,"flip_timestamps":[],"response_ends_trial":false,"number_of_apertures":2,"number_of_dots":[87,100],"number_of_sets":1,"coherent_direction":[83,249],"coherence":1,"opposite_coherence":0,"dot_radius":2,"dot_side_length":1,"dot_life":-1,"move_distance":1,"aperture_width":300,"aperture_height":300,"dot_color":["white","black"],"dot_shape":"circle","background_color":"#AAA","RDK_type":3,"aperture_type":2,"reinsert_type":2,"frame_rate":16.675,"frame_rate_array":[17,11,12,17,17,17,19,20,13,16,20,13,18,18,16,17,20,11,16,16,17,16,17,16,17,18,18,17,17,17,15,16,16,17,18,19,14,19,18,13,17,16,17,17,17,16,17,17,18,17,16,17,17,17,18,17,17,16,15,16,17,17,19,16,18,16,19,14,17,16,17,17,17,17,17,16,19,16,18,15,16,17,17,16,17,17,17,16,18,16,17,17,17,16,17,17,16,17,16,17,17,17,17,19,15,17,16,18,15,17,18,17,17,17,17,15,16,16,17,17],"number_of_frames":120,"aperture_center_x":698,"aperture_center_y":392.5,"fixation_cross":true,"fixation_cross_width":15,"fixation_cross_height":15,"fixation_cross_color":"#111","fixation_cross_thickness":1,"border":true,"border_thickness":2,"border_color":"transparent","canvas_width":1396,"canvas_height":785,"trial_type":"rdk","trial_index":7,"plugin_version":"2.0.0","time_elapsed":141455,"phase":"practice","target_direction":249,"distractor_direction":83},{"rt":1820,"stimulus":"\n        <div class=\"response-container\">\n          <div class=\"response-instruction\">\n            <p>rotate the bar by using the left and right arrow keys.</p>\n            <p>when you are determined, press the Enter key.</p>\n          </div>\n          <div class=\"response-circle\">\n            <div class=\"response-fixation\"></div>\n            <div id=\"bar\" class=\"rotating-bar\"></div>\n          </div>\n        </div>\n      ","response":"Enter","trial_type":"html-keyboard-response","trial_index":8,"plugin_version":"2.1.0","time_elapsed":143281,"random_initial_angle":203,"response_angle_css":203,"response_angle_rdk":247,"angular_error_target":-2,"angular_error_distractor":164,"target_direction":249,"target_group":"black","reward_points":9},{"rt":null,"stimulus":"\n          <p style=\"color: #00FF00;\">Your reward: 9 points</p>\n        ","response":null,"trial_type":"html-keyboard-response","trial_index":9,"plugin_version":"2.1.0","time_elapsed":145289},{"rt":null,"stimulus":"<div class=\"fixation\" style=\"font-size: 60px;\">+</div>","response":null,"trial_type":"html-keyboard-response","trial_index":10,"plugin_version":"2.1.0","time_elapsed":146294},{"target_group":"black","target_index":1,"condition_label":"practice","rt":-1,"response":"","correct":false,"choices":"ALL_KEYS","correct_choice":["a"],"trial_duration":2000,"flip_timestamps":[],"response_ends_trial":false,"number_of_apertures":2,"number_of_dots":[84,100],"number_of_sets":1,"coherent_direction":[35,202],"coherence":1,"opposite_coherence":0,"dot_radius":2,"dot_side_length":1,"dot_life":-1,"move_distance":1,"aperture_width":300,"aperture_height":300,"dot_color":["white","black"],"dot_shape":"circle","background_color":"#AAA","RDK_type":3,"aperture_type":2,"reinsert_type":2,"frame_rate":16.633333333333333,"frame_rate_array":[10,18,20,12,17,18,17,16,16,20,18,13,17,18,19,13,21,14,20,12,17,17,18,16,19,13,16,17,17,17,17,15,17,16,19,14,17,18,16,17,17,17,17,16,20,14,16,18,16,15,17,18,17,15,17,20,16,14,18,19,13,16,16,19,16,16,16,18,16,15,17,18,17,14,17,19,16,15,19,15,22,11,19,14,19,14,17,18,18,14,17,17,18,18,16,17,17,15,17,17,19,15,16,19,16,18,19,12,15,19,17,15,20,13,19,18,16,14,16,18],"number_of_frames":120,"aperture_center_x":698,"aperture_center_y":392.5,"fixation_cross":true,"fixation_cross_width":15,"fixation_cross_height":15,"fixation_cross_color":"#111","fixation_cross_thickness":1,"border":true,"border_thickness":2,"border_color":"transparent","canvas_width":1396,"canvas_height":785,"trial_type":"rdk","trial_index":11,"plugin_version":"2.0.0","time_elapsed":148298,"phase":"practice","target_direction":202,"distractor_direction":35},{"rt":5425,"stimulus":"\n        <div class=\"response-container\">\n          <div class=\"response-instruction\">\n            <p>rotate the bar by using the left and right arrow keys.</p>\n            <p>when you are determined, press the Enter key.</p>\n          </div>\n          <div class=\"response-circle\">\n            <div class=\"response-fixation\"></div>\n            <div id=\"bar\" class=\"rotating-bar\"></div>\n          </div>\n        </div>\n      ","response":"Enter","trial_type":"html-keyboard-response","trial_index":12,"plugin_version":"2.1.0","time_elapsed":153724,"random_initial_angle":294,"response_angle_css":267,"response_angle_rdk":183,"angular_error_target":-19,"angular_error_distractor":148,"target_direction":202,"target_group":"black","reward_points":6},{"rt":null,"stimulus":"\n          <p style=\"color: #00FF00;\">Your reward: 6 points</p>\n        ","response":null,"trial_type":"html-keyboard-response","trial_index":13,"plugin_version":"2.1.0","time_elapsed":155743},{"rt":null,"stimulus":"<div class=\"fixation\" style=\"font-size: 60px;\">+</div>","response":null,"trial_type":"html-keyboard-response","trial_index":14,"plugin_version":"2.1.0","time_elapsed":156748},{"target_group":"white","target_index":0,"condition_label":"practice","rt":-1,"response":"","correct":false,"choices":"ALL_KEYS","correct_choice":["a"],"trial_duration":2000,"flip_timestamps":[],"response_ends_trial":false,"number_of_apertures":2,"number_of_dots":[100,61],"number_of_sets":1,"coherent_direction":[283,42],"coherence":1,"opposite_coherence":0,"dot_radius":2,"dot_side_length":1,"dot_life":-1,"move_distance":1,"aperture_width":300,"aperture_height":300,"dot_color":["white","black"],"dot_shape":"circle","background_color":"#AAA","RDK_type":3,"aperture_type":2,"reinsert_type":2,"frame_rate":16.66115702479339,"frame_rate_array":[19,9,14,20,15,16,18,16,18,14,16,16,17,16,17,17,17,17,19,17,15,18,13,17,17,17,17,17,17,16,18,17,20,13,19,14,16,17,17,17,17,16,18,16,19,16,16,16,16,16,17,17,16,19,17,16,19,15,16,16,17,19,14,17,16,18,15,17,17,17,16,17,17,17,16,17,17,17,18,23,14,12,16,17,17,18,17,15,17,17,18,16,18,18,15,17,17,16,16,16,17,17,17,16,17,17,17,16,17,17,17,17,17,16,17,17,17,17,17,16,17],"number_of_frames":121,"aperture_center_x":698,"aperture_center_y":392.5,"fixation_cross":true,"fixation_cross_width":15,"fixation_cross_height":15,"fixation_cross_color":"#111","fixation_cross_thickness":1,"border":true,"border_thickness":2,"border_color":"transparent","canvas_width":1396,"canvas_height":785,"trial_type":"rdk","trial_index":15,"plugin_version":"2.0.0","time_elapsed":158760,"phase":"practice","target_direction":283,"distractor_direction":42},{"rt":5417,"stimulus":"\n        <div class=\"response-container\">\n          <div class=\"response-instruction\">\n            <p>rotate the bar by using the left and right arrow keys.</p>\n            <p>when you are determined, press the Enter key.</p>\n          </div>\n          <div class=\"response-circle\">\n            <div class=\"response-fixation\"></div>\n            <div id=\"bar\" class=\"rotating-bar\"></div>\n          </div>\n        </div>\n      ","response":"Enter","trial_type":"html-keyboard-response","trial_index":16,"plugin_version":"2.1.0","time_elapsed":164178,"random_initial_angle":181,"response_angle_css":394,"response_angle_rdk":56,"angular_error_target":133,"angular_error_distractor":14,"target_direction":283,"target_group":"white","reward_points":0},{"rt":null,"stimulus":"\n          <p style=\"color: #FF3333;\">Your reward: 0 points</p>\n        ","response":null,"trial_type":"html-keyboard-response","trial_index":17,"plugin_version":"2.1.0","time_elapsed":166192},{"rt":null,"stimulus":"<div class=\"fixation\" style=\"font-size: 60px;\">+</div>","response":null,"trial_type":"html-keyboard-response","trial_index":18,"plugin_version":"2.1.0","time_elapsed":167197},{"target_group":"white","target_index":0,"condition_label":"practice","rt":-1,"response":"","correct":false,"choices":"ALL_KEYS","correct_choice":["a"],"trial_duration":2000,"flip_timestamps":[],"response_ends_trial":false,"number_of_apertures":2,"number_of_dots":[100,94],"number_of_sets":1,"coherent_direction":[160,305],"coherence":1,"opposite_coherence":0,"dot_radius":2,"dot_side_length":1,"dot_life":-1,"move_distance":1,"aperture_width":300,"aperture_height":300,"dot_color":["white","black"],"dot_shape":"circle","background_color":"#AAA","RDK_type":3,"aperture_type":2,"reinsert_type":2,"frame_rate":16.694214876033058,"frame_rate_array":[8,17,17,18,16,17,18,16,17,16,17,17,17,16,17,17,16,17,16,17,19,17,16,17,17,16,16,17,16,17,17,17,17,17,17,16,18,17,17,17,17,17,16,18,15,17,17,16,17,16,16,16,16,18,17,17,17,15,17,17,17,17,17,17,17,15,17,16,17,17,17,17,17,17,17,17,17,17,17,16,16,16,17,17,17,17,17,17,17,17,16,17,16,16,16,17,17,17,17,17,18,15,16,17,17,17,17,17,17,16,17,17,19,15,17,17,17,17,16,17,17],"number_of_frames":121,"aperture_center_x":698,"aperture_center_y":392.5,"fixation_cross":true,"fixation_cross_width":15,"fixation_cross_height":15,"fixation_cross_color":"#111","fixation_cross_thickness":1,"border":true,"border_thickness":2,"border_color":"transparent","canvas_width":1396,"canvas_height":785,"trial_type":"rdk","trial_index":19,"plugin_version":"2.0.0","time_elapsed":169212,"phase":"practice","target_direction":160,"distractor_direction":305},{"rt":5214,"stimulus":"\n        <div class=\"response-container\">\n          <div class=\"response-instruction\">\n            <p>rotate the bar by using the left and right arrow keys.</p>\n            <p>when you are determined, press the Enter key.</p>\n          </div>\n          <div class=\"response-circle\">\n            <div class=\"response-fixation\"></div>\n            <div id=\"bar\" class=\"rotating-bar\"></div>\n          </div>\n        </div>\n      ","response":"Enter","trial_type":"html-keyboard-response","trial_index":20,"plugin_version":"2.1.0","time_elapsed":174427,"random_initial_angle":283,"response_angle_css":480,"response_angle_rdk":330,"angular_error_target":170,"angular_error_distractor":25,"target_direction":160,"target_group":"white","reward_points":0},{"rt":null,"stimulus":"\n          <p style=\"color: #FF3333;\">Your reward: 0 points</p>\n        ","response":null,"trial_type":"html-keyboard-response","trial_index":21,"plugin_version":"2.1.0","time_elapsed":176440},{"rt":null,"stimulus":"<div class=\"fixation\" style=\"font-size: 60px;\">+</div>","response":null,"trial_type":"html-keyboard-response","trial_index":22,"plugin_version":"2.1.0","time_elapsed":177448},{"target_group":"white","target_index":0,"condition_label":"practice","rt":-1,"response":"","correct":false,"choices":"ALL_KEYS","correct_choice":["a"],"trial_duration":2000,"flip_timestamps":[],"response_ends_trial":false,"number_of_apertures":2,"number_of_dots":[100,97],"number_of_sets":1,"coherent_direction":[289,137],"coherence":1,"opposite_coherence":0,"dot_radius":2,"dot_side_length":1,"dot_life":-1,"move_distance":1,"aperture_width":300,"aperture_height":300,"dot_color":["white","black"],"dot_shape":"circle","background_color":"#AAA","RDK_type":3,"aperture_type":2,"reinsert_type":2,"frame_rate":16.793388429752067,"frame_rate_array":[12,16,17,20,15,16,17,15,18,16,18,17,25,6,18,17,17,17,17,18,17,15,17,19,18,14,17,18,16,17,16,17,17,16,17,17,18,20,16,18,13,15,17,18,17,15,17,18,18,17,15,18,15,19,17,20,13,18,17,16,17,16,19,15,18,16,18,15,17,17,18,16,17,17,19,15,16,16,20,15,16,16,18,16,18,20,14,14,18,16,17,18,15,17,18,19,13,30,9,22,6,17,16,17,16,17,17,17,17,17,16,17,17,17,17,17,17,17,17,17,20],"number_of_frames":121,"aperture_center_x":698,"aperture_center_y":392.5,"fixation_cross":true,"fixation_cross_width":15,"fixation_cross_height":15,"fixation_cross_color":"#111","fixation_cross_thickness":1,"border":true,"border_thickness":2,"border_color":"transparent","canvas_width":1396,"canvas_height":785,"trial_type":"rdk","trial_index":23,"plugin_version":"2.0.0","time_elapsed":179465,"phase":"practice","target_direction":289,"distractor_direction":137},{"rt":3931,"stimulus":"\n        <div class=\"response-container\">\n          <div class=\"response-instruction\">\n            <p>rotate the bar by using the left and right arrow keys.</p>\n            <p>when you are determined, press the Enter key.</p>\n          </div>\n          <div class=\"response-circle\">\n            <div class=\"response-fixation\"></div>\n            <div id=\"bar\" class=\"rotating-bar\"></div>\n          </div>\n        </div>\n      ","response":"Enter","trial_type":"html-keyboard-response","trial_index":24,"plugin_version":"2.1.0","time_elapsed":183397,"random_initial_angle":237,"response_angle_css":295,"response_angle_rdk":155,"angular_error_target":-134,"angular_error_distractor":18,"target_direction":289,"target_group":"white","reward_points":0},{"rt":null,"stimulus":"\n          <p style=\"color: #FF3333;\">Your reward: 0 points</p>\n        ","response":null,"trial_type":"html-keyboard-response","trial_index":25,"plugin_version":"2.1.0","time_elapsed":185402},{"rt":null,"stimulus":"<div class=\"fixation\" style=\"font-size: 60px;\">+</div>","response":null,"trial_type":"html-keyboard-response","trial_index":26,"plugin_version":"2.1.0","time_elapsed":186412},{"target_group":"white","target_index":0,"condition_label":"practice","rt":-1,"response":"","correct":false,"choices":"ALL_KEYS","correct_choice":["a"],"trial_duration":2000,"flip_timestamps":[],"response_ends_trial":false,"number_of_apertures":2,"number_of_dots":[100,88],"number_of_sets":1,"coherent_direction":[145,330],"coherence":1,"opposite_coherence":0,"dot_radius":2,"dot_side_length":1,"dot_life":-1,"move_distance":1,"aperture_width":300,"aperture_height":300,"dot_color":["white","black"],"dot_shape":"circle","background_color":"#AAA","RDK_type":3,"aperture_type":2,"reinsert_type":2,"frame_rate":16.65289256198347,"frame_rate_array":[20,10,14,13,19,14,18,17,17,15,17,17,18,17,14,21,18,13,16,18,16,15,17,19,16,16,16,18,16,17,17,20,17,16,16,22,11,17,17,34,3,11,16,19,16,16,17,18,17,16,17,20,14,16,15,19,17,15,17,21,16,14,17,21,16,14,18,17,14,15,16,18,17,16,16,18,18,17,16,21,17,14,14,18,17,16,15,19,16,16,17,18,17,16,16,20,15,16,18,20,11,21,17,12,17,18,17,16,17,18,16,15,17,17,18,14,17,19,16,16,17],"number_of_frames":121,"aperture_center_x":698,"aperture_center_y":392.5,"fixation_cross":true,"fixation_cross_width":15,"fixation_cross_height":15,"fixation_cross_color":"#111","fixation_cross_thickness":1,"border":true,"border_thickness":2,"border_color":"transparent","canvas_width":1396,"canvas_height":785,"trial_type":"rdk","trial_index":27,"plugin_version":"2.0.0","time_elapsed":188431,"phase":"practice","target_direction":145,"distractor_direction":330},{"rt":7428,"stimulus":"\n        <div class=\"response-container\">\n          <div class=\"response-instruction\">\n            <p>rotate the bar by using the left and right arrow keys.</p>\n            <p>when you are determined, press the Enter key.</p>\n          </div>\n          <div class=\"response-circle\">\n            <div class=\"response-fixation\"></div>\n            <div id=\"bar\" class=\"rotating-bar\"></div>\n          </div>\n        </div>\n      ","response":"Enter","trial_type":"html-keyboard-response","trial_index":28,"plugin_version":"2.1.0","time_elapsed":195862,"random_initial_angle":287,"response_angle_css":448,"response_angle_rdk":2,"angular_error_target":-143,"angular_error_distractor":32,"target_direction":145,"target_group":"white","reward_points":0},{"rt":null,"stimulus":"\n          <p style=\"color: #FF3333;\">Your reward: 0 points</p>\n        ","response":null,"trial_type":"html-keyboard-response","trial_index":29,"plugin_version":"2.1.0","time_elapsed":197875},{"rt":null,"stimulus":"<div class=\"fixation\" style=\"font-size: 60px;\">+</div>","response":null,"trial_type":"html-keyboard-response","trial_index":30,"plugin_version":"2.1.0","time_elapsed":198882},{"target_group":"black","target_index":1,"condition_label":"practice","rt":-1,"response":"","correct":false,"choices":"ALL_KEYS","correct_choice":["a"],"trial_duration":2000,"flip_timestamps":[],"response_ends_trial":false,"number_of_apertures":2,"number_of_dots":[77,100],"number_of_sets":1,"coherent_direction":[133,332],"coherence":1,"opposite_coherence":0,"dot_radius":2,"dot_side_length":1,"dot_life":-1,"move_distance":1,"aperture_width":300,"aperture_height":300,"dot_color":["white","black"],"dot_shape":"circle","background_color":"#AAA","RDK_type":3,"aperture_type":2,"reinsert_type":2,"frame_rate":16.683333333333334,"frame_rate_array":[10,16,17,17,17,17,17,17,17,17,17,18,17,16,17,16,17,17,17,19,15,17,17,17,17,16,17,16,16,16,17,17,17,17,18,15,17,17,17,16,17,16,16,18,17,17,17,16,17,16,17,16,16,17,17,17,16,17,17,17,17,17,18,17,16,17,16,16,17,16,16,16,18,17,15,17,17,17,17,17,17,16,19,14,17,19,14,16,18,16,17,17,17,17,17,17,15,17,17,17,17,17,17,16,16,17,16,16,17,18,16,17,18,17,16,16,17,17,17,17],"number_of_frames":120,"aperture_center_x":698,"aperture_center_y":392.5,"fixation_cross":true,"fixation_cross_width":15,"fixation_cross_height":15,"fixation_cross_color":"#111","fixation_cross_thickness":1,"border":true,"border_thickness":2,"border_color":"transparent","canvas_width":1396,"canvas_height":785,"trial_type":"rdk","trial_index":31,"plugin_version":"2.0.0","time_elapsed":200888,"phase":"practice","target_direction":332,"distractor_direction":133},{"rt":5789,"stimulus":"\n        <div class=\"response-container\">\n          <div class=\"response-instruction\">\n            <p>rotate the bar by using the left and right arrow keys.</p>\n            <p>when you are determined, press the Enter key.</p>\n          </div>\n          <div class=\"response-circle\">\n            <div class=\"response-fixation\"></div>\n            <div id=\"bar\" class=\"rotating-bar\"></div>\n          </div>\n        </div>\n      ","response":"Enter","trial_type":"html-keyboard-response","trial_index":32,"plugin_version":"2.1.0","time_elapsed":206678,"random_initial_angle":123,"response_angle_css":-75,"response_angle_rdk":165,"angular_error_target":-167,"angular_error_distractor":32,"target_direction":332,"target_group":"black","reward_points":0},{"rt":null,"stimulus":"\n          <p style=\"color: #FF3333;\">Your reward: 0 points</p>\n        ","response":null,"trial_type":"html-keyboard-response","trial_index":33,"plugin_version":"2.1.0","time_elapsed":208687},{"rt":null,"stimulus":"<div class=\"fixation\" style=\"font-size: 60px;\">+</div>","response":null,"trial_type":"html-keyboard-response","trial_index":34,"plugin_version":"2.1.0","time_elapsed":209696},{"target_group":"black","target_index":1,"condition_label":"practice","rt":-1,"response":"","correct":false,"choices":"ALL_KEYS","correct_choice":["a"],"trial_duration":2000,"flip_timestamps":[],"response_ends_trial":false,"number_of_apertures":2,"number_of_dots":[95,100],"number_of_sets":1,"coherent_direction":[173,4],"coherence":1,"opposite_coherence":0,"dot_radius":2,"dot_side_length":1,"dot_life":-1,"move_distance":1,"aperture_width":300,"aperture_height":300,"dot_color":["white","black"],"dot_shape":"circle","background_color":"#AAA","RDK_type":3,"aperture_type":2,"reinsert_type":2,"frame_rate":16.7,"frame_rate_array":[14,14,17,17,17,17,16,17,16,16,17,17,17,17,17,17,16,17,17,17,16,18,16,19,16,15,18,17,17,16,17,17,18,15,17,17,17,16,17,16,16,16,17,17,17,17,17,17,17,16,17,17,16,17,17,17,17,17,17,16,15,16,17,17,17,17,17,17,17,17,17,17,17,17,16,17,17,16,17,18,16,17,16,20,13,16,17,17,17,19,20,14,17,16,19,14,18,17,17,15,18,17,15,18,16,17,15,17,15,18,17,25,11,14,17,18,17,14,17,17],"number_of_frames":120,"aperture_center_x":698,"aperture_center_y":392.5,"fixation_cross":true,"fixation_cross_width":15,"fixation_cross_height":15,"fixation_cross_color":"#111","fixation_cross_thickness":1,"border":true,"border_thickness":2,"border_color":"transparent","canvas_width":1396,"canvas_height":785,"trial_type":"rdk","trial_index":35,"plugin_version":"2.0.0","time_elapsed":211702,"phase":"practice","target_direction":4,"distractor_direction":173},{"rt":3443,"stimulus":"\n        <div class=\"response-container\">\n          <div class=\"response-instruction\">\n            <p>rotate the bar by using the left and right arrow keys.</p>\n            <p>when you are determined, press the Enter key.</p>\n          </div>\n          <div class=\"response-circle\">\n            <div class=\"response-fixation\"></div>\n            <div id=\"bar\" class=\"rotating-bar\"></div>\n          </div>\n        </div>\n      ","response":"Enter","trial_type":"html-keyboard-response","trial_index":36,"plugin_version":"2.1.0","time_elapsed":215145,"random_initial_angle":319,"response_angle_css":262,"response_angle_rdk":188,"angular_error_target":-176,"angular_error_distractor":15,"target_direction":4,"target_group":"black","reward_points":0},{"rt":null,"stimulus":"\n          <p style=\"color: #FF3333;\">Your reward: 0 points</p>\n        ","response":null,"trial_type":"html-keyboard-response","trial_index":37,"plugin_version":"2.1.0","time_elapsed":217148},{"rt":null,"stimulus":"<div class=\"fixation\" style=\"font-size: 60px;\">+</div>","response":null,"trial_type":"html-keyboard-response","trial_index":38,"plugin_version":"2.1.0","time_elapsed":218158},{"target_group":"black","target_index":1,"condition_label":"practice","rt":-1,"response":"","correct":false,"choices":"ALL_KEYS","correct_choice":["a"],"trial_duration":2000,"flip_timestamps":[],"response_ends_trial":false,"number_of_apertures":2,"number_of_dots":[97,100],"number_of_sets":1,"coherent_direction":[73,236],"coherence":1,"opposite_coherence":0,"dot_radius":2,"dot_side_length":1,"dot_life":-1,"move_distance":1,"aperture_width":300,"aperture_height":300,"dot_color":["white","black"],"dot_shape":"circle","background_color":"#AAA","RDK_type":3,"aperture_type":2,"reinsert_type":2,"frame_rate":16.68595041322314,"frame_rate_array":[7,11,18,17,17,18,17,17,16,17,17,17,16,17,17,17,17,16,18,15,15,17,17,18,18,18,16,17,17,16,16,16,17,17,17,17,17,18,15,17,18,18,16,17,18,14,15,17,17,17,17,17,17,17,17,17,23,13,14,17,17,16,19,16,18,17,17,16,17,17,16,17,17,17,15,15,17,17,17,17,17,17,18,17,17,16,17,17,17,15,16,16,17,17,17,19,14,16,16,17,17,17,17,18,16,17,18,18,17,17,17,17,16,17,16,23,24,2,19,14,20],"number_of_frames":121,"aperture_center_x":698,"aperture_center_y":392.5,"fixation_cross":true,"fixation_cross_width":15,"fixation_cross_height":15,"fixation_cross_color":"#111","fixation_cross_thickness":1,"border":true,"border_thickness":2,"border_color":"transparent","canvas_width":1396,"canvas_height":785,"trial_type":"rdk","trial_index":39,"plugin_version":"2.0.0","time_elapsed":220167,"phase":"practice","target_direction":236,"distractor_direction":73},{"rt":1496,"stimulus":"\n        <div class=\"response-container\">\n          <div class=\"response-instruction\">\n            <p>rotate the bar by using the left and right arrow keys.</p>\n            <p>when you are determined, press the Enter key.</p>\n          </div>\n          <div class=\"response-circle\">\n            <div class=\"response-fixation\"></div>\n            <div id=\"bar\" class=\"rotating-bar\"></div>\n          </div>\n        </div>\n      ","response":"Enter","trial_type":"html-keyboard-response","trial_index":40,"plugin_version":"2.1.0","time_elapsed":221665,"random_initial_angle":48,"response_angle_css":48,"response_angle_rdk":42,"angular_error_target":166,"angular_error_distractor":-31,"target_direction":236,"target_group":"black","reward_points":0},{"rt":null,"stimulus":"\n          <p style=\"color: #FF3333;\">Your reward: 0 points</p>\n        ","response":null,"trial_type":"html-keyboard-response","trial_index":41,"plugin_version":"2.1.0","time_elapsed":223681},{"rt":null,"stimulus":"<div class=\"fixation\" style=\"font-size: 60px;\">+</div>","response":null,"trial_type":"html-keyboard-response","trial_index":42,"plugin_version":"2.1.0","time_elapsed":224691},{"target_group":"black","target_index":1,"condition_label":"practice","rt":-1,"response":"","correct":false,"choices":"ALL_KEYS","correct_choice":["a"],"trial_duration":2000,"flip_timestamps":[],"response_ends_trial":false,"number_of_apertures":2,"number_of_dots":[70,100],"number_of_sets":1,"coherent_direction":[197,11],"coherence":1,"opposite_coherence":0,"dot_radius":2,"dot_side_length":1,"dot_life":-1,"move_distance":1,"aperture_width":300,"aperture_height":300,"dot_color":["white","black"],"dot_shape":"circle","background_color":"#AAA","RDK_type":3,"aperture_type":2,"reinsert_type":2,"frame_rate":16.68595041322314,"frame_rate_array":[5,14,17,17,17,17,17,17,17,17,17,17,17,19,15,17,17,17,17,16,17,19,18,18,18,14,15,19,13,17,17,17,17,17,18,18,15,17,18,18,15,17,16,16,16,16,17,18,18,17,17,17,16,16,15,17,17,19,17,16,18,16,17,16,15,17,17,18,17,18,17,16,18,17,17,17,16,15,16,17,17,17,17,17,20,14,17,17,15,17,16,18,16,17,18,17,18,16,17,16,17,17,17,16,15,16,17,17,18,17,17,17,16,15,16,17,17,17,17,17,17],"number_of_frames":121,"aperture_center_x":698,"aperture_center_y":392.5,"fixation_cross":true,"fixation_cross_width":15,"fixation_cross_height":15,"fixation_cross_color":"#111","fixation_cross_thickness":1,"border":true,"border_thickness":2,"border_color":"transparent","canvas_width":1396,"canvas_height":785,"trial_type":"rdk","trial_index":43,"plugin_version":"2.0.0","time_elapsed":226697,"phase":"practice","target_direction":11,"distractor_direction":197},{"rt":20874,"stimulus":"\n        <div class=\"response-container\">\n          <div class=\"response-instruction\">\n            <p>rotate the bar by using the left and right arrow keys.</p>\n            <p>when you are determined, press the Enter key.</p>\n          </div>\n          <div class=\"response-circle\">\n            <div class=\"response-fixation\"></div>\n            <div id=\"bar\" class=\"rotating-bar\"></div>\n          </div>\n        </div>\n      ","response":"Enter","trial_type":"html-keyboard-response","trial_index":44,"plugin_version":"2.1.0","time_elapsed":247572,"random_initial_angle":307,"response_angle_css":307,"response_angle_rdk":143,"angular_error_target":132,"angular_error_distractor":-54,"target_direction":11,"target_group":"black","reward_points":0},{"rt":null,"stimulus":"\n          <p style=\"color: #FF3333;\">Your reward: 0 points</p>\n        ","response":null,"trial_type":"html-keyboard-response","trial_index":45,"plugin_version":"2.1.0","time_elapsed":249578},{"rt":null,"stimulus":"<div class=\"fixation\" style=\"font-size: 60px;\">+</div>","response":null,"trial_type":"html-keyboard-response","trial_index":46,"plugin_version":"2.1.0","time_elapsed":250590},{"target_group":"white","target_index":0,"condition_label":"practice","rt":-1,"response":"","correct":false,"choices":"ALL_KEYS","correct_choice":["a"],"trial_duration":2000,"flip_timestamps":[],"response_ends_trial":false,"number_of_apertures":2,"number_of_dots":[100,96],"number_of_sets":1,"coherent_direction":[73,205],"coherence":1,"opposite_coherence":0,"dot_radius":2,"dot_side_length":1,"dot_life":-1,"move_distance":1,"aperture_width":300,"aperture_height":300,"dot_color":["white","black"],"dot_shape":"circle","background_color":"#AAA","RDK_type":3,"aperture_type":2,"reinsert_type":2,"frame_rate":16.727272727272727,"frame_rate_array":[14,10,14,16,18,18,16,19,16,17,17,16,17,15,16,17,17,17,17,17,17,17,17,16,18,17,16,16,16,16,18,17,15,17,17,17,18,18,18,15,18,16,17,17,14,15,16,17,17,17,17,18,17,17,18,16,16,17,18,15,18,17,17,17,17,17,17,15,18,15,16,17,17,17,17,17,17,17,17,17,17,17,17,17,17,17,17,17,17,17,18,15,17,17,17,17,17,17,17,17,17,17,30,8,13,19,18,15,18,16,17,14,15,17,17,17,18,16,16,17,20],"number_of_frames":121,"aperture_center_x":698,"aperture_center_y":392.5,"fixation_cross":true,"fixation_cross_width":15,"fixation_cross_height":15,"fixation_cross_color":"#111","fixation_cross_thickness":1,"border":true,"border_thickness":2,"border_color":"transparent","canvas_width":1396,"canvas_height":785,"trial_type":"rdk","trial_index":47,"plugin_version":"2.0.0","time_elapsed":252602,"phase":"practice","target_direction":73,"distractor_direction":205},{"rt":1224,"stimulus":"\n        <div class=\"response-container\">\n          <div class=\"response-instruction\">\n            <p>rotate the bar by using the left and right arrow keys.</p>\n            <p>when you are determined, press the Enter key.</p>\n          </div>\n          <div class=\"response-circle\">\n            <div class=\"response-fixation\"></div>\n            <div id=\"bar\" class=\"rotating-bar\"></div>\n          </div>\n        </div>\n      ","response":"Enter","trial_type":"html-keyboard-response","trial_index":48,"plugin_version":"2.1.0","time_elapsed":253827,"random_initial_angle":44,"response_angle_css":44,"response_angle_rdk":46,"angular_error_target":-27,"angular_error_distractor":-159,"target_direction":73,"target_group":"white","reward_points":4},{"rt":null,"stimulus":"\n          <p style=\"color: #00FF00;\">Your reward: 4 points</p>\n        ","response":null,"trial_type":"html-keyboard-response","trial_index":49,"plugin_version":"2.1.0","time_elapsed":255833},{"rt":null,"stimulus":"<div class=\"fixation\" style=\"font-size: 60px;\">+</div>","response":null,"trial_type":"html-keyboard-response","trial_index":50,"plugin_version":"2.1.0","time_elapsed":256848},{"target_group":"white","target_index":0,"condition_label":"practice","rt":-1,"response":"","correct":false,"choices":"ALL_KEYS","correct_choice":["a"],"trial_duration":2000,"flip_timestamps":[],"response_ends_trial":false,"number_of_apertures":2,"number_of_dots":[100,67],"number_of_sets":1,"coherent_direction":[189,94],"coherence":1,"opposite_coherence":0,"dot_radius":2,"dot_side_length":1,"dot_life":-1,"move_distance":1,"aperture_width":300,"aperture_height":300,"dot_color":["white","black"],"dot_shape":"circle","background_color":"#AAA","RDK_type":3,"aperture_type":2,"reinsert_type":2,"frame_rate":16.675,"frame_rate_array":[25,9,12,18,18,16,17,17,14,16,17,16,17,19,23,12,14,17,14,17,17,17,17,18,18,17,17,17,16,17,16,16,16,16,17,19,16,18,17,15,17,17,16,15,17,18,19,15,17,18,17,16,17,17,15,16,16,17,16,17,16,16,19,17,17,18,17,16,17,17,14,19,17,16,20,13,17,19,12,17,17,18,17,18,17,16,17,17,16,14,17,16,17,17,17,17,18,18,15,18,16,15,18,16,16,16,15,17,17,16,18,17,16,18,17,17,16,18,17,16],"number_of_frames":120,"aperture_center_x":698,"aperture_center_y":392.5,"fixation_cross":true,"fixation_cross_width":15,"fixation_cross_height":15,"fixation_cross_color":"#111","fixation_cross_thickness":1,"border":true,"border_thickness":2,"border_color":"transparent","canvas_width":1396,"canvas_height":785,"trial_type":"rdk","trial_index":51,"plugin_version":"2.0.0","time_elapsed":258854,"phase":"practice","target_direction":189,"distractor_direction":94},{"rt":5173,"stimulus":"\n        <div class=\"response-container\">\n          <div class=\"response-instruction\">\n            <p>rotate the bar by using the left and right arrow keys.</p>\n            <p>when you are determined, press the Enter key.</p>\n          </div>\n          <div class=\"response-circle\">\n            <div class=\"response-fixation\"></div>\n            <div id=\"bar\" class=\"rotating-bar\"></div>\n          </div>\n        </div>\n      ","response":"Enter","trial_type":"html-keyboard-response","trial_index":52,"plugin_version":"2.1.0","time_elapsed":264029,"random_initial_angle":150,"response_angle_css":-114,"response_angle_rdk":204,"angular_error_target":15,"angular_error_distractor":110,"target_direction":189,"target_group":"white","reward_points":7},{"rt":null,"stimulus":"\n          <p style=\"color: #00FF00;\">Your reward: 7 points</p>\n        ","response":null,"trial_type":"html-keyboard-response","trial_index":53,"plugin_version":"2.1.0","time_elapsed":266039},{"rt":null,"stimulus":"<div class=\"fixation\" style=\"font-size: 60px;\">+</div>","response":null,"trial_type":"html-keyboard-response","trial_index":54,"plugin_version":"2.1.0","time_elapsed":267046},{"target_group":"white","target_index":0,"condition_label":"practice","rt":-1,"response":"","correct":false,"choices":"ALL_KEYS","correct_choice":["a"],"trial_duration":2000,"flip_timestamps":[],"response_ends_trial":false,"number_of_apertures":2,"number_of_dots":[100,57],"number_of_sets":1,"coherent_direction":[40,130],"coherence":1,"opposite_coherence":0,"dot_radius":2,"dot_side_length":1,"dot_life":-1,"move_distance":1,"aperture_width":300,"aperture_height":300,"dot_color":["white","black"],"dot_shape":"circle","background_color":"#AAA","RDK_type":3,"aperture_type":2,"reinsert_type":2,"frame_rate":16.775,"frame_rate_array":[18,21,13,15,14,17,17,18,18,17,17,16,17,17,17,13,16,16,17,19,17,18,17,17,17,15,16,15,17,17,17,17,17,17,17,16,17,17,17,17,19,17,17,17,15,15,17,19,17,18,17,17,18,16,17,16,17,17,16,16,16,18,15,19,15,15,17,17,17,17,17,18,17,19,16,16,17,16,16,16,17,18,19,15,18,17,17,16,17,16,17,17,15,16,16,17,17,16,16,18,16,17,17,17,16,17,17,17,17,18,16,17,17,17,17,18,17,16,17,17],"number_of_frames":120,"aperture_center_x":698,"aperture_center_y":392.5,"fixation_cross":true,"fixation_cross_width":15,"fixation_cross_height":15,"fixation_cross_color":"#111","fixation_cross_thickness":1,"border":true,"border_thickness":2,"border_color":"transparent","canvas_width":1396,"canvas_height":785,"trial_type":"rdk","trial_index":55,"plugin_version":"2.0.0","time_elapsed":269055,"phase":"practice","target_direction":40,"distractor_direction":130},{"rt":7907,"stimulus":"\n        <div class=\"response-container\">\n          <div class=\"response-instruction\">\n            <p>rotate the bar by using the left and right arrow keys.</p>\n            <p>when you are determined, press the Enter key.</p>\n          </div>\n          <div class=\"response-circle\">\n            <div class=\"response-fixation\"></div>\n            <div id=\"bar\" class=\"rotating-bar\"></div>\n          </div>\n        </div>\n      ","response":"Enter","trial_type":"html-keyboard-response","trial_index":56,"plugin_version":"2.1.0","time_elapsed":276964,"random_initial_angle":318,"response_angle_css":219,"response_angle_rdk":231,"angular_error_target":-169,"angular_error_distractor":101,"target_direction":40,"target_group":"white","reward_points":0},{"rt":null,"stimulus":"\n          <p style=\"color: #FF3333;\">Your reward: 0 points</p>\n        ","response":null,"trial_type":"html-keyboard-response","trial_index":57,"plugin_version":"2.1.0","time_elapsed":278974},{"rt":null,"stimulus":"<div class=\"fixation\" style=\"font-size: 60px;\">+</div>","response":null,"trial_type":"html-keyboard-response","trial_index":58,"plugin_version":"2.1.0","time_elapsed":279990},{"target_group":"black","target_index":1,"condition_label":"practice","rt":-1,"response":"","correct":false,"choices":"ALL_KEYS","correct_choice":["a"],"trial_duration":2000,"flip_timestamps":[],"response_ends_trial":false,"number_of_apertures":2,"number_of_dots":[72,100],"number_of_sets":1,"coherent_direction":[204,342],"coherence":1,"opposite_coherence":0,"dot_radius":2,"dot_side_length":1,"dot_life":-1,"move_distance":1,"aperture_width":300,"aperture_height":300,"dot_color":["white","black"],"dot_shape":"circle","background_color":"#AAA","RDK_type":3,"aperture_type":2,"reinsert_type":2,"frame_rate":16.708333333333332,"frame_rate_array":[12,11,19,15,17,17,16,21,18,14,18,14,15,17,18,16,17,17,17,17,17,17,17,17,17,17,17,19,16,14,18,16,17,16,17,17,17,17,17,16,16,17,17,17,16,17,16,17,17,17,15,16,17,16,17,17,17,17,17,17,17,17,17,17,17,17,17,21,17,14,15,16,17,17,16,17,17,17,17,17,17,17,16,16,17,17,17,17,17,16,17,17,17,17,17,16,17,17,17,17,17,17,16,17,17,16,17,17,17,17,17,17,17,17,17,17,17,17,16,17],"number_of_frames":120,"aperture_center_x":698,"aperture_center_y":392.5,"fixation_cross":true,"fixation_cross_width":15,"fixation_cross_height":15,"fixation_cross_color":"#111","fixation_cross_thickness":1,"border":true,"border_thickness":2,"border_color":"transparent","canvas_width":1396,"canvas_height":785,"trial_type":"rdk","trial_index":59,"plugin_version":"2.0.0","time_elapsed":281994,"phase":"practice","target_direction":342,"distractor_direction":204},{"rt":2221,"stimulus":"\n        <div class=\"response-container\">\n          <div class=\"response-instruction\">\n            <p>rotate the bar by using the left and right arrow keys.</p>\n            <p>when you are determined, press the Enter key.</p>\n          </div>\n          <div class=\"response-circle\">\n            <div class=\"response-fixation\"></div>\n            <div id=\"bar\" class=\"rotating-bar\"></div>\n          </div>\n        </div>\n      ","response":"Enter","trial_type":"html-keyboard-response","trial_index":60,"plugin_version":"2.1.0","time_elapsed":284217,"random_initial_angle":284,"response_angle_css":284,"response_angle_rdk":166,"angular_error_target":-176,"angular_error_distractor":-38,"target_direction":342,"target_group":"black","reward_points":0},{"rt":null,"stimulus":"\n          <p style=\"color: #FF3333;\">Your reward: 0 points</p>\n        ","response":null,"trial_type":"html-keyboard-response","trial_index":61,"plugin_version":"2.1.0","time_elapsed":286224},{"rt":null,"stimulus":"<div class=\"fixation\" style=\"font-size: 60px;\">+</div>","response":null,"trial_type":"html-keyboard-response","trial_index":62,"plugin_version":"2.1.0","time_elapsed":287238},{"target_group":"black","target_index":1,"condition_label":"practice","rt":-1,"response":"","correct":false,"choices":"ALL_KEYS","correct_choice":["a"],"trial_duration":2000,"flip_timestamps":[],"response_ends_trial":false,"number_of_apertures":2,"number_of_dots":[64,100],"number_of_sets":1,"coherent_direction":[135,343],"coherence":1,"opposite_coherence":0,"dot_radius":2,"dot_side_length":1,"dot_life":-1,"move_distance":1,"aperture_width":300,"aperture_height":300,"dot_color":["white","black"],"dot_shape":"circle","background_color":"#AAA","RDK_type":3,"aperture_type":2,"reinsert_type":2,"frame_rate":16.716666666666665,"frame_rate_array":[9,18,17,17,18,14,20,14,16,17,18,16,16,17,17,16,17,18,17,15,18,18,17,15,16,17,17,19,16,15,20,17,13,19,17,16,16,19,15,18,17,17,15,16,17,16,17,17,17,16,17,17,18,15,17,17,17,17,17,17,17,17,16,18,15,16,17,18,17,16,17,17,17,17,17,17,17,17,17,16,17,17,17,16,17,16,16,17,17,17,17,17,16,16,17,17,17,17,17,17,17,17,17,19,18,14,16,16,17,17,16,17,18,15,17,17,17,17,17,17],"number_of_frames":120,"aperture_center_x":698,"aperture_center_y":392.5,"fixation_cross":true,"fixation_cross_width":15,"fixation_cross_height":15,"fixation_cross_color":"#111","fixation_cross_thickness":1,"border":true,"border_thickness":2,"border_color":"transparent","canvas_width":1396,"canvas_height":785,"trial_type":"rdk","trial_index":63,"plugin_version":"2.0.0","time_elapsed":289247,"phase":"practice","target_direction":343,"distractor_direction":135},{"rt":4970,"stimulus":"\n        <div class=\"response-container\">\n          <div class=\"response-instruction\">\n            <p>rotate the bar by using the left and right arrow keys.</p>\n            <p>when you are determined, press the Enter key.</p>\n          </div>\n          <div class=\"response-circle\">\n            <div class=\"response-fixation\"></div>\n            <div id=\"bar\" class=\"rotating-bar\"></div>\n          </div>\n        </div>\n      ","response":"Enter","trial_type":"html-keyboard-response","trial_index":64,"plugin_version":"2.1.0","time_elapsed":294220,"random_initial_angle":5,"response_angle_css":116,"response_angle_rdk":334,"angular_error_target":-9,"angular_error_distractor":-161,"target_direction":343,"target_group":"black","reward_points":8},{"rt":null,"stimulus":"\n          <p style=\"color: #00FF00;\">Your reward: 8 points</p>\n        ","response":null,"trial_type":"html-keyboard-response","trial_index":65,"plugin_version":"2.1.0","time_elapsed":296224},{"rt":6406,"stimulus":"\n        <div class=\"instructions-container\">\n          <h2>End of Practice</h2>\n          <p>You have completed the practice trials.</p>\n          <p>Press <strong>Enter</strong> key to begin the main experiment.</p>\n        </div>\n      ","response":"Enter","trial_type":"html-keyboard-response","trial_index":66,"plugin_version":"2.1.0","time_elapsed":302632},{"rt":null,"stimulus":"<div class=\"fixation\" style=\"font-size: 60px;\">+</div>","response":null,"trial_type":"html-keyboard-response","trial_index":67,"plugin_version":"2.1.0","time_elapsed":303636},{"phase":"learning-awareness","target_group":"black","condition_label":"B_H_vs_W_L_rep18","target_direction":103,"distractor_direction":204,"session_rotation":11,"rt":-1,"response":"","correct":false,"choices":"ALL_KEYS","correct_choice":["a"],"trial_duration":2000,"flip_timestamps":[],"response_ends_trial":false,"number_of_apertures":200,"number_of_dots":[1,1,1,1,1,1,1,1,1,1,1,1,1,1,1,1,1,1,1,1,1,1,1,1,1,1,1,1,1,1,1,1,1,1,1,1,1,1,1,1,1,1,1,1,1,1,1,1,1,1,1,1,1,1,1,1,1,1,1,1,1,1,1,1,1,1,1,1,1,1,1,1,1,1,1,1,1,1,1,1,1,1,1,1,1,1,1,1,1,1,1,1,1,1,1,1,1,1,1,1,1,1,1,1,1,1,1,1,1,1,1,1,1,1,1,1,1,1,1,1,1,1,1,1,1,1,1,1,1,1,1,1,1,1,1,1,1,1,1,1,1,1,1,1,1,1,1,1,1,1,1,1,1,1,1,1,1,1,1,1,1,1,1,1,1,1,1,1,1,1,1,1,1,1,1,1,1,1,1,1,1,1,1,1,1,1,1,1,1,1,1,1,1,1,1,1,1,1,1,1],"number_of_sets":1,"coherent_direction":[103,103,103,204,103,103,103,103,103,204,103,204,103,103,204,103,204,204,204,204,204,204,204,204,103,103,204,204,103,103,103,204,103,204,204,103,204,204,103,204,103,103,204,204,103,103,204,204,103,204,103,204,103,204,103,204,204,204,103,103,103,204,204,103,103,103,204,103,103,204,204,204,204,103,204,204,204,103,204,204,204,204,103,204,204,204,103,204,103,204,204,204,204,103,103,103,103,103,103,103,103,103,103,103,204,204,204,204,103,103,103,103,103,103,103,204,204,204,103,103,204,103,204,204,204,204,204,204,103,103,204,103,204,204,204,103,204,204,204,103,103,204,103,204,204,103,204,103,204,103,204,103,103,204,103,204,103,103,204,103,103,204,204,204,204,103,103,204,204,204,103,103,204,103,204,103,204,103,204,103,204,103,103,103,103,103,204,103,103,103,204,103,204,103,204,204,103,204,103,103],"coherence":1,"opposite_coherence":0,"dot_radius":2,"dot_side_length":1,"dot_life":-1,"move_distance":1,"aperture_width":300,"aperture_height":300,"dot_color":["black","black","black","white","black","black","black","black","black","white","black","white","black","black","white","black","white","white","white","white","white","white","white","white","black","black","white","white","black","black","black","white","black","white","white","black","white","white","black","white","black","black","white","white","black","black","white","white","black","white","black","white","black","white","black","white","white","white","black","black","black","white","white","black","black","black","white","black","black","white","white","white","white","black","white","white","white","black","white","white","white","white","black","white","white","white","black","white","black","white","white","white","white","black","black","black","black","black","black","black","black","black","black","black","white","white","white","white","black","black","black","black","black","black","black","white","white","white","black","black","white","black","white","white","white","white","white","white","black","black","white","black","white","white","white","black","white","white","white","black","black","white","black","white","white","black","white","black","white","black","white","black","black","white","black","white","black","black","white","black","black","white","white","white","white","black","black","white","white","white","black","black","white","black","white","black","white","black","white","black","white","black","black","black","black","black","white","black","black","black","white","black","white","black","white","white","black","white","black","black"],"dot_shape":"circle","background_color":"#AAA","RDK_type":3,"aperture_type":2,"reinsert_type":2,"frame_rate":16.658333333333335,"frame_rate_array":[10,19,14,17,19,14,16,17,16,17,17,17,17,16,17,17,17,17,17,17,16,18,15,17,17,17,18,15,17,16,17,17,16,17,17,16,17,16,17,17,16,17,17,16,17,17,16,17,16,17,16,17,17,17,16,17,18,16,17,17,17,16,18,16,16,17,16,17,17,17,18,15,17,16,16,17,17,18,18,16,16,22,12,16,17,16,17,17,21,17,14,15,17,17,17,20,14,21,12,17,16,17,17,17,17,17,17,22,12,16,16,17,17,16,17,17,16,17,16,17],"number_of_frames":120,"aperture_center_x":698,"aperture_center_y":392.5,"fixation_cross":true,"fixation_cross_width":15,"fixation_cross_height":15,"fixation_cross_color":"#111","fixation_cross_thickness":1,"border":true,"border_thickness":2,"border_color":"transparent","canvas_width":1396,"canvas_height":785,"trial_type":"rdk","trial_index":68,"plugin_version":"2.0.0","time_elapsed":305650},{"rt":4521,"stimulus":"\n        <div class=\"response-container\">\n          <div class=\"response-instruction\">\n            <p>rotate the bar by using the left and right arrow keys.</p>\n            <p>when you are determined, press the Enter key.</p>\n          </div>\n          <div class=\"response-circle\">\n            <div class=\"response-fixation\"></div>\n            <div id=\"bar\" class=\"rotating-bar\"></div>\n          </div>\n        </div>\n      ","response":"Enter","trial_type":"html-keyboard-response","trial_index":69,"plugin_version":"2.1.0","time_elapsed":310173,"random_initial_angle":171,"response_angle_css":210,"response_angle_rdk":240,"angular_error_target":137,"angular_error_distractor":36,"target_direction":103,"target_group":"black","reward_points":0},{"rt":null,"stimulus":"\n          <p style=\"color: #FF3333;\">Your reward: 0 points</p>\n        ","response":null,"trial_type":"html-keyboard-response","trial_index":70,"plugin_version":"2.1.0","time_elapsed":312180},{"rt":null,"stimulus":"<div class=\"fixation\" style=\"font-size: 60px;\">+</div>","response":null,"trial_type":"html-keyboard-response","trial_index":71,"plugin_version":"2.1.0","time_elapsed":313196},{"phase":"learning-awareness","target_group":"black","condition_label":"B_H_vs_W_L_rep20","target_direction":125,"distractor_direction":234,"session_rotation":11,"rt":-1,"response":"","correct":false,"choices":"ALL_KEYS","correct_choice":["a"],"trial_duration":2000,"flip_timestamps":[],"response_ends_trial":false,"number_of_apertures":200,"number_of_dots":[1,1,1,1,1,1,1,1,1,1,1,1,1,1,1,1,1,1,1,1,1,1,1,1,1,1,1,1,1,1,1,1,1,1,1,1,1,1,1,1,1,1,1,1,1,1,1,1,1,1,1,1,1,1,1,1,1,1,1,1,1,1,1,1,1,1,1,1,1,1,1,1,1,1,1,1,1,1,1,1,1,1,1,1,1,1,1,1,1,1,1,1,1,1,1,1,1,1,1,1,1,1,1,1,1,1,1,1,1,1,1,1,1,1,1,1,1,1,1,1,1,1,1,1,1,1,1,1,1,1,1,1,1,1,1,1,1,1,1,1,1,1,1,1,1,1,1,1,1,1,1,1,1,1,1,1,1,1,1,1,1,1,1,1,1,1,1,1,1,1,1,1,1,1,1,1,1,1,1,1,1,1,1,1,1,1,1,1,1,1,1,1,1,1,1,1,1,1,1,1],"number_of_sets":1,"coherent_direction":[234,234,234,125,234,125,125,234,125,234,125,125,234,234,125,234,234,125,234,234,125,234,234,125,125,234,125,234,125,234,125,125,234,234,125,125,234,234,125,125,125,234,234,125,234,125,234,234,125,234,234,125,125,125,234,234,125,234,234,125,125,234,234,125,234,125,234,234,125,125,125,234,234,234,125,234,125,234,125,125,234,125,234,234,125,234,234,234,234,234,234,125,125,125,125,125,234,234,234,125,125,125,234,234,125,125,125,234,125,234,234,125,234,125,125,125,125,125,234,234,125,234,125,125,234,234,234,125,125,234,125,125,125,125,125,125,234,125,234,125,234,234,125,125,125,125,125,125,125,234,125,234,234,125,234,125,125,234,234,234,234,234,234,125,234,234,125,125,125,125,125,125,125,234,125,125,125,125,234,234,125,234,234,234,234,234,125,125,234,234,234,234,234,234,125,125,234,234,234,125],"coherence":1,"opposite_coherence":0,"dot_radius":2,"dot_side_length":1,"dot_life":-1,"move_distance":1,"aperture_width":300,"aperture_height":300,"dot_color":["white","white","white","black","white","black","black","white","black","white","black","black","white","white","black","white","white","black","white","white","black","white","white","black","black","white","black","white","black","white","black","black","white","white","black","black","white","white","black","black","black","white","white","black","white","black","white","white","black","white","white","black","black","black","white","white","black","white","white","black","black","white","white","black","white","black","white","white","black","black","black","white","white","white","black","white","black","white","black","black","white","black","white","white","black","white","white","white","white","white","white","black","black","black","black","black","white","white","white","black","black","black","white","white","black","black","black","white","black","white","white","black","white","black","black","black","black","black","white","white","black","white","black","black","white","white","white","black","black","white","black","black","black","black","black","black","white","black","white","black","white","white","black","black","black","black","black","black","black","white","black","white","white","black","white","black","black","white","white","white","white","white","white","black","white","white","black","black","black","black","black","black","black","white","black","black","black","black","white","white","black","white","white","white","white","white","black","black","white","white","white","white","white","white","black","black","white","white","white","black"],"dot_shape":"circle","background_color":"#AAA","RDK_type":3,"aperture_type":2,"reinsert_type":2,"frame_rate":16.71900826446281,"frame_rate_array":[6,12,19,15,16,17,17,17,17,17,17,17,17,16,17,17,17,17,17,16,17,17,17,17,17,17,17,16,17,17,17,18,16,17,17,16,17,16,17,17,18,17,15,17,17,17,17,17,16,17,17,17,17,17,17,17,25,14,25,9,13,17,16,17,17,17,18,16,17,17,17,17,19,14,16,17,17,17,16,17,17,17,17,17,19,15,17,17,17,17,17,17,17,17,17,17,17,16,17,16,17,17,17,17,17,17,17,17,16,17,16,17,17,16,17,16,23,18,16,10,17],"number_of_frames":121,"aperture_center_x":698,"aperture_center_y":392.5,"fixation_cross":true,"fixation_cross_width":15,"fixation_cross_height":15,"fixation_cross_color":"#111","fixation_cross_thickness":1,"border":true,"border_thickness":2,"border_color":"transparent","canvas_width":1396,"canvas_height":785,"trial_type":"rdk","trial_index":72,"plugin_version":"2.0.0","time_elapsed":315203},{"rt":4244,"stimulus":"\n        <div class=\"response-container\">\n          <div class=\"response-instruction\">\n            <p>rotate the bar by using the left and right arrow keys.</p>\n            <p>when you are determined, press the Enter key.</p>\n          </div>\n          <div class=\"response-circle\">\n            <div class=\"response-fixation\"></div>\n            <div id=\"bar\" class=\"rotating-bar\"></div>\n          </div>\n        </div>\n      ","response":"Enter","trial_type":"html-keyboard-response","trial_index":73,"plugin_version":"2.1.0","time_elapsed":319448,"random_initial_angle":103,"response_angle_css":-50,"response_angle_rdk":140,"angular_error_target":15,"angular_error_distractor":-94,"target_direction":125,"target_group":"black","reward_points":7},{"rt":null,"stimulus":"\n          <p style=\"color: #00FF00;\">Your reward: 7 points</p>\n        ","response":null,"trial_type":"html-keyboard-response","trial_index":74,"plugin_version":"2.1.0","time_elapsed":321454},{"rt":null,"stimulus":"<div class=\"fixation\" style=\"font-size: 60px;\">+</div>","response":null,"trial_type":"html-keyboard-response","trial_index":75,"plugin_version":"2.1.0","time_elapsed":322469},{"phase":"learning-awareness","target_group":"white","condition_label":"W_H_vs_B_L_rep9","target_direction":53,"distractor_direction":313,"session_rotation":11,"rt":-1,"response":"","correct":false,"choices":"ALL_KEYS","correct_choice":["a"],"trial_duration":2000,"flip_timestamps":[],"response_ends_trial":false,"number_of_apertures":200,"number_of_dots":[1,1,1,1,1,1,1,1,1,1,1,1,1,1,1,1,1,1,1,1,1,1,1,1,1,1,1,1,1,1,1,1,1,1,1,1,1,1,1,1,1,1,1,1,1,1,1,1,1,1,1,1,1,1,1,1,1,1,1,1,1,1,1,1,1,1,1,1,1,1,1,1,1,1,1,1,1,1,1,1,1,1,1,1,1,1,1,1,1,1,1,1,1,1,1,1,1,1,1,1,1,1,1,1,1,1,1,1,1,1,1,1,1,1,1,1,1,1,1,1,1,1,1,1,1,1,1,1,1,1,1,1,1,1,1,1,1,1,1,1,1,1,1,1,1,1,1,1,1,1,1,1,1,1,1,1,1,1,1,1,1,1,1,1,1,1,1,1,1,1,1,1,1,1,1,1,1,1,1,1,1,1,1,1,1,1,1,1,1,1,1,1,1,1,1,1,1,1,1,1],"number_of_sets":1,"coherent_direction":[53,313,313,53,313,53,53,53,53,53,313,313,53,313,53,53,313,313,53,313,53,53,53,313,53,313,313,53,313,53,53,313,313,313,53,313,313,53,53,53,313,53,53,53,53,313,53,53,313,53,313,53,313,313,53,53,313,313,313,313,53,53,313,53,53,313,53,313,313,53,53,313,313,53,53,53,53,53,53,53,53,53,53,313,313,313,53,313,313,53,53,313,53,313,53,313,53,313,53,53,313,313,53,53,313,313,53,53,313,313,53,313,313,313,53,53,313,313,313,53,313,53,53,313,313,313,313,53,53,53,53,313,313,313,53,53,313,53,313,313,313,313,313,313,53,313,53,53,313,53,313,313,53,53,313,53,53,53,53,53,53,313,313,313,313,313,53,313,313,53,313,313,313,313,313,313,313,313,53,53,313,313,313,53,313,53,313,53,53,313,53,313,313,53,313,53,313,53,53,53],"coherence":1,"opposite_coherence":0,"dot_radius":2,"dot_side_length":1,"dot_life":-1,"move_distance":1,"aperture_width":300,"aperture_height":300,"dot_color":["white","black","black","white","black","white","white","white","white","white","black","black","white","black","white","white","black","black","white","black","white","white","white","black","white","black","black","white","black","white","white","black","black","black","white","black","black","white","white","white","black","white","white","white","white","black","white","white","black","white","black","white","black","black","white","white","black","black","black","black","white","white","black","white","white","black","white","black","black","white","white","black","black","white","white","white","white","white","white","white","white","white","white","black","black","black","white","black","black","white","white","black","white","black","white","black","white","black","white","white","black","black","white","white","black","black","white","white","black","black","white","black","black","black","white","white","black","black","black","white","black","white","white","black","black","black","black","white","white","white","white","black","black","black","white","white","black","white","black","black","black","black","black","black","white","black","white","white","black","white","black","black","white","white","black","white","white","white","white","white","white","black","black","black","black","black","white","black","black","white","black","black","black","black","black","black","black","black","white","white","black","black","black","white","black","white","black","white","white","black","white","black","black","white","black","white","black","white","white","white"],"dot_shape":"circle","background_color":"#AAA","RDK_type":3,"aperture_type":2,"reinsert_type":2,"frame_rate":16.7,"frame_rate_array":[26,6,14,13,17,18,16,17,17,17,14,16,17,17,17,16,16,17,19,14,17,16,17,17,17,17,19,17,17,14,16,16,17,16,17,16,17,17,17,16,17,16,17,17,17,17,17,17,17,22,13,16,16,17,17,17,16,17,17,17,17,17,16,18,17,16,17,22,11,17,22,17,16,12,17,17,18,16,17,17,17,17,20,14,18,15,17,16,17,17,17,17,17,17,17,17,21,12,17,17,17,16,17,17,17,16,17,18,15,17,17,17,17,17,16,17,17,17,17,17],"number_of_frames":120,"aperture_center_x":698,"aperture_center_y":392.5,"fixation_cross":true,"fixation_cross_width":15,"fixation_cross_height":15,"fixation_cross_color":"#111","fixation_cross_thickness":1,"border":true,"border_thickness":2,"border_color":"transparent","canvas_width":1396,"canvas_height":785,"trial_type":"rdk","trial_index":76,"plugin_version":"2.0.0","time_elapsed":324482},{"rt":3778,"stimulus":"\n        <div class=\"response-container\">\n          <div class=\"response-instruction\">\n            <p>rotate the bar by using the left and right arrow keys.</p>\n            <p>when you are determined, press the Enter key.</p>\n          </div>\n          <div class=\"response-circle\">\n            <div class=\"response-fixation\"></div>\n            <div id=\"bar\" class=\"rotating-bar\"></div>\n          </div>\n        </div>\n      ","response":"Enter","trial_type":"html-keyboard-response","trial_index":77,"plugin_version":"2.1.0","time_elapsed":328261,"random_initial_angle":263,"response_angle_css":328,"response_angle_rdk":122,"angular_error_target":69,"angular_error_distractor":169,"target_direction":53,"target_group":"white","reward_points":0},{"rt":null,"stimulus":"\n          <p style=\"color: #FF3333;\">Your reward: 0 points</p>\n        ","response":null,"trial_type":"html-keyboard-response","trial_index":78,"plugin_version":"2.1.0","time_elapsed":330277},{"rt":null,"stimulus":"<div class=\"fixation\" style=\"font-size: 60px;\">+</div>","response":null,"trial_type":"html-keyboard-response","trial_index":79,"plugin_version":"2.1.0","time_elapsed":331294},{"phase":"learning-awareness","target_group":"black","condition_label":"B_H_vs_W_L_rep3","target_direction":103,"distractor_direction":201,"session_rotation":11,"rt":-1,"response":"","correct":false,"choices":"ALL_KEYS","correct_choice":["a"],"trial_duration":2000,"flip_timestamps":[],"response_ends_trial":false,"number_of_apertures":200,"number_of_dots":[1,1,1,1,1,1,1,1,1,1,1,1,1,1,1,1,1,1,1,1,1,1,1,1,1,1,1,1,1,1,1,1,1,1,1,1,1,1,1,1,1,1,1,1,1,1,1,1,1,1,1,1,1,1,1,1,1,1,1,1,1,1,1,1,1,1,1,1,1,1,1,1,1,1,1,1,1,1,1,1,1,1,1,1,1,1,1,1,1,1,1,1,1,1,1,1,1,1,1,1,1,1,1,1,1,1,1,1,1,1,1,1,1,1,1,1,1,1,1,1,1,1,1,1,1,1,1,1,1,1,1,1,1,1,1,1,1,1,1,1,1,1,1,1,1,1,1,1,1,1,1,1,1,1,1,1,1,1,1,1,1,1,1,1,1,1,1,1,1,1,1,1,1,1,1,1,1,1,1,1,1,1,1,1,1,1,1,1,1,1,1,1,1,1,1,1,1,1,1,1],"number_of_sets":1,"coherent_direction":[201,103,201,103,103,201,103,201,103,103,201,201,201,103,103,103,201,103,201,103,201,201,103,201,201,201,201,103,201,201,201,201,201,201,201,103,201,201,103,103,103,201,201,103,201,201,103,201,103,103,201,201,103,103,103,103,103,103,201,103,103,103,201,103,201,201,103,103,103,103,103,103,201,103,201,103,103,103,103,201,201,201,201,103,201,103,103,201,201,201,201,201,201,103,201,201,103,103,103,103,103,103,103,201,103,103,201,103,201,103,103,201,201,103,201,201,201,201,103,103,201,103,201,103,201,103,201,201,201,201,201,201,201,201,103,201,201,201,103,103,201,201,103,201,103,201,103,103,103,103,201,103,103,103,103,103,103,201,103,201,201,201,103,201,201,103,201,201,201,201,201,201,103,103,103,103,103,201,103,103,103,103,201,201,103,103,201,201,201,201,103,103,103,201,103,201,103,201,103,103],"coherence":1,"opposite_coherence":0,"dot_radius":2,"dot_side_length":1,"dot_life":-1,"move_distance":1,"aperture_width":300,"aperture_height":300,"dot_color":["white","black","white","black","black","white","black","white","black","black","white","white","white","black","black","black","white","black","white","black","white","white","black","white","white","white","white","black","white","white","white","white","white","white","white","black","white","white","black","black","black","white","white","black","white","white","black","white","black","black","white","white","black","black","black","black","black","black","white","black","black","black","white","black","white","white","black","black","black","black","black","black","white","black","white","black","black","black","black","white","white","white","white","black","white","black","black","white","white","white","white","white","white","black","white","white","black","black","black","black","black","black","black","white","black","black","white","black","white","black","black","white","white","black","white","white","white","white","black","black","white","black","white","black","white","black","white","white","white","white","white","white","white","white","black","white","white","white","black","black","white","white","black","white","black","white","black","black","black","black","white","black","black","black","black","black","black","white","black","white","white","white","black","white","white","black","white","white","white","white","white","white","black","black","black","black","black","white","black","black","black","black","white","white","black","black","white","white","white","white","black","black","black","white","black","white","black","white","black","black"],"dot_shape":"circle","background_color":"#AAA","RDK_type":3,"aperture_type":2,"reinsert_type":2,"frame_rate":16.702479338842974,"frame_rate_array":[9,13,15,17,17,16,17,17,16,17,27,10,15,17,17,16,17,17,17,17,17,17,17,17,17,17,17,16,17,18,15,16,17,17,17,18,18,17,17,15,18,14,17,16,17,17,17,17,17,19,14,17,17,16,17,17,16,18,17,17,18,16,17,16,16,17,16,17,17,17,17,16,18,18,16,18,16,16,17,16,16,17,17,19,18,17,17,16,16,15,17,16,17,17,17,16,17,17,17,17,17,17,17,17,16,17,16,17,17,19,14,17,17,17,17,17,17,17,17,17,17],"number_of_frames":121,"aperture_center_x":698,"aperture_center_y":392.5,"fixation_cross":true,"fixation_cross_width":15,"fixation_cross_height":15,"fixation_cross_color":"#111","fixation_cross_thickness":1,"border":true,"border_thickness":2,"border_color":"transparent","canvas_width":1396,"canvas_height":785,"trial_type":"rdk","trial_index":80,"plugin_version":"2.0.0","time_elapsed":333307},{"rt":3545,"stimulus":"\n        <div class=\"response-container\">\n          <div class=\"response-instruction\">\n            <p>rotate the bar by using the left and right arrow keys.</p>\n            <p>when you are determined, press the Enter key.</p>\n          </div>\n          <div class=\"response-circle\">\n            <div class=\"response-fixation\"></div>\n            <div id=\"bar\" class=\"rotating-bar\"></div>\n          </div>\n        </div>\n      ","response":"Enter","trial_type":"html-keyboard-response","trial_index":81,"plugin_version":"2.1.0","time_elapsed":336854,"random_initial_angle":313,"response_angle_css":218,"response_angle_rdk":232,"angular_error_target":129,"angular_error_distractor":31,"target_direction":103,"target_group":"black","reward_points":0},{"rt":null,"stimulus":"\n          <p style=\"color: #FF3333;\">Your reward: 0 points</p>\n        ","response":null,"trial_type":"html-keyboard-response","trial_index":82,"plugin_version":"2.1.0","time_elapsed":338869},{"rt":null,"stimulus":"<div class=\"fixation\" style=\"font-size: 60px;\">+</div>","response":null,"trial_type":"html-keyboard-response","trial_index":83,"plugin_version":"2.1.0","time_elapsed":339876},{"phase":"learning-awareness","target_group":"white","condition_label":"W_H_vs_B_L_rep3","target_direction":34,"distractor_direction":303,"session_rotation":11,"rt":-1,"response":"","correct":false,"choices":"ALL_KEYS","correct_choice":["a"],"trial_duration":2000,"flip_timestamps":[],"response_ends_trial":false,"number_of_apertures":200,"number_of_dots":[1,1,1,1,1,1,1,1,1,1,1,1,1,1,1,1,1,1,1,1,1,1,1,1,1,1,1,1,1,1,1,1,1,1,1,1,1,1,1,1,1,1,1,1,1,1,1,1,1,1,1,1,1,1,1,1,1,1,1,1,1,1,1,1,1,1,1,1,1,1,1,1,1,1,1,1,1,1,1,1,1,1,1,1,1,1,1,1,1,1,1,1,1,1,1,1,1,1,1,1,1,1,1,1,1,1,1,1,1,1,1,1,1,1,1,1,1,1,1,1,1,1,1,1,1,1,1,1,1,1,1,1,1,1,1,1,1,1,1,1,1,1,1,1,1,1,1,1,1,1,1,1,1,1,1,1,1,1,1,1,1,1,1,1,1,1,1,1,1,1,1,1,1,1,1,1,1,1,1,1,1,1,1,1,1,1,1,1,1,1,1,1,1,1,1,1,1,1,1,1],"number_of_sets":1,"coherent_direction":[34,303,34,34,34,34,34,34,303,34,303,34,303,34,303,34,303,34,303,34,303,34,303,34,303,303,34,34,34,303,303,303,303,303,34,303,34,34,34,303,303,303,34,34,303,34,34,303,303,303,34,303,34,34,34,303,34,303,303,34,34,303,34,303,34,34,34,303,34,34,303,34,303,303,303,34,34,34,303,303,303,303,303,303,303,34,34,303,34,34,34,34,34,34,303,34,34,303,303,303,34,34,34,34,34,34,34,34,34,303,303,34,34,34,34,303,34,34,303,303,34,34,34,303,34,34,34,303,34,303,303,303,303,34,34,34,303,303,303,34,303,303,34,303,303,34,303,34,34,303,303,303,34,303,303,303,303,34,303,34,303,34,303,34,303,303,34,303,303,303,303,303,303,34,303,34,303,303,34,34,303,303,303,303,34,303,34,34,303,34,303,34,303,303,303,34,303,303,34,303],"coherence":1,"opposite_coherence":0,"dot_radius":2,"dot_side_length":1,"dot_life":-1,"move_distance":1,"aperture_width":300,"aperture_height":300,"dot_color":["white","black","white","white","white","white","white","white","black","white","black","white","black","white","black","white","black","white","black","white","black","white","black","white","black","black","white","white","white","black","black","black","black","black","white","black","white","white","white","black","black","black","white","white","black","white","white","black","black","black","white","black","white","white","white","black","white","black","black","white","white","black","white","black","white","white","white","black","white","white","black","white","black","black","black","white","white","white","black","black","black","black","black","black","black","white","white","black","white","white","white","white","white","white","black","white","white","black","black","black","white","white","white","white","white","white","white","white","white","black","black","white","white","white","white","black","white","white","black","black","white","white","white","black","white","white","white","black","white","black","black","black","black","white","white","white","black","black","black","white","black","black","white","black","black","white","black","white","white","black","black","black","white","black","black","black","black","white","black","white","black","white","black","white","black","black","white","black","black","black","black","black","black","white","black","white","black","black","white","white","black","black","black","black","white","black","white","white","black","white","black","white","black","black","black","white","black","black","white","black"],"dot_shape":"circle","background_color":"#AAA","RDK_type":3,"aperture_type":2,"reinsert_type":2,"frame_rate":16.783333333333335,"frame_rate_array":[7,16,17,17,16,17,17,17,17,17,17,17,17,17,17,18,17,17,16,16,17,16,17,17,19,15,17,17,16,17,17,17,17,17,17,17,17,17,17,17,17,17,17,17,17,17,18,17,17,16,16,16,16,17,17,17,17,17,17,17,17,17,17,17,17,17,17,17,16,17,16,17,16,17,17,18,18,15,17,17,17,17,17,17,17,17,17,17,17,17,17,16,17,17,17,18,16,17,17,17,17,17,17,16,17,16,17,17,17,17,17,17,16,17,17,17,17,17,17,16],"number_of_frames":120,"aperture_center_x":698,"aperture_center_y":392.5,"fixation_cross":true,"fixation_cross_width":15,"fixation_cross_height":15,"fixation_cross_color":"#111","fixation_cross_thickness":1,"border":true,"border_thickness":2,"border_color":"transparent","canvas_width":1396,"canvas_height":785,"trial_type":"rdk","trial_index":84,"plugin_version":"2.0.0","time_elapsed":341883},{"rt":2951,"stimulus":"\n        <div class=\"response-container\">\n          <div class=\"response-instruction\">\n            <p>rotate the bar by using the left and right arrow keys.</p>\n            <p>when you are determined, press the Enter key.</p>\n          </div>\n          <div class=\"response-circle\">\n            <div class=\"response-fixation\"></div>\n            <div id=\"bar\" class=\"rotating-bar\"></div>\n          </div>\n        </div>\n      ","response":"Enter","trial_type":"html-keyboard-response","trial_index":85,"plugin_version":"2.1.0","time_elapsed":344836,"random_initial_angle":240,"response_angle_css":305,"response_angle_rdk":145,"angular_error_target":111,"angular_error_distractor":-158,"target_direction":34,"target_group":"white","reward_points":0},{"rt":null,"stimulus":"\n          <p style=\"color: #FF3333;\">Your reward: 0 points</p>\n        ","response":null,"trial_type":"html-keyboard-response","trial_index":86,"plugin_version":"2.1.0","time_elapsed":346843},{"rt":null,"stimulus":"<div class=\"fixation\" style=\"font-size: 60px;\">+</div>","response":null,"trial_type":"html-keyboard-response","trial_index":87,"plugin_version":"2.1.0","time_elapsed":347852},{"phase":"learning-awareness","target_group":"white","condition_label":"W_H_vs_B_L_rep12","target_direction":39,"distractor_direction":305,"session_rotation":11,"rt":-1,"response":"","correct":false,"choices":"ALL_KEYS","correct_choice":["a"],"trial_duration":2000,"flip_timestamps":[],"response_ends_trial":false,"number_of_apertures":200,"number_of_dots":[1,1,1,1,1,1,1,1,1,1,1,1,1,1,1,1,1,1,1,1,1,1,1,1,1,1,1,1,1,1,1,1,1,1,1,1,1,1,1,1,1,1,1,1,1,1,1,1,1,1,1,1,1,1,1,1,1,1,1,1,1,1,1,1,1,1,1,1,1,1,1,1,1,1,1,1,1,1,1,1,1,1,1,1,1,1,1,1,1,1,1,1,1,1,1,1,1,1,1,1,1,1,1,1,1,1,1,1,1,1,1,1,1,1,1,1,1,1,1,1,1,1,1,1,1,1,1,1,1,1,1,1,1,1,1,1,1,1,1,1,1,1,1,1,1,1,1,1,1,1,1,1,1,1,1,1,1,1,1,1,1,1,1,1,1,1,1,1,1,1,1,1,1,1,1,1,1,1,1,1,1,1,1,1,1,1,1,1,1,1,1,1,1,1,1,1,1,1,1,1],"number_of_sets":1,"coherent_direction":[305,39,39,39,39,39,39,305,305,39,305,39,305,39,39,39,39,39,305,39,39,39,305,39,305,305,39,305,39,305,39,39,39,305,39,39,305,305,305,39,39,305,39,305,39,305,305,305,305,39,39,305,305,39,305,39,39,305,305,305,39,305,305,39,39,305,305,305,39,305,39,39,305,305,39,39,305,305,39,39,305,39,305,305,305,39,39,305,39,39,305,305,39,39,39,39,305,39,305,39,305,305,39,39,305,305,39,39,305,305,39,39,305,305,305,39,305,305,305,39,39,305,39,39,39,39,39,305,305,305,305,39,305,305,305,39,39,39,305,305,39,305,39,305,39,305,305,39,39,39,39,39,39,305,305,305,305,305,305,39,305,39,305,305,305,305,39,39,39,39,305,39,39,39,39,39,39,39,39,305,305,305,39,305,305,305,305,305,305,39,305,305,39,305,305,305,305,305,39,39],"coherence":1,"opposite_coherence":0,"dot_radius":2,"dot_side_length":1,"dot_life":-1,"move_distance":1,"aperture_width":300,"aperture_height":300,"dot_color":["black","white","white","white","white","white","white","black","black","white","black","white","black","white","white","white","white","white","black","white","white","white","black","white","black","black","white","black","white","black","white","white","white","black","white","white","black","black","black","white","white","black","white","black","white","black","black","black","black","white","white","black","black","white","black","white","white","black","black","black","white","black","black","white","white","black","black","black","white","black","white","white","black","black","white","white","black","black","white","white","black","white","black","black","black","white","white","black","white","white","black","black","white","white","white","white","black","white","black","white","black","black","white","white","black","black","white","white","black","black","white","white","black","black","black","white","black","black","black","white","white","black","white","white","white","white","white","black","black","black","black","white","black","black","black","white","white","white","black","black","white","black","white","black","white","black","black","white","white","white","white","white","white","black","black","black","black","black","black","white","black","white","black","black","black","black","white","white","white","white","black","white","white","white","white","white","white","white","white","black","black","black","white","black","black","black","black","black","black","white","black","black","white","black","black","black","black","black","white","white"],"dot_shape":"circle","background_color":"#AAA","RDK_type":3,"aperture_type":2,"reinsert_type":2,"frame_rate":16.9,"frame_rate_array":[14,17,16,18,16,18,16,17,17,17,17,17,17,17,17,18,16,16,17,17,17,17,17,17,18,16,16,17,18,16,17,18,16,17,17,17,17,17,17,17,16,17,17,17,17,17,17,17,17,17,17,17,17,17,17,17,17,17,16,17,17,18,16,17,16,17,17,17,17,17,16,17,17,19,15,17,17,18,15,17,17,17,17,17,17,17,17,17,17,17,17,17,17,17,17,17,17,17,17,17,17,16,17,17,17,17,17,17,17,17,17,17,17,17,17,17,17,17,17,17],"number_of_frames":120,"aperture_center_x":698,"aperture_center_y":392.5,"fixation_cross":true,"fixation_cross_width":15,"fixation_cross_height":15,"fixation_cross_color":"#111","fixation_cross_thickness":1,"border":true,"border_thickness":2,"border_color":"transparent","canvas_width":1396,"canvas_height":785,"trial_type":"rdk","trial_index":88,"plugin_version":"2.0.0","time_elapsed":349854},{"rt":1229,"stimulus":"\n        <div class=\"response-container\">\n          <div class=\"response-instruction\">\n            <p>rotate the bar by using the left and right arrow keys.</p>\n            <p>when you are determined, press the Enter key.</p>\n          </div>\n          <div class=\"response-circle\">\n            <div class=\"response-fixation\"></div>\n            <div id=\"bar\" class=\"rotating-bar\"></div>\n          </div>\n        </div>\n      ","response":"Enter","trial_type":"html-keyboard-response","trial_index":89,"plugin_version":"2.1.0","time_elapsed":351085,"random_initial_angle":271,"response_angle_css":271,"response_angle_rdk":179,"angular_error_target":140,"angular_error_distractor":-126,"target_direction":39,"target_group":"white","reward_points":0},{"rt":null,"stimulus":"\n          <p style=\"color: #FF3333;\">Your reward: 0 points</p>\n        ","response":null,"trial_type":"html-keyboard-response","trial_index":90,"plugin_version":"2.1.0","time_elapsed":353104},{"rt":null,"stimulus":"<div class=\"fixation\" style=\"font-size: 60px;\">+</div>","response":null,"trial_type":"html-keyboard-response","trial_index":91,"plugin_version":"2.1.0","time_elapsed":354111},{"phase":"learning-awareness","target_group":"black","condition_label":"B_H_vs_W_L_rep14","target_direction":127,"distractor_direction":220,"session_rotation":11,"rt":-1,"response":"","correct":false,"choices":"ALL_KEYS","correct_choice":["a"],"trial_duration":2000,"flip_timestamps":[],"response_ends_trial":false,"number_of_apertures":200,"number_of_dots":[1,1,1,1,1,1,1,1,1,1,1,1,1,1,1,1,1,1,1,1,1,1,1,1,1,1,1,1,1,1,1,1,1,1,1,1,1,1,1,1,1,1,1,1,1,1,1,1,1,1,1,1,1,1,1,1,1,1,1,1,1,1,1,1,1,1,1,1,1,1,1,1,1,1,1,1,1,1,1,1,1,1,1,1,1,1,1,1,1,1,1,1,1,1,1,1,1,1,1,1,1,1,1,1,1,1,1,1,1,1,1,1,1,1,1,1,1,1,1,1,1,1,1,1,1,1,1,1,1,1,1,1,1,1,1,1,1,1,1,1,1,1,1,1,1,1,1,1,1,1,1,1,1,1,1,1,1,1,1,1,1,1,1,1,1,1,1,1,1,1,1,1,1,1,1,1,1,1,1,1,1,1,1,1,1,1,1,1,1,1,1,1,1,1,1,1,1,1,1,1],"number_of_sets":1,"coherent_direction":[220,127,220,127,220,220,220,127,220,220,127,220,127,220,127,220,127,127,127,220,127,127,220,127,127,127,220,220,220,127,127,220,127,127,220,220,127,220,127,127,220,127,127,220,220,220,220,127,220,127,220,127,220,220,127,220,220,220,220,127,127,127,127,127,127,220,127,127,127,127,127,127,220,220,127,127,127,127,127,220,220,220,127,220,220,220,220,127,127,220,127,220,220,220,127,127,220,127,127,220,127,127,127,127,127,220,127,220,220,127,127,127,127,220,220,127,220,220,127,220,127,127,127,127,220,127,127,220,220,220,127,127,220,127,220,127,220,220,220,127,127,127,220,220,127,127,220,220,220,220,127,220,220,220,220,127,220,127,127,127,220,220,127,127,220,220,127,127,220,127,220,127,220,127,127,220,220,220,127,220,127,220,220,127,127,220,220,127,220,220,220,127,220,220,127,127,220,220,220,220],"coherence":1,"opposite_coherence":0,"dot_radius":2,"dot_side_length":1,"dot_life":-1,"move_distance":1,"aperture_width":300,"aperture_height":300,"dot_color":["white","black","white","black","white","white","white","black","white","white","black","white","black","white","black","white","black","black","black","white","black","black","white","black","black","black","white","white","white","black","black","white","black","black","white","white","black","white","black","black","white","black","black","white","white","white","white","black","white","black","white","black","white","white","black","white","white","white","white","black","black","black","black","black","black","white","black","black","black","black","black","black","white","white","black","black","black","black","black","white","white","white","black","white","white","white","white","black","black","white","black","white","white","white","black","black","white","black","black","white","black","black","black","black","black","white","black","white","white","black","black","black","black","white","white","black","white","white","black","white","black","black","black","black","white","black","black","white","white","white","black","black","white","black","white","black","white","white","white","black","black","black","white","white","black","black","white","white","white","white","black","white","white","white","white","black","white","black","black","black","white","white","black","black","white","white","black","black","white","black","white","black","white","black","black","white","white","white","black","white","black","white","white","black","black","white","white","black","white","white","white","black","white","white","black","black","white","white","white","white"],"dot_shape":"circle","background_color":"#AAA","RDK_type":3,"aperture_type":2,"reinsert_type":2,"frame_rate":16.553719008264462,"frame_rate_array":[22,9,6,8,15,17,17,17,17,17,17,16,17,17,18,15,18,16,17,17,17,16,17,17,17,17,18,17,17,14,22,12,17,16,17,17,16,17,16,17,17,17,16,17,17,16,16,18,15,17,16,19,15,18,16,21,13,15,17,16,16,42,3,7,17,16,17,18,16,21,12,19,17,14,16,17,20,16,15,15,17,17,21,17,12,22,15,13,20,14,17,17,20,13,19,15,17,17,17,17,16,17,17,17,16,17,19,16,17,15,17,17,17,17,16,17,17,17,17,17,17],"number_of_frames":121,"aperture_center_x":698,"aperture_center_y":392.5,"fixation_cross":true,"fixation_cross_width":15,"fixation_cross_height":15,"fixation_cross_color":"#111","fixation_cross_thickness":1,"border":true,"border_thickness":2,"border_color":"transparent","canvas_width":1396,"canvas_height":785,"trial_type":"rdk","trial_index":92,"plugin_version":"2.0.0","time_elapsed":356141},{"rt":4773,"stimulus":"\n        <div class=\"response-container\">\n          <div class=\"response-instruction\">\n            <p>rotate the bar by using the left and right arrow keys.</p>\n            <p>when you are determined, press the Enter key.</p>\n          </div>\n          <div class=\"response-circle\">\n            <div class=\"response-fixation\"></div>\n            <div id=\"bar\" class=\"rotating-bar\"></div>\n          </div>\n        </div>\n      ","response":"Enter","trial_type":"html-keyboard-response","trial_index":93,"plugin_version":"2.1.0","time_elapsed":360916,"random_initial_angle":316,"response_angle_css":180,"response_angle_rdk":270,"angular_error_target":143,"angular_error_distractor":50,"target_direction":127,"target_group":"black","reward_points":0},{"rt":null,"stimulus":"\n          <p style=\"color: #FF3333;\">Your reward: 0 points</p>\n        ","response":null,"trial_type":"html-keyboard-response","trial_index":94,"plugin_version":"2.1.0","time_elapsed":362920},{"rt":null,"stimulus":"<div class=\"fixation\" style=\"font-size: 60px;\">+</div>","response":null,"trial_type":"html-keyboard-response","trial_index":95,"plugin_version":"2.1.0","time_elapsed":363934},{"phase":"learning-awareness","target_group":"black","condition_label":"B_H_vs_W_L_rep15","target_direction":105,"distractor_direction":223,"session_rotation":11,"rt":-1,"response":"","correct":false,"choices":"ALL_KEYS","correct_choice":["a"],"trial_duration":2000,"flip_timestamps":[],"response_ends_trial":false,"number_of_apertures":200,"number_of_dots":[1,1,1,1,1,1,1,1,1,1,1,1,1,1,1,1,1,1,1,1,1,1,1,1,1,1,1,1,1,1,1,1,1,1,1,1,1,1,1,1,1,1,1,1,1,1,1,1,1,1,1,1,1,1,1,1,1,1,1,1,1,1,1,1,1,1,1,1,1,1,1,1,1,1,1,1,1,1,1,1,1,1,1,1,1,1,1,1,1,1,1,1,1,1,1,1,1,1,1,1,1,1,1,1,1,1,1,1,1,1,1,1,1,1,1,1,1,1,1,1,1,1,1,1,1,1,1,1,1,1,1,1,1,1,1,1,1,1,1,1,1,1,1,1,1,1,1,1,1,1,1,1,1,1,1,1,1,1,1,1,1,1,1,1,1,1,1,1,1,1,1,1,1,1,1,1,1,1,1,1,1,1,1,1,1,1,1,1,1,1,1,1,1,1,1,1,1,1,1,1],"number_of_sets":1,"coherent_direction":[223,223,223,223,223,105,105,105,105,223,223,223,105,105,105,223,223,105,223,223,223,223,223,105,105,105,223,223,223,223,105,105,105,223,223,223,105,223,223,223,223,223,105,105,105,105,223,223,105,105,223,105,105,223,105,223,105,105,105,105,223,223,223,223,223,223,223,105,223,223,105,105,105,105,223,105,223,223,223,105,105,223,223,223,223,223,223,223,105,105,223,223,223,223,105,105,105,223,223,105,223,105,223,105,223,223,105,105,223,105,105,105,105,223,105,105,105,223,105,105,223,105,105,105,105,223,105,223,105,223,105,105,105,105,105,105,223,105,105,105,223,223,105,223,223,223,105,223,223,105,105,223,105,105,105,105,223,105,105,223,105,223,105,223,223,105,105,223,105,223,223,223,223,105,223,105,105,223,105,223,223,223,105,105,105,223,105,105,105,223,105,105,105,105,223,105,223,223,223,223],"coherence":1,"opposite_coherence":0,"dot_radius":2,"dot_side_length":1,"dot_life":-1,"move_distance":1,"aperture_width":300,"aperture_height":300,"dot_color":["white","white","white","white","white","black","black","black","black","white","white","white","black","black","black","white","white","black","white","white","white","white","white","black","black","black","white","white","white","white","black","black","black","white","white","white","black","white","white","white","white","white","black","black","black","black","white","white","black","black","white","black","black","white","black","white","black","black","black","black","white","white","white","white","white","white","white","black","white","white","black","black","black","black","white","black","white","white","white","black","black","white","white","white","white","white","white","white","black","black","white","white","white","white","black","black","black","white","white","black","white","black","white","black","white","white","black","black","white","black","black","black","black","white","black","black","black","white","black","black","white","black","black","black","black","white","black","white","black","white","black","black","black","black","black","black","white","black","black","black","white","white","black","white","white","white","black","white","white","black","black","white","black","black","black","black","white","black","black","white","black","white","black","white","white","black","black","white","black","white","white","white","white","black","white","black","black","white","black","white","white","white","black","black","black","white","black","black","black","white","black","black","black","black","white","black","white","white","white","white"],"dot_shape":"circle","background_color":"#AAA","RDK_type":3,"aperture_type":2,"reinsert_type":2,"frame_rate":16.71900826446281,"frame_rate_array":[6,11,24,17,12,17,18,16,16,18,16,18,35,6,8,16,17,16,17,17,20,13,18,16,17,18,16,16,17,17,17,17,17,17,17,16,17,17,16,17,17,17,17,17,17,17,17,17,17,17,17,17,17,17,17,17,18,18,15,17,17,17,16,17,17,17,17,17,17,17,17,17,21,18,17,13,15,17,16,16,17,17,17,16,17,17,17,17,17,17,17,17,16,17,17,17,16,17,17,16,17,17,17,18,16,16,17,17,17,17,17,16,17,17,17,17,17,17,22,12,16],"number_of_frames":121,"aperture_center_x":698,"aperture_center_y":392.5,"fixation_cross":true,"fixation_cross_width":15,"fixation_cross_height":15,"fixation_cross_color":"#111","fixation_cross_thickness":1,"border":true,"border_thickness":2,"border_color":"transparent","canvas_width":1396,"canvas_height":785,"trial_type":"rdk","trial_index":96,"plugin_version":"2.0.0","time_elapsed":365939},{"rt":1277,"stimulus":"\n        <div class=\"response-container\">\n          <div class=\"response-instruction\">\n            <p>rotate the bar by using the left and right arrow keys.</p>\n            <p>when you are determined, press the Enter key.</p>\n          </div>\n          <div class=\"response-circle\">\n            <div class=\"response-fixation\"></div>\n            <div id=\"bar\" class=\"rotating-bar\"></div>\n          </div>\n        </div>\n      ","response":"Enter","trial_type":"html-keyboard-response","trial_index":97,"plugin_version":"2.1.0","time_elapsed":367217,"random_initial_angle":129,"response_angle_css":129,"response_angle_rdk":321,"angular_error_target":-144,"angular_error_distractor":98,"target_direction":105,"target_group":"black","reward_points":0},{"rt":null,"stimulus":"\n          <p style=\"color: #FF3333;\">Your reward: 0 points</p>\n        ","response":null,"trial_type":"html-keyboard-response","trial_index":98,"plugin_version":"2.1.0","time_elapsed":369227},{"rt":null,"stimulus":"<div class=\"fixation\" style=\"font-size: 60px;\">+</div>","response":null,"trial_type":"html-keyboard-response","trial_index":99,"plugin_version":"2.1.0","time_elapsed":370237},{"phase":"learning-awareness","target_group":"white","condition_label":"W_H_vs_B_L_rep18","target_direction":37,"distractor_direction":281,"session_rotation":11,"rt":-1,"response":"","correct":false,"choices":"ALL_KEYS","correct_choice":["a"],"trial_duration":2000,"flip_timestamps":[],"response_ends_trial":false,"number_of_apertures":200,"number_of_dots":[1,1,1,1,1,1,1,1,1,1,1,1,1,1,1,1,1,1,1,1,1,1,1,1,1,1,1,1,1,1,1,1,1,1,1,1,1,1,1,1,1,1,1,1,1,1,1,1,1,1,1,1,1,1,1,1,1,1,1,1,1,1,1,1,1,1,1,1,1,1,1,1,1,1,1,1,1,1,1,1,1,1,1,1,1,1,1,1,1,1,1,1,1,1,1,1,1,1,1,1,1,1,1,1,1,1,1,1,1,1,1,1,1,1,1,1,1,1,1,1,1,1,1,1,1,1,1,1,1,1,1,1,1,1,1,1,1,1,1,1,1,1,1,1,1,1,1,1,1,1,1,1,1,1,1,1,1,1,1,1,1,1,1,1,1,1,1,1,1,1,1,1,1,1,1,1,1,1,1,1,1,1,1,1,1,1,1,1,1,1,1,1,1,1,1,1,1,1,1,1],"number_of_sets":1,"coherent_direction":[281,37,281,37,37,281,281,37,37,37,281,281,37,281,37,37,37,281,281,281,37,281,281,281,281,281,281,37,281,37,37,37,281,37,37,37,281,37,281,37,281,37,281,37,281,37,37,281,37,37,281,281,281,37,37,281,281,281,37,281,37,281,37,281,281,37,37,281,37,37,37,281,37,281,281,281,37,37,281,37,281,281,281,37,281,281,281,37,37,37,281,281,281,281,37,281,281,281,37,281,37,281,37,37,281,281,37,281,37,281,281,281,37,37,281,37,37,37,281,37,37,37,281,37,37,281,281,37,37,281,281,37,37,281,281,37,37,37,37,37,281,37,37,281,37,281,281,37,37,37,281,281,37,37,37,37,37,281,37,37,281,37,37,281,281,37,37,281,281,37,281,281,37,281,281,281,37,281,281,37,37,37,281,281,281,281,281,281,281,37,281,281,281,37,37,37,37,37,281,37],"coherence":1,"opposite_coherence":0,"dot_radius":2,"dot_side_length":1,"dot_life":-1,"move_distance":1,"aperture_width":300,"aperture_height":300,"dot_color":["black","white","black","white","white","black","black","white","white","white","black","black","white","black","white","white","white","black","black","black","white","black","black","black","black","black","black","white","black","white","white","white","black","white","white","white","black","white","black","white","black","white","black","white","black","white","white","black","white","white","black","black","black","white","white","black","black","black","white","black","white","black","white","black","black","white","white","black","white","white","white","black","white","black","black","black","white","white","black","white","black","black","black","white","black","black","black","white","white","white","black","black","black","black","white","black","black","black","white","black","white","black","white","white","black","black","white","black","white","black","black","black","white","white","black","white","white","white","black","white","white","white","black","white","white","black","black","white","white","black","black","white","white","black","black","white","white","white","white","white","black","white","white","black","white","black","black","white","white","white","black","black","white","white","white","white","white","black","white","white","black","white","white","black","black","white","white","black","black","white","black","black","white","black","black","black","white","black","black","white","white","white","black","black","black","black","black","black","black","white","black","black","black","white","white","white","white","white","black","white"],"dot_shape":"circle","background_color":"#AAA","RDK_type":3,"aperture_type":2,"reinsert_type":2,"frame_rate":16.512396694214875,"frame_rate_array":[12,1,17,22,9,19,20,13,16,18,21,21,10,17,16,20,13,14,18,17,16,18,18,17,14,17,18,17,15,16,20,15,17,16,17,19,13,20,13,17,17,17,16,16,18,17,15,16,18,17,15,16,18,17,17,16,21,15,13,16,18,22,13,13,19,17,15,17,18,17,15,16,18,17,15,16,18,17,15,16,18,18,15,17,19,17,14,17,16,18,17,17,15,16,20,15,16,16,15,17,18,22,10,17,19,18,14,16,19,17,15,18,19,12,24,11,15,21,12,18,20],"number_of_frames":121,"aperture_center_x":698,"aperture_center_y":392.5,"fixation_cross":true,"fixation_cross_width":15,"fixation_cross_height":15,"fixation_cross_color":"#111","fixation_cross_thickness":1,"border":true,"border_thickness":2,"border_color":"transparent","canvas_width":1396,"canvas_height":785,"trial_type":"rdk","trial_index":100,"plugin_version":"2.0.0","time_elapsed":372245},{"rt":5163,"stimulus":"\n        <div class=\"response-container\">\n          <div class=\"response-instruction\">\n            <p>rotate the bar by using the left and right arrow keys.</p>\n            <p>when you are determined, press the Enter key.</p>\n          </div>\n          <div class=\"response-circle\">\n            <div class=\"response-fixation\"></div>\n            <div id=\"bar\" class=\"rotating-bar\"></div>\n          </div>\n        </div>\n      ","response":"Enter","trial_type":"html-keyboard-response","trial_index":101,"plugin_version":"2.1.0","time_elapsed":377408,"random_initial_angle":167,"response_angle_css":382,"response_angle_rdk":68,"angular_error_target":31,"angular_error_distractor":147,"target_direction":37,"target_group":"white","reward_points":3},{"rt":null,"stimulus":"\n          <p style=\"color: #00FF00;\">Your reward: 3 points</p>\n        ","response":null,"trial_type":"html-keyboard-response","trial_index":102,"plugin_version":"2.1.0","time_elapsed":379418},{"rt":null,"stimulus":"<div class=\"fixation\" style=\"font-size: 60px;\">+</div>","response":null,"trial_type":"html-keyboard-response","trial_index":103,"plugin_version":"2.1.0","time_elapsed":380440},{"phase":"learning-awareness","target_group":"white","condition_label":"W_H_vs_B_L_rep23","target_direction":51,"distractor_direction":287,"session_rotation":11,"rt":-1,"response":"","correct":false,"choices":"ALL_KEYS","correct_choice":["a"],"trial_duration":2000,"flip_timestamps":[],"response_ends_trial":false,"number_of_apertures":200,"number_of_dots":[1,1,1,1,1,1,1,1,1,1,1,1,1,1,1,1,1,1,1,1,1,1,1,1,1,1,1,1,1,1,1,1,1,1,1,1,1,1,1,1,1,1,1,1,1,1,1,1,1,1,1,1,1,1,1,1,1,1,1,1,1,1,1,1,1,1,1,1,1,1,1,1,1,1,1,1,1,1,1,1,1,1,1,1,1,1,1,1,1,1,1,1,1,1,1,1,1,1,1,1,1,1,1,1,1,1,1,1,1,1,1,1,1,1,1,1,1,1,1,1,1,1,1,1,1,1,1,1,1,1,1,1,1,1,1,1,1,1,1,1,1,1,1,1,1,1,1,1,1,1,1,1,1,1,1,1,1,1,1,1,1,1,1,1,1,1,1,1,1,1,1,1,1,1,1,1,1,1,1,1,1,1,1,1,1,1,1,1,1,1,1,1,1,1,1,1,1,1,1,1],"number_of_sets":1,"coherent_direction":[287,51,287,287,51,51,51,287,287,51,287,287,51,287,51,287,287,287,287,287,287,51,51,51,287,51,287,287,287,287,51,51,51,287,51,287,287,287,51,287,287,51,51,287,287,287,51,51,51,51,287,287,287,51,51,287,287,51,51,287,51,287,51,287,51,287,287,287,51,287,51,287,51,287,51,287,287,287,287,287,287,287,51,287,287,51,287,287,51,287,51,51,287,287,287,51,287,51,287,287,51,287,51,287,51,287,51,287,287,287,51,287,287,51,51,287,51,51,51,287,287,51,287,51,287,287,51,51,287,287,287,51,51,51,287,51,51,51,51,51,51,51,51,51,51,287,51,51,51,287,287,287,287,51,51,51,51,51,51,287,51,287,287,51,287,51,287,287,287,287,51,287,287,51,51,51,51,51,51,51,51,51,51,51,51,287,287,287,51,287,287,51,51,287,51,51,51,51,287,51],"coherence":1,"opposite_coherence":0,"dot_radius":2,"dot_side_length":1,"dot_life":-1,"move_distance":1,"aperture_width":300,"aperture_height":300,"dot_color":["black","white","black","black","white","white","white","black","black","white","black","black","white","black","white","black","black","black","black","black","black","white","white","white","black","white","black","black","black","black","white","white","white","black","white","black","black","black","white","black","black","white","white","black","black","black","white","white","white","white","black","black","black","white","white","black","black","white","white","black","white","black","white","black","white","black","black","black","white","black","white","black","white","black","white","black","black","black","black","black","black","black","white","black","black","white","black","black","white","black","white","white","black","black","black","white","black","white","black","black","white","black","white","black","white","black","white","black","black","black","white","black","black","white","white","black","white","white","white","black","black","white","black","white","black","black","white","white","black","black","black","white","white","white","black","white","white","white","white","white","white","white","white","white","white","black","white","white","white","black","black","black","black","white","white","white","white","white","white","black","white","black","black","white","black","white","black","black","black","black","white","black","black","white","white","white","white","white","white","white","white","white","white","white","white","black","black","black","white","black","black","white","white","black","white","white","white","white","black","white"],"dot_shape":"circle","background_color":"#AAA","RDK_type":3,"aperture_type":2,"reinsert_type":2,"frame_rate":16.775,"frame_rate_array":[14,14,17,16,19,15,17,16,17,16,17,17,17,17,17,17,17,17,16,16,18,17,16,17,17,17,17,17,16,17,17,17,17,17,17,17,17,17,17,16,18,16,15,17,17,17,17,17,17,17,20,14,16,17,17,17,17,16,17,17,17,17,17,17,16,17,17,17,17,17,17,17,17,17,17,17,19,16,15,17,18,15,17,17,16,17,17,17,17,17,17,17,17,17,18,15,17,16,17,16,17,17,17,15,17,17,17,16,17,17,16,17,17,17,17,17,17,17,17,18],"number_of_frames":120,"aperture_center_x":698,"aperture_center_y":392.5,"fixation_cross":true,"fixation_cross_width":15,"fixation_cross_height":15,"fixation_cross_color":"#111","fixation_cross_thickness":1,"border":true,"border_thickness":2,"border_color":"transparent","canvas_width":1396,"canvas_height":785,"trial_type":"rdk","trial_index":104,"plugin_version":"2.0.0","time_elapsed":382443},{"rt":3755,"stimulus":"\n        <div class=\"response-container\">\n          <div class=\"response-instruction\">\n            <p>rotate the bar by using the left and right arrow keys.</p>\n            <p>when you are determined, press the Enter key.</p>\n          </div>\n          <div class=\"response-circle\">\n            <div class=\"response-fixation\"></div>\n            <div id=\"bar\" class=\"rotating-bar\"></div>\n          </div>\n        </div>\n      ","response":"Enter","trial_type":"html-keyboard-response","trial_index":105,"plugin_version":"2.1.0","time_elapsed":386199,"random_initial_angle":292,"response_angle_css":387,"response_angle_rdk":63,"angular_error_target":12,"angular_error_distractor":136,"target_direction":51,"target_group":"white","reward_points":7},{"rt":null,"stimulus":"\n          <p style=\"color: #00FF00;\">Your reward: 7 points</p>\n        ","response":null,"trial_type":"html-keyboard-response","trial_index":106,"plugin_version":"2.1.0","time_elapsed":388217},{"rt":null,"s