[{"rt":14626,"stimulus":"Welcome to the experiment. Press any key to begin.","response":"h","trial_type":"html-keyboard-response","trial_index":0,"plugin_version":"2.1.0","time_elapsed":14633},{"rt":10732,"stimulus":"\n        <div class=\"instructions-container\">\n          <h2>Instructions</h2>\n\n          <p>\n          In this experiment, you will see <strong>two Random Dot Kinematograms (RDKs)</strong> displayed simultaneously.\n          </p>\n\n          <p>\n          An RDK is a visual stimulus consisting of many small dots that move coherently in a single direction. \n          In this experiment, the dots will be either <strong>white</strong> or <strong>black</strong> \n          (see the short demo below for an example of an RDK stimulus).\n          </p>\n\n          <p>\n          On each trial, the two RDKs will move in different directions. \n          Your task is to decide <strong>which RDK appears to contain more dots</strong>.\n          </p>\n\n          <p>\n          The RDK that you judge to have more dots is called the <strong>target RDK</strong>. \n          For example, if the white RDK appears to have more dots than the black RDK, \n          you should report the motion direction of the white RDK.\n          </p>\n\n          <p>\n          After viewing the RDKs, you will rotate a bar to indicate the perceived direction of the target RDK \n          using the <strong>left</strong> and <strong>right arrow keys</strong>. \n          Press <strong>Enter</strong> when you are satisfied with your response.\n          When the bar is held down, the rotation speed increases.\n          </p>\n\n          <p>\n          You will receive points based on the <strong>accuracy of your response</strong>, \n          and your final <strong>bonus reward</strong> may depend on your overall performance. \n          Please try to respond as accurately as possible.\n          </p>\n\n          <p>\n          You will first complete <strong>16 practice trials</strong>. \n          Press the <strong>Enter</strong> key to start the practice phase.\n          </p>\n\n          <canvas id=\"instruction-demo-rdk\" width=\"200\" height=\"200\"style=\"display:block;margin:12px auto; border-radius: 50%;\"></canvas>\n        </div>\n      ","response":"Enter","trial_type":"html-keyboard-response","trial_index":1,"plugin_version":"2.1.0","time_elapsed":25370},{"rt":null,"stimulus":"<div class=\"fixation\" style=\"font-size: 60px;\">+</div>","response":null,"trial_type":"html-keyboard-response","trial_index":2,"plugin_version":"2.1.0","time_elapsed":26373},{"target_group":"black","target_index":1,"condition_label":"practice","rt":-1,"response":"","correct":false,"choices":"ALL_KEYS","correct_choice":["a"],"trial_duration":2000,"flip_timestamps":[],"response_ends_trial":false,"number_of_apertures":2,"number_of_dots":[64,100],"number_of_sets":1,"coherent_direction":[313,160],"coherence":1,"opposite_coherence":0,"dot_radius":2,"dot_side_length":1,"dot_life":-1,"move_distance":1,"aperture_width":300,"aperture_height":300,"dot_color":["white","black"],"dot_shape":"circle","background_color":"#AAA","RDK_type":3,"aperture_type":2,"reinsert_type":2,"frame_rate":16.608333333333334,"frame_rate_array":[7,28,38,16,14,18,14,18,15,16,19,15,18,16,16,17,15,17,18,21,16,18,15,14,18,17,17,17,13,15,15,21,19,14,14,15,18,21,12,14,22,13,15,19,17,18,12,20,17,12,20,15,13,20,13,20,15,18,13,19,17,15,13,18,18,14,19,17,16,16,16,19,12,17,16,16,16,18,16,20,16,15,17,16,14,19,18,15,19,14,16,16,20,12,20,14,15,18,18,16,14,18,17,15,18,15,15,17,23,11,17,15,17,15,20,16,12,18,18,15],"number_of_frames":120,"aperture_center_x":376,"aperture_center_y":629,"fixation_cross":true,"fixation_cross_width":15,"fixation_cross_height":15,"fixation_cross_color":"#111","fixation_cross_thickness":1,"border":true,"border_thickness":2,"border_color":"transparent","canvas_width":752,"canvas_height":1258,"trial_type":"rdk","trial_index":3,"plugin_version":"2.0.0","time_elapsed":28389,"phase":"practice","target_direction":160,"distractor_direction":313},{"rt":17958,"stimulus":"\n        <div class=\"response-container\">\n          <div class=\"response-instruction\">\n            <p>rotate the bar by using the left and right arrow keys.</p>\n            <p>when you are determined, press the Enter key.</p>\n          </div>\n          <div class=\"response-circle\">\n            <div class=\"response-fixation\"></div>\n            <div id=\"bar\" class=\"rotating-bar\"></div>\n          </div>\n        </div>\n      ","response":"Enter","trial_type":"html-keyboard-response","trial_index":4,"plugin_version":"2.1.0","time_elapsed":46351,"random_initial_angle":63,"response_angle_css":63,"response_angle_rdk":27,"angular_error_target":-133,"angular_error_distractor":74,"target_direction":160,"target_group":"black","reward_points":0},{"rt":null,"stimulus":"\n          <p style=\"color: #FF3333;\">Your reward: 0 points</p>\n        ","response":null,"trial_type":"html-keyboard-response","trial_index":5,"plugin_version":"2.1.0","time_elapsed":48359},{"rt":null,"stimulus":"<div class=\"fixation\" style=\"font-size: 60px;\">+</div>","response":null,"trial_type":"html-keyboard-response","trial_index":6,"plugin_version":"2.1.0","time_elapsed":49369},{"target_group":"black","target_index":1,"condition_label":"practice","rt":-1,"response":"","correct":false,"choices":"ALL_KEYS","correct_choice":["a"],"trial_duration":2000,"flip_timestamps":[],"response_ends_trial":false,"number_of_apertures":2,"number_of_dots":[82,100],"number_of_sets":1,"coherent_direction":[31,161],"coherence":1,"opposite_coherence":0,"dot_radius":2,"dot_side_length":1,"dot_life":-1,"move_distance":1,"aperture_width":300,"aperture_height":300,"dot_color":["white","black"],"dot_shape":"circle","background_color":"#AAA","RDK_type":3,"aperture_type":2,"reinsert_type":2,"frame_rate":16.429752066115704,"frame_rate_array":[28,16,16,20,11,13,17,16,17,16,16,18,16,17,18,15,15,17,16,18,16,15,19,18,14,15,17,16,16,17,16,16,19,16,16,17,14,17,16,17,16,16,21,13,16,16,16,16,17,16,16,16,16,17,16,16,17,16,16,17,15,18,19,12,19,15,17,17,15,17,17,16,17,15,18,17,15,15,17,16,17,18,15,19,14,16,15,17,16,16,16,20,14,16,22,12,17,16,16,17,17,15,17,16,18,15,16,17,16,16,17,15,18,17,15,17,16,17,14,17,17],"number_of_frames":121,"aperture_center_x":376,"aperture_center_y":629,"fixation_cross":true,"fixation_cross_width":15,"fixation_cross_height":15,"fixation_cross_color":"#111","fixation_cross_thickness":1,"border":true,"border_thickness":2,"border_color":"transparent","canvas_width":752,"canvas_height":1258,"trial_type":"rdk","trial_index":7,"plugin_version":"2.0.0","time_elapsed":51392,"phase":"practice","target_direction":161,"distractor_direction":31},{"rt":9624,"stimulus":"\n        <div class=\"response-container\">\n          <div class=\"response-instruction\">\n            <p>rotate the bar by using the left and right arrow keys.</p>\n            <p>when you are determined, press the Enter key.</p>\n          </div>\n          <div class=\"response-circle\">\n            <div class=\"response-fixation\"></div>\n            <div id=\"bar\" class=\"rotating-bar\"></div>\n          </div>\n        </div>\n      ","response":"Enter","trial_type":"html-keyboard-response","trial_index":8,"plugin_version":"2.1.0","time_elapsed":61022,"random_initial_angle":214,"response_angle_css":214,"response_angle_rdk":236,"angular_error_target":75,"angular_error_distractor":-155,"target_direction":161,"target_group":"black","reward_points":0},{"rt":null,"stimulus":"\n          <p style=\"color: #FF3333;\">Your reward: 0 points</p>\n        ","response":null,"trial_type":"html-keyboard-response","trial_index":9,"plugin_version":"2.1.0","time_elapsed":63029},{"rt":null,"stimulus":"<div class=\"fixation\" style=\"font-size: 60px;\">+</div>","response":null,"trial_type":"html-keyboard-response","trial_index":10,"plugin_version":"2.1.0","time_elapsed":64037},{"target_group":"white","target_index":0,"condition_label":"practice","rt":-1,"response":"","correct":false,"choices":"ALL_KEYS","correct_choice":["a"],"trial_duration":2000,"flip_timestamps":[],"response_ends_trial":false,"number_of_apertures":2,"number_of_dots":[100,98],"number_of_sets":1,"coherent_direction":[129,257],"coherence":1,"opposite_coherence":0,"dot_radius":2,"dot_side_length":1,"dot_life":-1,"move_distance":1,"aperture_width":300,"aperture_height":300,"dot_color":["white","black"],"dot_shape":"circle","background_color":"#AAA","RDK_type":3,"aperture_type":2,"reinsert_type":2,"frame_rate":16.459016393442624,"frame_rate_array":[29,17,21,12,10,21,16,18,13,17,17,16,21,14,15,15,16,19,14,19,17,14,17,20,11,20,17,12,17,16,17,16,16,20,15,16,15,16,16,16,19,15,16,16,16,17,16,17,17,17,15,16,19,15,15,18,15,18,15,16,23,10,17,18,14,19,15,16,16,18,15,17,17,14,17,18,15,17,17,17,18,14,14,19,16,14,18,17,17,14,18,15,15,17,16,17,16,17,16,17,16,16,17,18,14,17,16,18,16,19,14,17,16,16,16,18,17,16,16,16,15,17],"number_of_frames":122,"aperture_center_x":376,"aperture_center_y":629,"fixation_cross":true,"fixation_cross_width":15,"fixation_cross_height":15,"fixation_cross_color":"#111","fixation_cross_thickness":1,"border":true,"border_thickness":2,"border_color":"transparent","canvas_width":752,"canvas_height":1258,"trial_type":"rdk","trial_index":11,"plugin_version":"2.0.0","time_elapsed":66063,"phase":"practice","target_direction":129,"distractor_direction":257},{"rt":16273,"stimulus":"\n        <div class=\"response-container\">\n          <div class=\"response-instruction\">\n            <p>rotate the bar by using the left and right arrow keys.</p>\n            <p>when you are determined, press the Enter key.</p>\n          </div>\n          <div class=\"response-circle\">\n            <div class=\"response-fixation\"></div>\n            <div id=\"bar\" class=\"rotating-bar\"></div>\n          </div>\n        </div>\n      ","response":"Enter","trial_type":"html-keyboard-response","trial_index":12,"plugin_version":"2.1.0","time_elapsed":82341,"random_initial_angle":142,"response_angle_css":142,"response_angle_rdk":308,"angular_error_target":179,"angular_error_distractor":51,"target_direction":129,"target_group":"white","reward_points":0},{"rt":null,"stimulus":"\n          <p style=\"color: #FF3333;\">Your reward: 0 points</p>\n        ","response":null,"trial_type":"html-keyboard-response","trial_index":13,"plugin_version":"2.1.0","time_elapsed":84344},{"rt":null,"stimulus":"<div class=\"fixation\" style=\"font-size: 60px;\">+</div>","response":null,"trial_type":"html-keyboard-response","trial_index":14,"plugin_version":"2.1.0","time_elapsed":85350},{"target_group":"white","target_index":0,"condition_label":"practice","rt":-1,"response":"","correct":false,"choices":"ALL_KEYS","correct_choice":["a"],"trial_duration":2000,"flip_timestamps":[],"response_ends_trial":false,"number_of_apertures":2,"number_of_dots":[100,72],"number_of_sets":1,"coherent_direction":[299,156],"coherence":1,"opposite_coherence":0,"dot_radius":2,"dot_side_length":1,"dot_life":-1,"move_distance":1,"aperture_width":300,"aperture_height":300,"dot_color":["white","black"],"dot_shape":"circle","background_color":"#AAA","RDK_type":3,"aperture_type":2,"reinsert_type":2,"frame_rate":16.295081967213115,"frame_rate_array":[13,16,18,20,9,16,16,16,16,19,15,15,17,15,16,18,14,19,15,16,16,18,19,15,18,16,15,21,12,16,18,17,12,17,17,15,17,19,14,18,15,16,17,17,15,18,15,17,15,17,15,17,16,17,16,16,16,18,16,15,17,16,20,13,17,16,16,16,16,17,16,18,16,16,17,16,16,16,16,16,16,18,16,17,16,17,16,16,16,18,15,16,17,16,15,17,17,17,15,16,16,20,12,17,16,18,15,21,12,18,18,14,17,16,17,16,15,17,18,19,12,17],"number_of_frames":122,"aperture_center_x":376,"aperture_center_y":629,"fixation_cross":true,"fixation_cross_width":15,"fixation_cross_height":15,"fixation_cross_color":"#111","fixation_cross_thickness":1,"border":true,"border_thickness":2,"border_color":"transparent","canvas_width":752,"canvas_height":1258,"trial_type":"rdk","trial_index":15,"plugin_version":"2.0.0","time_elapsed":87372,"phase":"practice","target_direction":299,"distractor_direction":156},{"rt":72209,"stimulus":"\n        <div class=\"response-container\">\n          <div class=\"response-instruction\">\n            <p>rotate the bar by using the left and right arrow keys.</p>\n            <p>when you are determined, press the Enter key.</p>\n          </div>\n          <div class=\"response-circle\">\n            <div class=\"response-fixation\"></div>\n            <div id=\"bar\" class=\"rotating-bar\"></div>\n          </div>\n        </div>\n      ","response":"Enter","trial_type":"html-keyboard-response","trial_index":16,"plugin_version":"2.1.0","time_elapsed":159586,"random_initial_angle":168,"response_angle_css":168,"response_angle_rdk":282,"angular_error_target":-17,"angular_error_distractor":126,"target_direction":299,"target_group":"white","reward_points":6},{"rt":null,"stimulus":"\n          <p style=\"color: #00FF00;\">Your reward: 6 points</p>\n        ","response":null,"trial_type":"html-keyboard-response","trial_index":17,"plugin_version":"2.1.0","time_elapsed":161594},{"rt":null,"stimulus":"<div class=\"fixation\" style=\"font-size: 60px;\">+</div>","response":null,"trial_type":"html-keyboard-response","trial_index":18,"plugin_version":"2.1.0","time_elapsed":162602},{"target_group":"black","target_index":1,"condition_label":"practice","rt":-1,"response":"","correct":false,"choices":"ALL_KEYS","correct_choice":["a"],"trial_duration":2000,"flip_timestamps":[],"response_ends_trial":false,"number_of_apertures":2,"number_of_dots":[51,100],"number_of_sets":1,"coherent_direction":[311,65],"coherence":1,"opposite_coherence":0,"dot_radius":2,"dot_side_length":1,"dot_life":-1,"move_distance":1,"aperture_width":300,"aperture_height":300,"dot_color":["white","black"],"dot_shape":"circle","background_color":"#AAA","RDK_type":3,"aperture_type":2,"reinsert_type":2,"frame_rate":16.401639344262296,"frame_rate_array":[14,15,24,15,16,15,18,19,15,16,15,18,15,16,18,17,16,14,17,16,17,20,12,19,15,15,20,14,16,17,16,18,15,17,16,17,17,15,15,19,16,14,18,15,18,16,17,15,18,16,15,21,13,15,21,13,17,16,18,16,15,19,15,16,17,15,16,17,21,11,16,18,18,13,18,16,16,17,17,15,17,17,15,19,14,18,15,17,16,17,16,18,16,15,18,15,15,17,17,17,14,16,18,15,18,17,15,16,16,18,16,19,14,15,19,16,15,17,16,16,18,15],"number_of_frames":122,"aperture_center_x":376,"aperture_center_y":629,"fixation_cross":true,"fixation_cross_width":15,"fixation_cross_height":15,"fixation_cross_color":"#111","fixation_cross_thickness":1,"border":true,"border_thickness":2,"border_color":"transparent","canvas_width":752,"canvas_height":1258,"trial_type":"rdk","trial_index":19,"plugin_version":"2.0.0","time_elapsed":164624,"phase":"practice","target_direction":65,"distractor_direction":311},{"rt":4571,"stimulus":"\n        <div class=\"response-container\">\n          <div class=\"response-instruction\">\n            <p>rotate the bar by using the left and right arrow keys.</p>\n            <p>when you are determined, press the Enter key.</p>\n          </div>\n          <div class=\"response-circle\">\n            <div class=\"response-fixation\"></div>\n            <div id=\"bar\" class=\"rotating-bar\"></div>\n          </div>\n        </div>\n      ","response":"Enter","trial_type":"html-keyboard-response","trial_index":20,"plugin_version":"2.1.0","time_elapsed":169200,"random_initial_angle":108,"response_angle_css":108,"response_angle_rdk":342,"angular_error_target":-83,"angular_error_distractor":31,"target_direction":65,"target_group":"black","reward_points":0},{"rt":null,"stimulus":"\n          <p style=\"color: #FF3333;\">Your reward: 0 points</p>\n        ","response":null,"trial_type":"html-keyboard-response","trial_index":21,"plugin_version":"2.1.0","time_elapsed":171206},{"rt":null,"stimulus":"<div class=\"fixation\" style=\"font-size: 60px;\">+</div>","response":null,"trial_type":"html-keyboard-response","trial_index":22,"plugin_version":"2.1.0","time_elapsed":172215},{"target_group":"white","target_index":0,"condition_label":"practice","rt":-1,"response":"","correct":false,"choices":"ALL_KEYS","correct_choice":["a"],"trial_duration":2000,"flip_timestamps":[],"response_ends_trial":false,"number_of_apertures":2,"number_of_dots":[100,73],"number_of_sets":1,"coherent_direction":[316,175],"coherence":1,"opposite_coherence":0,"dot_radius":2,"dot_side_length":1,"dot_life":-1,"move_distance":1,"aperture_width":300,"aperture_height":300,"dot_color":["white","black"],"dot_shape":"circle","background_color":"#AAA","RDK_type":3,"aperture_type":2,"reinsert_type":2,"frame_rate":16.418032786885245,"frame_rate_array":[11,27,18,18,16,12,15,18,17,16,16,15,17,17,17,17,15,19,15,15,17,15,16,16,19,18,17,13,17,16,17,17,17,16,16,16,16,16,15,19,17,16,15,17,19,12,19,16,14,19,16,17,15,18,15,17,17,16,17,17,15,15,20,12,21,10,18,18,15,17,17,16,16,17,16,17,16,16,18,14,17,17,16,16,18,16,16,16,16,15,19,16,14,17,17,17,15,18,16,15,18,16,17,16,15,16,19,16,14,18,19,16,15,15,19,16,18,13,16,16,17,18],"number_of_frames":122,"aperture_center_x":376,"aperture_center_y":629,"fixation_cross":true,"fixation_cross_width":15,"fixation_cross_height":15,"fixation_cross_color":"#111","fixation_cross_thickness":1,"border":true,"border_thickness":2,"border_color":"transparent","canvas_width":752,"canvas_height":1258,"trial_type":"rdk","trial_index":23,"plugin_version":"2.0.0","time_elapsed":174236,"phase":"practice","target_direction":316,"distractor_direction":175},{"rt":24704,"stimulus":"\n        <div class=\"response-container\">\n          <div class=\"response-instruction\">\n            <p>rotate the bar by using the left and right arrow keys.</p>\n            <p>when you are determined, press the Enter key.</p>\n          </div>\n          <div class=\"response-circle\">\n            <div class=\"response-fixation\"></div>\n            <div id=\"bar\" class=\"rotating-bar\"></div>\n          </div>\n        </div>\n      ","response":"Enter","trial_type":"html-keyboard-response","trial_index":24,"plugin_version":"2.1.0","time_elapsed":198944,"random_initial_angle":146,"response_angle_css":146,"response_angle_rdk":304,"angular_error_target":-12,"angular_error_distractor":129,"target_direction":316,"target_group":"white","reward_points":7},{"rt":null,"stimulus":"\n          <p style=\"color: #00FF00;\">Your reward: 7 points</p>\n        ","response":null,"trial_type":"html-keyboard-response","trial_index":25,"plugin_version":"2.1.0","time_elapsed":200948},{"rt":null,"stimulus":"<div class=\"fixation\" style=\"font-size: 60px;\">+</div>","response":null,"trial_type":"html-keyboard-response","trial_index":26,"plugin_version":"2.1.0","time_elapsed":201956},{"target_group":"white","target_index":0,"condition_label":"practice","rt":-1,"response":"","correct":false,"choices":"ALL_KEYS","correct_choice":["a"],"trial_duration":2000,"flip_timestamps":[],"response_ends_trial":false,"number_of_apertures":2,"number_of_dots":[100,59],"number_of_sets":1,"coherent_direction":[191,59],"coherence":1,"opposite_coherence":0,"dot_radius":2,"dot_side_length":1,"dot_life":-1,"move_distance":1,"aperture_width":300,"aperture_height":300,"dot_color":["white","black"],"dot_shape":"circle","background_color":"#AAA","RDK_type":3,"aperture_type":2,"reinsert_type":2,"frame_rate":16.39344262295082,"frame_rate_array":[26,17,16,15,13,17,16,16,17,17,13,17,16,18,16,15,17,18,15,16,18,15,16,17,17,16,16,17,16,17,15,17,16,17,15,17,16,16,17,16,16,16,17,16,16,17,17,16,19,15,17,15,15,19,17,16,14,15,17,20,13,18,14,17,16,18,15,16,16,18,15,18,15,15,17,19,15,16,20,13,16,17,18,13,16,16,19,14,16,18,15,17,16,17,16,16,16,17,18,14,16,17,16,16,17,16,17,17,16,17,18,16,15,16,17,16,18,19,13,16,17,17],"number_of_frames":122,"aperture_center_x":376,"aperture_center_y":629,"fixation_cross":true,"fixation_cross_width":15,"fixation_cross_height":15,"fixation_cross_color":"#111","fixation_cross_thickness":1,"border":true,"border_thickness":2,"border_color":"transparent","canvas_width":752,"canvas_height":1258,"trial_type":"rdk","trial_index":27,"plugin_version":"2.0.0","time_elapsed":203977,"phase":"practice","target_direction":191,"distractor_direction":59},{"rt":15451,"stimulus":"\n        <div class=\"response-container\">\n          <div class=\"response-instruction\">\n            <p>rotate the bar by using the left and right arrow keys.</p>\n            <p>when you are determined, press the Enter key.</p>\n          </div>\n          <div class=\"response-circle\">\n            <div class=\"response-fixation\"></div>\n            <div id=\"bar\" class=\"rotating-bar\"></div>\n          </div>\n        </div>\n      ","response":"Enter","trial_type":"html-keyboard-response","trial_index":28,"plugin_version":"2.1.0","time_elapsed":219430,"random_initial_angle":27,"response_angle_css":27,"response_angle_rdk":63,"angular_error_target":-128,"angular_error_distractor":4,"target_direction":191,"target_group":"white","reward_points":0},{"rt":null,"stimulus":"\n          <p style=\"color: #FF3333;\">Your reward: 0 points</p>\n        ","response":null,"trial_type":"html-keyboard-response","trial_index":29,"plugin_version":"2.1.0","time_elapsed":221434},{"rt":null,"stimulus":"<div class=\"fixation\" style=\"font-size: 60px;\">+</div>","response":null,"trial_type":"html-keyboard-response","trial_index":30,"plugin_version":"2.1.0","time_elapsed":222443},{"target_group":"black","target_index":1,"condition_label":"practice","rt":-1,"response":"","correct":false,"choices":"ALL_KEYS","correct_choice":["a"],"trial_duration":2000,"flip_timestamps":[],"response_ends_trial":false,"number_of_apertures":2,"number_of_dots":[68,100],"number_of_sets":1,"coherent_direction":[186,312],"coherence":1,"opposite_coherence":0,"dot_radius":2,"dot_side_length":1,"dot_life":-1,"move_distance":1,"aperture_width":300,"aperture_height":300,"dot_color":["white","black"],"dot_shape":"circle","background_color":"#AAA","RDK_type":3,"aperture_type":2,"reinsert_type":2,"frame_rate":16.401639344262296,"frame_rate_array":[9,31,13,18,16,17,14,18,15,17,17,20,15,14,16,18,17,16,18,12,18,16,20,15,15,16,16,17,14,18,17,16,15,17,18,16,14,17,16,17,16,17,18,17,14,14,19,16,17,17,16,15,17,14,19,17,18,14,16,18,18,15,14,17,16,17,19,10,18,17,15,18,16,17,17,17,15,18,16,18,15,15,17,16,16,17,18,14,18,17,15,15,20,17,12,19,16,17,16,16,17,14,17,18,15,18,16,16,17,15,16,17,17,17,15,18,16,17,14,16,18,15],"number_of_frames":122,"aperture_center_x":376,"aperture_center_y":629,"fixation_cross":true,"fixation_cross_width":15,"fixation_cross_height":15,"fixation_cross_color":"#111","fixation_cross_thickness":1,"border":true,"border_thickness":2,"border_color":"transparent","canvas_width":752,"canvas_height":1258,"trial_type":"rdk","trial_index":31,"plugin_version":"2.0.0","time_elapsed":224461,"phase":"practice","target_direction":312,"distractor_direction":186},{"rt":24758,"stimulus":"\n        <div class=\"response-container\">\n          <div class=\"response-instruction\">\n            <p>rotate the bar by using the left and right arrow keys.</p>\n            <p>when you are determined, press the Enter key.</p>\n          </div>\n          <div class=\"response-circle\">\n            <div class=\"response-fixation\"></div>\n            <div id=\"bar\" class=\"rotating-bar\"></div>\n          </div>\n        </div>\n      ","response":"Enter","trial_type":"html-keyboard-response","trial_index":32,"plugin_version":"2.1.0","time_elapsed":249222,"random_initial_angle":177,"response_angle_css":177,"response_angle_rdk":273,"angular_error_target":-39,"angular_error_distractor":87,"target_direction":312,"target_group":"black","reward_points":2},{"rt":null,"stimulus":"\n          <p style=\"color: #FF3333;\">Your reward: 2 points</p>\n        ","response":null,"trial_type":"html-keyboard-response","trial_index":33,"plugin_version":"2.1.0","time_elapsed":251225},{"rt":null,"stimulus":"<div class=\"fixation\" style=\"font-size: 60px;\">+</div>","response":null,"trial_type":"html-keyboard-response","trial_index":34,"plugin_version":"2.1.0","time_elapsed":252234},{"target_group":"white","target_index":0,"condition_label":"practice","rt":-1,"response":"","correct":false,"choices":"ALL_KEYS","correct_choice":["a"],"trial_duration":2000,"flip_timestamps":[],"response_ends_trial":false,"number_of_apertures":2,"number_of_dots":[100,67],"number_of_sets":1,"coherent_direction":[52,312],"coherence":1,"opposite_coherence":0,"dot_radius":2,"dot_side_length":1,"dot_life":-1,"move_distance":1,"aperture_width":300,"aperture_height":300,"dot_color":["white","black"],"dot_shape":"circle","background_color":"#AAA","RDK_type":3,"aperture_type":2,"reinsert_type":2,"frame_rate":16.276422764227643,"frame_rate_array":[26,12,1,17,17,14,16,18,16,15,16,16,18,18,17,13,17,16,17,16,16,18,16,16,16,18,20,11,16,17,19,13,16,18,14,16,18,17,15,16,16,18,16,16,17,17,16,16,19,14,17,17,15,17,16,18,17,15,17,17,17,16,17,17,17,12,17,16,21,12,17,20,14,17,14,18,15,17,16,15,19,14,18,18,12,15,18,15,16,18,15,17,16,16,16,17,17,16,20,18,12,17,17,16,15,17,17,17,17,14,19,14,19,16,17,14,18,14,17,17,16,17,16],"number_of_frames":123,"aperture_center_x":376,"aperture_center_y":629,"fixation_cross":true,"fixation_cross_width":15,"fixation_cross_height":15,"fixation_cross_color":"#111","fixation_cross_thickness":1,"border":true,"border_thickness":2,"border_color":"transparent","canvas_width":752,"canvas_height":1258,"trial_type":"rdk","trial_index":35,"plugin_version":"2.0.0","time_elapsed":254256,"phase":"practice","target_direction":52,"distractor_direction":312},{"rt":25996,"stimulus":"\n        <div class=\"response-container\">\n          <div class=\"response-instruction\">\n            <p>rotate the bar by using the left and right arrow keys.</p>\n            <p>when you are determined, press the Enter key.</p>\n          </div>\n          <div class=\"response-circle\">\n            <div class=\"response-fixation\"></div>\n            <div id=\"bar\" class=\"rotating-bar\"></div>\n          </div>\n        </div>\n      ","response":"Enter","trial_type":"html-keyboard-response","trial_index":36,"plugin_version":"2.1.0","time_elapsed":280255,"random_initial_angle":295,"response_angle_css":295,"response_angle_rdk":155,"angular_error_target":103,"angular_error_distractor":-157,"target_direction":52,"target_group":"white","reward_points":0},{"rt":null,"stimulus":"\n          <p style=\"color: #FF3333;\">Your reward: 0 points</p>\n        ","response":null,"trial_type":"html-keyboard-response","trial_index":37,"plugin_version":"2.1.0","time_elapsed":282259},{"rt":null,"stimulus":"<div class=\"fixation\" style=\"font-size: 60px;\">+</div>","response":null,"trial_type":"html-keyboard-response","trial_index":38,"plugin_version":"2.1.0","time_elapsed":283266},{"target_group":"black","target_index":1,"condition_label":"practice","rt":-1,"response":"","correct":false,"choices":"ALL_KEYS","correct_choice":["a"],"trial_duration":2000,"flip_timestamps":[],"response_ends_trial":false,"number_of_apertures":2,"number_of_dots":[67,100],"number_of_sets":1,"coherent_direction":[79,230],"coherence":1,"opposite_coherence":0,"dot_radius":2,"dot_side_length":1,"dot_life":-1,"move_distance":1,"aperture_width":300,"aperture_height":300,"dot_color":["white","black"],"dot_shape":"circle","background_color":"#AAA","RDK_type":3,"aperture_type":2,"reinsert_type":2,"frame_rate":16.28688524590164,"frame_rate_array":[14,13,18,16,16,14,17,17,18,15,16,16,17,15,18,16,16,17,15,17,16,18,15,16,15,17,15,17,16,18,16,15,16,17,16,17,17,17,15,20,14,16,18,14,17,17,15,16,17,17,18,14,15,16,15,18,17,16,17,15,18,14,17,17,15,16,17,16,16,16,16,16,19,16,19,13,16,17,16,19,14,18,15,22,12,17,14,17,17,16,16,16,16,22,12,17,15,17,16,18,17,15,17,17,16,15,17,15,17,17,15,17,16,17,17,16,20,12,18,16,15,17],"number_of_frames":122,"aperture_center_x":376,"aperture_center_y":629,"fixation_cross":true,"fixation_cross_width":15,"fixation_cross_height":15,"fixation_cross_color":"#111","fixation_cross_thickness":1,"border":true,"border_thickness":2,"border_color":"transparent","canvas_width":752,"canvas_height":1258,"trial_type":"rdk","trial_index":39,"plugin_version":"2.0.0","time_elapsed":285286,"phase":"practice","target_direction":230,"distractor_direction":79},{"rt":11612,"stimulus":"\n        <div class=\"response-container\">\n          <div class=\"response-instruction\">\n            <p>rotate the bar by using the left and right arrow keys.</p>\n            <p>when you are determined, press the Enter key.</p>\n          </div>\n          <div class=\"response-circle\">\n            <div class=\"response-fixation\"></div>\n            <div id=\"bar\" class=\"rotating-bar\"></div>\n          </div>\n        </div>\n      ","response":"Enter","trial_type":"html-keyboard-response","trial_index":40,"plugin_version":"2.1.0","time_elapsed":296904,"random_initial_angle":351,"response_angle_css":351,"response_angle_rdk":99,"angular_error_target":-131,"angular_error_distractor":20,"target_direction":230,"target_group":"black","reward_points":0},{"rt":null,"stimulus":"\n          <p style=\"color: #FF3333;\">Your reward: 0 points</p>\n        ","response":null,"trial_type":"html-keyboard-response","trial_index":41,"plugin_version":"2.1.0","time_elapsed":298908},{"rt":null,"stimulus":"<div class=\"fixation\" style=\"font-size: 60px;\">+</div>","response":null,"trial_type":"html-keyboard-response","trial_index":42,"plugin_version":"2.1.0","time_elapsed":299915},{"target_group":"white","target_index":0,"condition_label":"practice","rt":-1,"response":"","correct":false,"choices":"ALL_KEYS","correct_choice":["a"],"trial_duration":2000,"flip_timestamps":[],"response_ends_trial":false,"number_of_apertures":2,"number_of_dots":[100,82],"number_of_sets":1,"coherent_direction":[341,142],"coherence":1,"opposite_coherence":0,"dot_radius":2,"dot_side_length":1,"dot_life":-1,"move_distance":1,"aperture_width":300,"aperture_height":300,"dot_color":["white","black"],"dot_shape":"circle","background_color":"#AAA","RDK_type":3,"aperture_type":2,"reinsert_type":2,"frame_rate":16.4672131147541,"frame_rate_array":[26,16,15,18,14,19,14,15,16,18,16,17,17,15,15,17,16,15,18,17,17,14,17,16,17,17,15,18,15,16,18,15,18,16,18,15,17,14,18,17,16,17,16,19,15,16,16,16,17,18,14,17,17,17,15,17,17,19,13,16,18,15,16,16,17,16,16,16,16,17,18,17,16,16,14,17,18,15,18,16,17,17,15,17,15,18,15,17,16,17,17,15,17,17,16,16,17,18,14,17,17,15,18,15,18,17,16,16,16,18,15,17,19,14,19,19,12,16,16,16,17,17],"number_of_frames":122,"aperture_center_x":376,"aperture_center_y":629,"fixation_cross":true,"fixation_cross_width":15,"fixation_cross_height":15,"fixation_cross_color":"#111","fixation_cross_thickness":1,"border":true,"border_thickness":2,"border_color":"transparent","canvas_width":752,"canvas_height":1258,"trial_type":"rdk","trial_index":43,"plugin_version":"2.0.0","time_elapsed":301935,"phase":"practice","target_direction":341,"distractor_direction":142},{"rt":17844,"stimulus":"\n        <div class=\"response-container\">\n          <div class=\"response-instruction\">\n            <p>rotate the bar by using the left and right arrow keys.</p>\n            <p>when you are determined, press the Enter key.</p>\n          </div>\n          <div class=\"response-circle\">\n            <div class=\"response-fixation\"></div>\n            <div id=\"bar\" class=\"rotating-bar\"></div>\n          </div>\n        </div>\n      ","response":"Enter","trial_type":"html-keyboard-response","trial_index":44,"plugin_version":"2.1.0","time_elapsed":319783,"random_initial_angle":178,"response_angle_css":178,"response_angle_rdk":272,"angular_error_target":-69,"angular_error_distractor":130,"target_direction":341,"target_group":"white","reward_points":0},{"rt":null,"stimulus":"\n          <p style=\"color: #FF3333;\">Your reward: 0 points</p>\n        ","response":null,"trial_type":"html-keyboard-response","trial_index":45,"plugin_version":"2.1.0","time_elapsed":321787},{"rt":null,"stimulus":"<div class=\"fixation\" style=\"font-size: 60px;\">+</div>","response":null,"trial_type":"html-keyboard-response","trial_index":46,"plugin_version":"2.1.0","time_elapsed":322795},{"target_group":"white","target_index":0,"condition_label":"practice","rt":-1,"response":"","correct":false,"choices":"ALL_KEYS","correct_choice":["a"],"trial_duration":2000,"flip_timestamps":[],"response_ends_trial":false,"number_of_apertures":2,"number_of_dots":[100,60],"number_of_sets":1,"coherent_direction":[94,261],"coherence":1,"opposite_coherence":0,"dot_radius":2,"dot_side_length":1,"dot_life":-1,"move_distance":1,"aperture_width":300,"aperture_height":300,"dot_color":["white","black"],"dot_shape":"circle","background_color":"#AAA","RDK_type":3,"aperture_type":2,"reinsert_type":2,"frame_rate":16.450819672131146,"frame_rate_array":[8,32,20,15,13,15,17,15,20,16,14,17,15,16,18,15,19,19,12,16,17,18,18,15,17,16,17,16,18,14,17,16,18,16,17,13,19,17,16,15,18,15,16,17,18,14,17,15,17,16,18,17,17,18,15,16,16,16,16,14,16,17,16,18,15,17,16,16,19,13,16,19,16,14,19,16,14,18,15,18,16,17,16,19,16,13,16,17,17,16,17,16,17,15,18,16,17,17,17,16,15,16,16,16,16,17,15,17,19,15,17,15,17,17,16,17,16,16,17,17,18,17],"number_of_frames":122,"aperture_center_x":376,"aperture_center_y":629,"fixation_cross":true,"fixation_cross_width":15,"fixation_cross_height":15,"fixation_cross_color":"#111","fixation_cross_thickness":1,"border":true,"border_thickness":2,"border_color":"transparent","canvas_width":752,"canvas_height":1258,"trial_type":"rdk","trial_index":47,"plugin_version":"2.0.0","time_elapsed":324813,"phase":"practice","target_direction":94,"distractor_direction":261},{"rt":4147,"stimulus":"\n        <div class=\"response-container\">\n          <div class=\"response-instruction\">\n            <p>rotate the bar by using the left and right arrow keys.</p>\n            <p>when you are determined, press the Enter key.</p>\n          </div>\n          <div class=\"response-circle\">\n            <div class=\"response-fixation\"></div>\n            <div id=\"bar\" class=\"rotating-bar\"></div>\n          </div>\n        </div>\n      ","response":"Enter","trial_type":"html-keyboard-response","trial_index":48,"plugin_version":"2.1.0","time_elapsed":328966,"random_initial_angle":313,"response_angle_css":313,"response_angle_rdk":137,"angular_error_target":43,"angular_error_distractor":-124,"target_direction":94,"target_group":"white","reward_points":1},{"rt":null,"stimulus":"\n          <p style=\"color: #FF3333;\">Your reward: 1 points</p>\n        ","response":null,"trial_type":"html-keyboard-response","trial_index":49,"plugin_version":"2.1.0","time_elapsed":330970},{"rt":null,"stimulus":"<div class=\"fixation\" style=\"font-size: 60px;\">+</div>","response":null,"trial_type":"html-keyboard-response","trial_index":50,"plugin_version":"2.1.0","time_elapsed":331977},{"target_group":"white","target_index":0,"condition_label":"practice","rt":-1,"response":"","correct":false,"choices":"ALL_KEYS","correct_choice":["a"],"trial_duration":2000,"flip_timestamps":[],"response_ends_trial":false,"number_of_apertures":2,"number_of_dots":[100,80],"number_of_sets":1,"coherent_direction":[161,274],"coherence":1,"opposite_coherence":0,"dot_radius":2,"dot_side_length":1,"dot_life":-1,"move_distance":1,"aperture_width":300,"aperture_height":300,"dot_color":["white","black"],"dot_shape":"circle","background_color":"#AAA","RDK_type":3,"aperture_type":2,"reinsert_type":2,"frame_rate":16.40983606557377,"frame_rate_array":[26,17,16,16,14,16,18,15,16,22,13,16,16,17,15,18,17,17,19,11,17,18,16,15,19,15,16,16,16,17,15,19,15,17,20,12,17,17,15,17,17,16,17,15,20,13,18,16,15,17,19,13,16,17,18,15,17,19,13,17,19,15,21,13,15,18,15,14,18,15,16,16,17,17,16,15,18,16,21,11,16,17,16,17,16,17,17,16,16,16,20,15,16,16,15,17,18,14,17,17,16,16,15,17,15,17,15,16,16,18,15,18,17,16,16,17,15,16,17,15,17,15],"number_of_frames":122,"aperture_center_x":376,"aperture_center_y":629,"fixation_cross":true,"fixation_cross_width":15,"fixation_cross_height":15,"fixation_cross_color":"#111","fixation_cross_thickness":1,"border":true,"border_thickness":2,"border_color":"transparent","canvas_width":752,"canvas_height":1258,"trial_type":"rdk","trial_index":51,"plugin_version":"2.0.0","time_elapsed":334000,"phase":"practice","target_direction":161,"distractor_direction":274},{"rt":21360,"stimulus":"\n        <div class=\"response-container\">\n          <div class=\"response-instruction\">\n            <p>rotate the bar by using the left and right arrow keys.</p>\n            <p>when you are determined, press the Enter key.</p>\n          </div>\n          <div class=\"response-circle\">\n            <div class=\"response-fixation\"></div>\n            <div id=\"bar\" class=\"rotating-bar\"></div>\n          </div>\n        </div>\n      ","response":"Enter","trial_type":"html-keyboard-response","trial_index":52,"plugin_version":"2.1.0","time_elapsed":355362,"random_initial_angle":321,"response_angle_css":321,"response_angle_rdk":129,"angular_error_target":-32,"angular_error_distractor":-145,"target_direction":161,"target_group":"white","reward_points":3},{"rt":null,"stimulus":"\n          <p style=\"color: #00FF00;\">Your reward: 3 points</p>\n        ","response":null,"trial_type":"html-keyboard-response","trial_index":53,"plugin_version":"2.1.0","time_elapsed":357366},{"rt":null,"stimulus":"<div class=\"fixation\" style=\"font-size: 60px;\">+</div>","response":null,"trial_type":"html-keyboard-response","trial_index":54,"plugin_version":"2.1.0","time_elapsed":358372},{"target_group":"black","target_index":1,"condition_label":"practice","rt":-1,"response":"","correct":false,"choices":"ALL_KEYS","correct_choice":["a"],"trial_duration":2000,"flip_timestamps":[],"response_ends_trial":false,"number_of_apertures":2,"number_of_dots":[82,100],"number_of_sets":1,"coherent_direction":[87,209],"coherence":1,"opposite_coherence":0,"dot_radius":2,"dot_side_length":1,"dot_life":-1,"move_distance":1,"aperture_width":300,"aperture_height":300,"dot_color":["white","black"],"dot_shape":"circle","background_color":"#AAA","RDK_type":3,"aperture_type":2,"reinsert_type":2,"frame_rate":16.454545454545453,"frame_rate_array":[28,17,18,16,14,17,15,17,17,17,15,16,18,16,17,14,16,18,17,20,12,16,17,15,18,15,19,14,16,17,18,14,19,16,15,15,18,16,17,16,17,15,16,17,16,15,18,15,19,14,18,15,17,17,17,16,17,16,17,18,14,17,17,15,16,18,19,14,17,15,17,15,18,15,17,17,15,17,18,14,17,17,17,16,17,15,15,17,16,18,15,15,16,17,17,16,17,16,16,16,16,18,17,16,15,17,17,16,17,16,16,18,15,16,19,14,16,18,15,16,16],"number_of_frames":121,"aperture_center_x":376,"aperture_center_y":629,"fixation_cross":true,"fixation_cross_width":15,"fixation_cross_height":15,"fixation_cross_color":"#111","fixation_cross_thickness":1,"border":true,"border_thickness":2,"border_color":"transparent","canvas_width":752,"canvas_height":1258,"trial_type":"rdk","trial_index":55,"plugin_version":"2.0.0","time_elapsed":360402,"phase":"practice","target_direction":209,"distractor_direction":87},{"rt":15685,"stimulus":"\n        <div class=\"response-container\">\n          <div class=\"response-instruction\">\n            <p>rotate the bar by using the left and right arrow keys.</p>\n            <p>when you are determined, press the Enter key.</p>\n          </div>\n          <div class=\"response-circle\">\n            <div class=\"response-fixation\"></div>\n            <div id=\"bar\" class=\"rotating-bar\"></div>\n          </div>\n        </div>\n      ","response":"Enter","trial_type":"html-keyboard-response","trial_index":56,"plugin_version":"2.1.0","time_elapsed":376091,"random_initial_angle":51,"response_angle_css":51,"response_angle_rdk":39,"angular_error_target":-170,"angular_error_distractor":-48,"target_direction":209,"target_group":"black","reward_points":0},{"rt":null,"stimulus":"\n          <p style=\"color: #FF3333;\">Your reward: 0 points</p>\n        ","response":null,"trial_type":"html-keyboard-response","trial_index":57,"plugin_version":"2.1.0","time_elapsed":378095},{"rt":null,"stimulus":"<div class=\"fixation\" style=\"font-size: 60px;\">+</div>","response":null,"trial_type":"html-keyboard-response","trial_index":58,"plugin_version":"2.1.0","time_elapsed":379101},{"target_group":"black","target_index":1,"condition_label":"practice","rt":-1,"response":"","correct":false,"choices":"ALL_KEYS","correct_choice":["a"],"trial_duration":2000,"flip_timestamps":[],"response_ends_trial":false,"number_of_apertures":2,"number_of_dots":[80,100],"number_of_sets":1,"coherent_direction":[145,325],"coherence":1,"opposite_coherence":0,"dot_radius":2,"dot_side_length":1,"dot_life":-1,"move_distance":1,"aperture_width":300,"aperture_height":300,"dot_color":["white","black"],"dot_shape":"circle","background_color":"#AAA","RDK_type":3,"aperture_type":2,"reinsert_type":2,"frame_rate":16.43801652892562,"frame_rate_array":[30,13,19,16,14,17,15,17,16,17,16,16,18,15,17,16,17,17,15,15,18,16,19,14,17,16,19,15,17,15,16,19,15,14,17,17,17,15,17,18,14,18,15,16,18,16,15,16,17,17,16,17,18,16,15,16,16,18,17,18,14,16,16,16,17,15,22,12,15,15,18,15,17,16,16,17,16,16,17,16,15,17,18,16,17,18,14,17,15,17,17,15,16,16,16,18,16,16,15,16,17,16,16,17,16,16,16,17,18,15,18,15,18,15,17,15,16,20,14,16,18],"number_of_frames":121,"aperture_center_x":376,"aperture_center_y":629,"fixation_cross":true,"fixation_cross_width":15,"fixation_cross_height":15,"fixation_cross_color":"#111","fixation_cross_thickness":1,"border":true,"border_thickness":2,"border_color":"transparent","canvas_width":752,"canvas_height":1258,"trial_type":"rdk","trial_index":59,"plugin_version":"2.0.0","time_elapsed":381116,"phase":"practice","target_direction":325,"distractor_direction":145},{"rt":8807,"stimulus":"\n        <div class=\"response-container\">\n          <div class=\"response-instruction\">\n            <p>rotate the bar by using the left and right arrow keys.</p>\n            <p>when you are determined, press the Enter key.</p>\n          </div>\n          <div class=\"response-circle\">\n            <div class=\"response-fixation\"></div>\n            <div id=\"bar\" class=\"rotating-bar\"></div>\n          </div>\n        </div>\n      ","response":"Enter","trial_type":"html-keyboard-response","trial_index":60,"plugin_version":"2.1.0","time_elapsed":389927,"random_initial_angle":169,"response_angle_css":169,"response_angle_rdk":281,"angular_error_target":-44,"angular_error_distractor":136,"target_direction":325,"target_group":"black","reward_points":1},{"rt":null,"stimulus":"\n          <p style=\"color: #FF3333;\">Your reward: 1 points</p>\n        ","response":null,"trial_type":"html-keyboard-response","trial_index":61,"plugin_version":"2.1.0","time_elapsed":391934},{"rt":null,"stimulus":"<div class=\"fixation\" style=\"font-size: 60px;\">+</div>","response":null,"trial_type":"html-keyboard-response","trial_index":62,"plugin_version":"2.1.0","time_elapsed":392939},{"target_group":"black","target_index":1,"condition_label":"practice","rt":-1,"response":"","correct":false,"choices":"ALL_KEYS","correct_choice":["a"],"trial_duration":2000,"flip_timestamps":[],"response_ends_trial":false,"number_of_apertures":2,"number_of_dots":[74,100],"number_of_sets":1,"coherent_direction":[250,106],"coherence":1,"opposite_coherence":0,"dot_radius":2,"dot_side_length":1,"dot_life":-1,"move_distance":1,"aperture_width":300,"aperture_height":300,"dot_color":["white","black"],"dot_shape":"circle","background_color":"#AAA","RDK_type":3,"aperture_type":2,"reinsert_type":2,"frame_rate":16.352459016393443,"frame_rate_array":[15,18,16,17,18,12,16,17,17,16,16,16,17,16,16,16,17,16,16,18,14,18,17,15,16,16,17,18,14,17,17,16,17,17,14,17,17,17,17,17,16,16,17,16,16,17,18,16,16,16,17,17,17,16,16,19,13,18,17,17,13,16,17,16,16,20,12,17,16,17,16,17,17,16,17,13,19,16,15,15,17,17,15,16,17,17,16,15,18,14,20,15,16,16,16,18,17,15,15,18,16,18,16,16,17,18,16,16,16,16,18,14,22,11,17,18,14,18,15,16,16,17],"number_of_frames":122,"aperture_center_x":376,"aperture_center_y":629,"fixation_cross":true,"fixation_cross_width":15,"fixation_cross_height":15,"fixation_cross_color":"#111","fixation_cross_thickness":1,"border":true,"border_thickness":2,"border_color":"transparent","canvas_width":752,"canvas_height":1258,"trial_type":"rdk","trial_index":63,"plugin_version":"2.0.0","time_elapsed":394951,"phase":"practice","target_direction":106,"distractor_direction":250},{"rt":4266,"stimulus":"\n        <div class=\"response-container\">\n          <div class=\"response-instruction\">\n            <p>rotate the bar by using the left and right arrow keys.</p>\n            <p>when you are determined, press the Enter key.</p>\n          </div>\n          <div class=\"response-circle\">\n            <div class=\"response-fixation\"></div>\n            <div id=\"bar\" class=\"rotating-bar\"></div>\n          </div>\n        </div>\n      ","response":"Enter","trial_type":"html-keyboard-response","trial_index":64,"plugin_version":"2.1.0","time_elapsed":399220,"random_initial_angle":100,"response_angle_css":100,"response_angle_rdk":350,"angular_error_target":-116,"angular_error_distractor":100,"target_direction":106,"target_group":"black","reward_points":0},{"rt":null,"stimulus":"\n          <p style=\"color: #FF3333;\">Your reward: 0 points</p>\n        ","response":null,"trial_type":"html-keyboard-response","trial_index":65,"plugin_version":"2.1.0","time_elapsed":401222},{"rt":8903,"stimulus":"\n        <div class=\"instructions-container\">\n          <h2>End of Practice</h2>\n          <p>You have completed the practice trials.</p>\n          <p>Press <strong>Enter</strong> key to begin the main experiment.</p>\n        </div>\n      ","response":"Enter","trial_type":"html-keyboard-response","trial_index":66,"plugin_version":"2.1.0","time_elapsed":410130},{"rt":null,"stimulus":"<div class=\"fixation\" style=\"font-size: 60px;\">+</div>","response":null,"trial_type":"html-keyboard-response","trial_index":67,"plugin_version":"2.1.0","time_elapsed":411134},{"phase":"learning-awareness","target_group":"black","condition_label":"B_H_vs_W_L_rep16","target_direction":335,"distractor_direction":88,"session_rotation":244,"rt":-1,"response":"","correct":false,"choices":"ALL_KEYS","correct_choice":["a"],"trial_duration":2000,"flip_timestamps":[],"response_ends_trial":false,"number_of_apertures":200,"number_of_dots":[1,1,1,1,1,1,1,1,1,1,1,1,1,1,1,1,1,1,1,1,1,1,1,1,1,1,1,1,1,1,1,1,1,1,1,1,1,1,1,1,1,1,1,1,1,1,1,1,1,1,1,1,1,1,1,1,1,1,1,1,1,1,1,1,1,1,1,1,1,1,1,1,1,1,1,1,1,1,1,1,1,1,1,1,1,1,1,1,1,1,1,1,1,1,1,1,1,1,1,1,1,1,1,1,1,1,1,1,1,1,1,1,1,1,1,1,1,1,1,1,1,1,1,1,1,1,1,1,1,1,1,1,1,1,1,1,1,1,1,1,1,1,1,1,1,1,1,1,1,1,1,1,1,1,1,1,1,1,1,1,1,1,1,1,1,1,1,1,1,1,1,1,1,1,1,1,1,1,1,1,1,1,1,1,1,1,1,1,1,1,1,1,1,1,1,1,1,1,1,1],"number_of_sets":1,"coherent_direction":[88,88,335,88,88,88,88,88,335,88,88,335,335,335,335,88,88,335,88,335,335,335,335,88,88,88,335,88,335,88,88,335,335,335,335,88,88,335,335,335,88,88,335,88,335,88,335,335,88,88,335,88,335,88,88,335,88,335,335,88,335,335,88,88,88,335,88,335,88,88,335,335,335,88,335,335,88,335,335,335,335,88,88,335,88,88,335,88,88,335,88,88,335,335,335,335,335,88,88,335,335,335,88,88,88,88,335,335,335,88,335,88,88,88,335,88,88,88,335,88,335,335,335,335,88,335,88,88,88,335,88,88,335,88,335,88,88,335,335,335,335,335,335,335,88,88,335,335,335,335,335,88,335,88,88,88,88,335,88,88,335,335,335,88,88,88,335,335,88,88,335,335,335,335,335,335,335,88,88,88,335,335,88,88,335,88,88,88,88,88,88,88,88,335,88,335,335,335,88,88],"coherence":1,"opposite_coherence":0,"dot_radius":2,"dot_side_length":1,"dot_life":-1,"move_distance":1,"aperture_width":300,"aperture_height":300,"dot_color":["white","white","black","white","white","white","white","white","black","white","white","black","black","black","black","white","white","black","white","black","black","black","black","white","white","white","black","white","black","white","white","black","black","black","black","white","white","black","black","black","white","white","black","white","black","white","black","black","white","white","black","white","black","white","white","black","white","black","black","white","black","black","white","white","white","black","white","black","white","white","black","black","black","white","black","black","white","black","black","black","black","white","white","black","white","white","black","white","white","black","white","white","black","black","black","black","black","white","white","black","black","black","white","white","white","white","black","black","black","white","black","white","white","white","black","white","white","white","black","white","black","black","black","black","white","black","white","white","white","black","white","white","black","white","black","white","white","black","black","black","black","black","black","black","white","white","black","black","black","black","black","white","black","white","white","white","white","black","white","white","black","black","black","white","white","white","black","black","white","white","black","black","black","black","black","black","black","white","white","white","black","black","white","white","black","white","white","white","white","white","white","white","white","black","white","black","black","black","white","white"],"dot_shape":"circle","background_color":"#AAA","RDK_type":3,"aperture_type":2,"reinsert_type":2,"frame_rate":16.360655737704917,"frame_rate_array":[12,18,19,12,17,16,17,16,16,18,16,16,15,19,14,19,14,15,19,15,17,16,16,17,15,18,14,14,19,14,17,16,19,16,18,17,16,15,17,17,16,17,19,16,16,16,18,15,16,16,17,16,14,20,17,15,16,13,17,17,18,16,16,14,19,16,17,17,16,16,18,15,19,14,16,17,17,16,16,17,21,14,16,14,16,19,16,15,16,17,21,11,17,18,16,17,15,17,16,17,16,16,16,18,16,16,16,22,11,18,16,15,17,17,16,16,18,15,15,18,17,14],"number_of_frames":122,"aperture_center_x":376,"aperture_center_y":629,"fixation_cross":true,"fixation_cross_width":15,"fixation_cross_height":15,"fixation_cross_color":"#111","fixation_cross_thickness":1,"border":true,"border_thickness":2,"border_color":"transparent","canvas_width":752,"canvas_height":1258,"trial_type":"rdk","trial_index":68,"plugin_version":"2.0.0","time_elapsed":413148},{"rt":4003,"stimulus":"\n        <div class=\"response-container\">\n          <div class=\"response-instruction\">\n            <p>rotate the bar by using the left and right arrow keys.</p>\n            <p>when you are determined, press the Enter key.</p>\n          </div>\n          <div class=\"response-circle\">\n            <div class=\"response-fixation\"></div>\n            <div id=\"bar\" class=\"rotating-bar\"></div>\n          </div>\n        </div>\n      ","response":"Enter","trial_type":"html-keyboard-response","trial_index":69,"plugin_version":"2.1.0","time_elapsed":417154,"random_initial_angle":280,"response_angle_css":280,"response_angle_rdk":170,"angular_error_target":-165,"angular_error_distractor":82,"target_direction":335,"target_group":"black","reward_points":0},{"rt":null,"stimulus":"\n          <p style=\"color: #FF3333;\">Your reward: 0 points</p>\n        ","response":null,"trial_type":"html-keyboard-response","trial_index":70,"plugin_version":"2.1.0","time_elapsed":419158},{"rt":null,"stimulus":"<div class=\"fixation\" style=\"font-size: 60px;\">+</div>","response":null,"trial_type":"html-keyboard-response","trial_index":71,"plugin_version":"2.1.0","time_elapsed":420164},{"phase":"learning-awareness","target_group":"black","condition_label":"B_H_vs_W_L_rep20","target_direction":337,"distractor_direction":105,"session_rotation":244,"rt":-1,"response":"","correct":false,"choices":"ALL_KEYS","correct_choice":["a"],"trial_duration":2000,"flip_timestamps":[],"response_ends_trial":false,"number_of_apertures":200,"number_of_dots":[1,1,1,1,1,1,1,1,1,1,1,1,1,1,1,1,1,1,1,1,1,1,1,1,1,1,1,1,1,1,1,1,1,1,1,1,1,1,1,1,1,1,1,1,1,1,1,1,1,1,1,1,1,1,1,1,1,1,1,1,1,1,1,1,1,1,1,1,1,1,1,1,1,1,1,1,1,1,1,1,1,1,1,1,1,1,1,1,1,1,1,1,1,1,1,1,1,1,1,1,1,1,1,1,1,1,1,1,1,1,1,1,1,1,1,1,1,1,1,1,1,1,1,1,1,1,1,1,1,1,1,1,1,1,1,1,1,1,1,1,1,1,1,1,1,1,1,1,1,1,1,1,1,1,1,1,1,1,1,1,1,1,1,1,1,1,1,1,1,1,1,1,1,1,1,1,1,1,1,1,1,1,1,1,1,1,1,1,1,1,1,1,1,1,1,1,1,1,1,1],"number_of_sets":1,"coherent_direction":[337,337,337,105,337,105,105,337,337,105,105,105,105,105,337,337,105,105,337,105,105,105,105,337,105,105,337,337,105,105,105,337,105,105,337,105,105,105,105,105,105,105,105,105,337,337,105,337,337,105,105,105,337,337,337,105,337,337,337,337,337,105,105,337,105,105,105,105,337,337,337,105,337,105,105,337,337,105,105,105,105,337,337,337,337,337,105,105,105,105,337,105,337,105,105,105,105,337,337,105,337,105,105,337,337,105,105,105,337,105,105,337,337,337,337,337,105,337,105,337,337,337,105,337,337,105,105,105,105,337,337,105,105,105,337,105,337,105,105,337,337,105,337,105,337,337,337,337,337,337,105,337,105,105,337,105,337,337,337,337,337,337,337,105,105,105,105,337,105,105,337,337,337,337,105,337,337,337,337,105,337,337,105,337,337,105,105,337,337,105,105,337,337,105,105,337,337,105,337,337],"coherence":1,"opposite_coherence":0,"dot_radius":2,"dot_side_length":1,"dot_life":-1,"move_distance":1,"aperture_width":300,"aperture_height":300,"dot_color":["black","black","black","white","black","white","white","black","black","white","white","white","white","white","black","black","white","white","black","white","white","white","white","black","white","white","black","black","white","white","white","black","white","white","black","white","white","white","white","white","white","white","white","white","black","black","white","black","black","white","white","white","black","black","black","white","black","black","black","black","black","white","white","black","white","white","white","white","black","black","black","white","black","white","white","black","black","white","white","white","white","black","black","black","black","black","white","white","white","white","black","white","black","white","white","white","white","black","black","white","black","white","white","black","black","white","white","white","black","white","white","black","black","black","black","black","white","black","white","black","black","black","white","black","black","white","white","white","white","black","black","white","white","white","black","white","black","white","white","black","black","white","black","white","black","black","black","black","black","black","white","black","white","white","black","white","black","black","black","black","black","black","black","white","white","white","white","black","white","white","black","black","black","black","white","black","black","black","black","white","black","black","white","black","black","white","white","black","black","white","white","black","black","white","white","black","black","white","black","black"],"dot_shape":"circle","background_color":"#AAA","RDK_type":3,"aperture_type":2,"reinsert_type":2,"frame_rate":16.429752066115704,"frame_rate_array":[9,11,17,23,26,19,18,17,15,13,19,14,15,16,16,19,15,17,14,17,17,16,19,14,17,16,16,17,17,16,18,16,14,17,16,17,20,12,16,21,14,19,16,13,19,15,16,16,15,17,19,15,18,16,17,15,16,18,15,17,17,17,14,17,18,17,16,17,18,15,14,17,18,17,16,15,13,22,13,16,17,15,16,18,14,19,16,20,14,16,15,15,16,19,15,18,14,19,15,15,16,17,19,15,16,16,16,17,17,15,18,17,17,13,17,18,15,18,16,16,18],"number_of_frames":121,"aperture_center_x":376,"aperture_center_y":629,"fixation_cross":true,"fixation_cross_width":15,"fixation_cross_height":15,"fixation_cross_color":"#111","fixation_cross_thickness":1,"border":true,"border_thickness":2,"border_color":"transparent","canvas_width":752,"canvas_height":1258,"trial_type":"rdk","trial_index":72,"plugin_version":"2.0.0","time_elapsed":422184},{"rt":17028,"stimulus":"\n        <div class=\"response-container\">\n          <div class=\"response-instruction\">\n            <p>rotate the bar by using the left and right arrow keys.</p>\n            <p>when you are determined, press the Enter key.</p>\n          </div>\n          <div class=\"response-circle\">\n            <div class=\"response-fixation\"></div>\n            <div id=\"bar\" class=\"rotating-bar\"></div>\n          </div>\n        </div>\n      ","response":"Enter","trial_type":"html-keyboard-response","trial_index":73,"plugin_version":"2.1.0","time_elapsed":439215,"random_initial_angle":39,"response_angle_css":39,"response_angle_rdk":51,"angular_error_target":74,"angular_error_distractor":-54,"target_direction":337,"target_group":"black","reward_points":0},{"rt":null,"stimulus":"\n          <p style=\"color: #FF3333;\">Your reward: 0 points</p>\n        ","response":null,"trial_type":"html-keyboard-response","trial_index":74,"plugin_version":"2.1.0","time_elapsed":441221},{"rt":null,"stimulus":"<div class=\"fixation\" style=\"font-size: 60px;\">+</div>","response":null,"trial_type":"html-keyboard-response","trial_index":75,"plugin_version":"2.1.0","time_elapsed":442227},{"phase":"learning-awareness","target_group":"black","condition_label":"B_H_vs_W_L_rep23","target_direction":353,"distractor_direction":93,"session_rotation":244,"rt":-1,"response":"","correct":false,"choices":"ALL_KEYS","correct_choice":["a"],"trial_duration":2000,"flip_timestamps":[],"response_ends_trial":false,"number_of_apertures":200,"number_of_dots":[1,1,1,1,1,1,1,1,1,1,1,1,1,1,1,1,1,1,1,1,1,1,1,1,1,1,1,1,1,1,1,1,1,1,1,1,1,1,1,1,1,1,1,1,1,1,1,1,1,1,1,1,1,1,1,1,1,1,1,1,1,1,1,1,1,1,1,1,1,1,1,1,1,1,1,1,1,1,1,1,1,1,1,1,1,1,1,1,1,1,1,1,1,1,1,1,1,1,1,1,1,1,1,1,1,1,1,1,1,1,1,1,1,1,1,1,1,1,1,1,1,1,1,1,1,1,1,1,1,1,1,1,1,1,1,1,1,1,1,1,1,1,1,1,1,1,1,1,1,1,1,1,1,1,1,1,1,1,1,1,1,1,1,1,1,1,1,1,1,1,1,1,1,1,1,1,1,1,1,1,1,1,1,1,1,1,1,1,1,1,1,1,1,1,1,1,1,1,1,1],"number_of_sets":1,"coherent_direction":[353,353,353,353,353,93,353,353,93,93,353,353,93,93,353,353,353,93,93,93,353,93,353,93,93,93,353,93,353,353,93,353,353,93,353,353,353,353,93,353,93,93,353,93,353,93,93,93,93,353,353,353,93,353,353,93,353,93,93,353,93,93,93,93,93,353,353,353,93,353,353,93,93,93,93,353,93,353,353,93,93,93,93,93,93,353,93,353,353,353,353,353,93,353,353,93,353,93,353,353,93,353,353,93,93,353,353,353,93,93,353,93,353,93,93,93,353,93,93,353,93,353,353,93,353,93,93,353,353,93,353,93,353,93,93,93,93,93,353,353,93,353,353,93,353,93,93,93,353,353,93,93,353,93,353,353,353,353,353,353,93,93,93,93,93,353,353,93,93,93,93,353,353,353,353,353,93,93,353,93,93,93,93,353,93,353,353,93,353,353,93,93,353,93,93,353,353,353,93,353],"coherence":1,"opposite_coherence":0,"dot_radius":2,"dot_side_length":1,"dot_life":-1,"move_distance":1,"aperture_width":300,"aperture_height":300,"dot_color":["black","black","black","black","black","white","black","black","white","white","black","black","white","white","black","black","black","white","white","white","black","white","black","white","white","white","black","white","black","black","white","black","black","white","black","black","black","black","white","black","white","white","black","white","black","white","white","white","white","black","black","black","white","black","black","white","black","white","white","black","white","white","white","white","white","black","black","black","white","black","black","white","white","white","white","black","white","black","black","white","white","white","white","white","white","black","white","black","black","black","black","black","white","black","black","white","black","white","black","black","white","black","black","white","white","black","black","black","white","white","black","white","black","white","white","white","black","white","white","black","white","black","black","white","black","white","white","black","black","white","black","white","black","white","white","white","white","white","black","black","white","black","black","white","black","white","white","white","black","black","white","white","black","white","black","black","black","black","black","black","white","white","white","white","white","black","black","white","white","white","white","black","black","black","black","black","white","white","black","white","white","white","white","black","white","black","black","white","black","black","white","white","black","white","white","black","black","black","white","black"],"dot_shape":"circle","background_color":"#AAA","RDK_type":3,"aperture_type":2,"reinsert_type":2,"frame_rate":16.352459016393443,"frame_rate_array":[8,14,14,25,17,17,19,16,15,14,17,19,15,18,11,21,15,17,15,18,15,18,15,17,14,17,18,15,18,16,17,16,13,20,17,16,15,18,13,18,17,16,20,13,16,16,16,16,16,18,15,16,16,17,17,16,18,15,17,16,16,18,17,16,19,12,18,16,18,15,14,18,18,15,18,17,11,21,16,16,17,16,17,16,15,17,15,17,17,16,15,19,15,15,24,10,17,13,20,16,14,18,18,15,16,19,15,18,15,18,14,18,14,19,15,15,19,14,19,13,18,17],"number_of_frames":122,"aperture_center_x":376,"aperture_center_y":629,"fixation_cross":true,"fixation_cross_width":15,"fixation_cross_height":15,"fixation_cross_color":"#111","fixation_cross_thickness":1,"border":true,"border_thickness":2,"border_color":"transparent","canvas_width":752,"canvas_height":1258,"trial_type":"rdk","trial_index":76,"plugin_version":"2.0.0","time_elapsed":444245},{"rt":7995,"stimulus":"\n        <div class=\"response-container\">\n          <div class=\"response-instruction\">\n            <p>rotate the bar by using the left and right arrow keys.</p>\n            <p>when you are determined, press the Enter key.</p>\n          </div>\n          <div class=\"response-circle\">\n            <div class=\"response-fixation\"></div>\n            <div id=\"bar\" class=\"rotating-bar\"></div>\n          </div>\n        </div>\n      ","response":"Enter","trial_type":"html-keyboard-response","trial_index":77,"plugin_version":"2.1.0","time_elapsed":452242,"random_initial_angle":341,"response_angle_css":341,"response_angle_rdk":109,"angular_error_target":116,"angular_error_distractor":16,"target_direction":353,"target_group":"black","reward_points":0},{"rt":null,"stimulus":"\n          <p style=\"color: #FF3333;\">Your reward: 0 points</p>\n        ","response":null,"trial_type":"html-keyboard-response","trial_index":78,"plugin_version":"2.1.0","time_elapsed":454246},{"rt":null,"stimulus":"<div class=\"fixation\" style=\"font-size: 60px;\">+</div>","response":null,"trial_type":"html-keyboard-response","trial_index":79,"plugin_version":"2.1.0","time_elapsed":455253},{"phase":"learning-awareness","target_group":"black","condition_label":"B_H_vs_W_L_rep6","target_direction":335,"distractor_direction":81,"session_rotation":244,"rt":-1,"response":"","correct":false,"choices":"ALL_KEYS","correct_choice":["a"],"trial_duration":2000,"flip_timestamps":[],"response_ends_trial":false,"number_of_apertures":200,"number_of_dots":[1,1,1,1,1,1,1,1,1,1,1,1,1,1,1,1,1,1,1,1,1,1,1,1,1,1,1,1,1,1,1,1,1,1,1,1,1,1,1,1,1,1,1,1,1,1,1,1,1,1,1,1,1,1,1,1,1,1,1,1,1,1,1,1,1,1,1,1,1,1,1,1,1,1,1,1,1,1,1,1,1,1,1,1,1,1,1,1,1,1,1,1,1,1,1,1,1,1,1,1,1,1,1,1,1,1,1,1,1,1,1,1,1,1,1,1,1,1,1,1,1,1,1,1,1,1,1,1,1,1,1,1,1,1,1,1,1,1,1,1,1,1,1,1,1,1,1,1,1,1,1,1,1,1,1,1,1,1,1,1,1,1,1,1,1,1,1,1,1,1,1,1,1,1,1,1,1,1,1,1,1,1,1,1,1,1,1,1,1,1,1,1,1,1,1,1,1,1,1,1],"number_of_sets":1,"coherent_direction":[335,81,81,335,81,81,335,335,81,81,335,81,335,335,335,335,81,335,81,81,335,81,81,81,335,81,81,81,81,335,81,81,335,335,81,335,81,81,81,81,335,335,335,335,81,335,81,81,335,81,335,335,81,81,81,335,335,335,335,81,335,335,81,81,81,335,81,81,335,335,81,335,81,81,81,335,81,81,81,335,335,81,335,335,335,81,335,335,81,81,335,81,81,81,335,335,81,81,81,335,81,335,81,81,81,335,335,81,335,335,335,81,335,335,81,335,81,81,335,335,335,335,81,81,335,335,81,335,335,81,81,81,81,335,335,81,335,335,335,335,81,81,335,335,81,81,81,335,335,335,335,335,81,81,335,335,81,335,81,335,81,335,81,81,335,335,335,335,335,335,335,81,81,335,335,335,81,81,81,335,81,335,81,81,335,335,81,335,81,81,335,81,335,335,335,81,81,81,81,81],"coherence":1,"opposite_coherence":0,"dot_radius":2,"dot_side_length":1,"dot_life":-1,"move_distance":1,"aperture_width":300,"aperture_height":300,"dot_color":["black","white","white","black","white","white","black","black","white","white","black","white","black","black","black","black","white","black","white","white","black","white","white","white","black","white","white","white","white","black","white","white","black","black","white","black","white","white","white","white","black","black","black","black","white","black","white","white","black","white","black","black","white","white","white","black","black","black","black","white","black","black","white","white","white","black","white","white","black","black","white","black","white","white","white","black","white","white","white","black","black","white","black","black","black","white","black","black","white","white","black","white","white","white","black","black","white","white","white","black","white","black","white","white","white","black","black","white","black","black","black","white","black","black","white","black","white","white","black","black","black","black","white","white","black","black","white","black","black","white","white","white","white","black","black","white","black","black","black","black","white","white","black","black","white","white","white","black","black","black","black","black","white","white","black","black","white","black","white","black","white","black","white","white","black","black","black","black","black","black","black","white","white","black","black","black","white","white","white","black","white","black","white","white","black","black","white","black","white","white","black","white","black","black","black","white","white","white","white","white"],"dot_shape":"circle","background_color":"#AAA","RDK_type":3,"aperture_type":2,"reinsert_type":2,"frame_rate":16.380165289256198,"frame_rate_array":[28,18,17,10,16,16,18,17,17,22,15,16,16,13,17,16,17,12,17,18,18,16,16,17,17,14,17,19,15,15,17,15,16,19,17,15,15,14,20,17,16,16,17,17,14,16,18,15,14,17,16,18,17,17,14,19,16,17,17,14,17,14,17,18,17,16,16,16,14,17,14,19,17,17,15,17,15,17,17,18,15,16,16,16,12,21,17,15,15,18,16,13,18,17,16,16,18,15,16,16,16,18,15,18,17,14,17,15,17,15,16,18,16,15,13,20,17,16,16,16,17],"number_of_frames":121,"aperture_center_x":376,"aperture_center_y":629,"fixation_cross":true,"fixation_cross_width":15,"fixation_cross_height":15,"fixation_cross_color":"#111","fixation_cross_thickness":1,"border":true,"border_thickness":2,"border_color":"transparent","canvas_width":752,"canvas_height":1258,"trial_type":"rdk","trial_index":80,"plugin_version":"2.0.0","time_elapsed":457271},{"rt":20353,"stimulus":"\n        <div class=\"response-container\">\n          <div class=\"response-instruction\">\n            <p>rotate the bar by using the left and right arrow keys.</p>\n            <p>when you are determined, press the Enter key.</p>\n          </div>\n          <div class=\"response-circle\">\n            <div class=\"response-fixation\"></div>\n            <div id=\"bar\" class=\"rotating-bar\"></div>\n          </div>\n        </div>\n      ","response":"Enter","trial_type":"html-keyboard-response","trial_index":81,"plugin_version":"2.1.0","time_elapsed":477628,"random_initial_angle":101,"response_angle_css":101,"response_angle_rdk":349,"angular_error_target":14,"angular_error_distractor":-92,"target_direction":335,"target_group":"black","reward_points":7},{"rt":null,"stimulus":"\n          <p style=\"color: #00FF00;\">Your reward: 7 points</p>\n        ","response":null,"trial_type":"html-keyboard-response","trial_index":82,"plugin_version":"2.1.0","time_elapsed":479633},{"rt":null,"stimulus":"<div class=\"fixation\" style=\"font-size: 60px;\">+</div>","response":null,"trial_type":"html-keyboard-response","trial_index":83,"plugin_version":"2.1.0","time_elapsed":480641},{"phase":"learning-awareness","target_group":"white","condition_label":"W_H_vs_B_L_rep18","target_direction":270,"distractor_direction":178,"session_rotation":244,"rt":-1,"response":"","correct":false,"choices":"ALL_KEYS","correct_choice":["a"],"trial_duration":2000,"flip_timestamps":[],"response_ends_trial":false,"number_of_apertures":200,"number_of_dots":[1,1,1,1,1,1,1,1,1,1,1,1,1,1,1,1,1,1,1,1,1,1,1,1,1,1,1,1,1,1,1,1,1,1,1,1,1,1,1,1,1,1,1,1,1,1,1,1,1,1,1,1,1,1,1,1,1,1,1,1,1,1,1,1,1,1,1,1,1,1,1,1,1,1,1,1,1,1,1,1,1,1,1,1,1,1,1,1,1,1,1,1,1,1,1,1,1,1,1,1,1,1,1,1,1,1,1,1,1,1,1,1,1,1,1,1,1,1,1,1,1,1,1,1,1,1,1,1,1,1,1,1,1,1,1,1,1,1,1,1,1,1,1,1,1,1,1,1,1,1,1,1,1,1,1,1,1,1,1,1,1,1,1,1,1,1,1,1,1,1,1,1,1,1,1,1,1,1,1,1,1,1,1,1,1,1,1,1,1,1,1,1,1,1,1,1,1,1,1,1],"number_of_sets":1,"coherent_direction":[270,270,270,270,270,178,270,270,178,178,178,270,270,270,178,270,270,270,270,270,270,178,270,270,270,270,178,270,178,270,270,270,270,270,178,270,178,270,178,178,270,270,270,270,178,178,270,270,178,178,178,270,270,178,270,270,178,270,178,178,178,178,178,178,178,178,270,178,178,270,270,270,178,178,270,270,178,178,178,270,178,178,178,178,178,270,270,270,270,178,178,178,178,178,178,270,178,178,270,178,178,178,270,270,270,270,178,178,270,270,178,270,270,270,270,178,178,270,178,178,270,178,270,178,270,178,270,178,270,178,270,178,178,178,270,178,270,270,270,270,178,270,270,178,270,178,270,270,178,178,178,178,178,178,178,178,270,178,178,178,270,270,178,178,270,178,178,270,178,178,178,270,178,270,270,270,178,270,270,178,270,270,270,178,270,178,270,270,178,178,178,178,178,270,178,270,270,178,178,270],"coherence":1,"opposite_coherence":0,"dot_radius":2,"dot_side_length":1,"dot_life":-1,"move_distance":1,"aperture_width":300,"aperture_height":300,"dot_color":["white","white","white","white","white","black","white","white","black","black","black","white","white","white","black","white","white","white","white","white","white","black","white","white","white","white","black","white","black","white","white","white","white","white","black","white","black","white","black","black","white","white","white","white","black","black","white","white","black","black","black","white","white","black","white","white","black","white","black","black","black","black","black","black","black","black","white","black","black","white","white","white","black","black","white","white","black","black","black","white","black","black","black","black","black","white","white","white","white","black","black","black","black","black","black","white","black","black","white","black","black","black","white","white","white","white","black","black","white","white","black","white","white","white","white","black","black","white","black","black","white","black","white","black","white","black","white","black","white","black","white","black","black","black","white","black","white","white","white","white","black","white","white","black","white","black","white","white","black","black","black","black","black","black","black","black","white","black","black","black","white","white","black","black","white","black","black","white","black","black","black","white","black","white","white","white","black","white","white","black","white","white","white","black","white","black","white","white","black","black","black","black","black","white","black","white","white","black","black","white"],"dot_shape":"circle","background_color":"#AAA","RDK_type":3,"aperture_type":2,"reinsert_type":2,"frame_rate":16.462809917355372,"frame_rate_array":[26,15,17,18,16,17,17,15,17,16,18,15,17,17,18,19,13,14,17,18,17,16,14,19,17,14,15,16,18,13,21,17,16,16,18,14,16,16,18,14,20,14,14,19,16,16,15,18,16,16,18,16,15,18,16,18,14,17,17,16,16,17,16,16,17,14,19,15,17,16,16,16,17,14,16,18,16,17,17,15,18,15,14,18,18,15,17,16,17,17,15,17,14,16,18,18,15,15,17,16,16,19,15,17,18,16,13,17,20,16,16,16,16,17,17,16,16,16,18,16,16],"number_of_frames":121,"aperture_center_x":376,"aperture_center_y":629,"fixation_cross":true,"fixation_cross_width":15,"fixation_cross_height":15,"fixation_cross_color":"#111","fixation_cross_thickness":1,"border":true,"border_thickness":2,"border_color":"transparent","canvas_width":752,"canvas_height":1258,"trial_type":"rdk","trial_index":84,"plugin_version":"2.0.0","time_elapsed":482661},{"rt":39649,"stimulus":"\n        <div class=\"response-container\">\n          <div class=\"response-instruction\">\n            <p>rotate the bar by using the left and right arrow keys.</p>\n            <p>when you are determined, press the Enter key.</p>\n          </div>\n          <div class=\"response-circle\">\n            <div class=\"response-fixation\"></div>\n            <div id=\"bar\" class=\"rotating-bar\"></div>\n          </div>\n        </div>\n      ","response":"Enter","trial_type":"html-keyboard-response","trial_index":85,"plugin_version":"2.1.0","time_elapsed":522312,"random_initial_angle":98,"response_angle_css":98,"response_angle_rdk":352,"angular_error_target":82,"angular_error_distractor":174,"target_direction":270,"target_group":"white","reward_points":0},{"rt":null,"stimulus":"\n          <p style=\"color: #FF3333;\">Your reward: 0 points</p>\n        ","response":null,"trial_type":"html-keyboard-response","trial_index":86,"plugin_version":"2.1.0","time_elapsed":524318},{"rt":null,"stimulus":"<div class=\"fixation\" style=\"font-size: 60px;\">+</div>","response":null,"trial_type":"html-keyboard-response","trial_index":87,"plugin_version":"2.1.0","time_elapsed":525327},{"phase":"learning-awareness","target_group":"white","condition_label":"W_H_vs_B_L_rep3","target_direction":279,"distractor_direction":186,"session_rotation":244,"rt":-1,"response":"","correct":false,"choices":"ALL_KEYS","correct_choice":["a"],"trial_duration":2000,"flip_timestamps":[],"response_ends_trial":false,"number_of_apertures":200,"number_of_dots":[1,1,1,1,1,1,1,1,1,1,1,1,1,1,1,1,1,1,1,1,1,1,1,1,1,1,1,1,1,1,1,1,1,1,1,1,1,1,1,1,1,1,1,1,1,1,1,1,1,1,1,1,1,1,1,1,1,1,1,1,1,1,1,1,1,1,1,1,1,1,1,1,1,1,1,1,1,1,1,1,1,1,1,1,1,1,1,1,1,1,1,1,1,1,1,1,1,1,1,1,1,1,1,1,1,1,1,1,1,1,1,1,1,1,1,1,1,1,1,1,1,1,1,1,1,1,1,1,1,1,1,1,1,1,1,1,1,1,1,1,1,1,1,1,1,1,1,1,1,1,1,1,1,1,1,1,1,1,1,1,1,1,1,1,1,1,1,1,1,1,1,1,1,1,1,1,1,1,1,1,1,1,1,1,1,1,1,1,1,1,1,1,1,1,1,1,1,1,1,1],"number_of_sets":1,"coherent_direction":[186,186,186,186,186,186,279,279,279,279,186,186,186,279,186,279,279,186,186,186,279,186,279,279,279,279,279,279,186,279,279,279,279,186,186,279,279,279,186,186,186,279,186,279,279,279,186,279,279,279,279,186,186,279,186,186,279,279,186,186,279,279,279,279,186,186,279,186,279,279,279,279,186,279,186,186,279,279,279,186,186,186,186,186,186,186,279,186,279,279,186,186,279,279,186,279,186,186,186,186,279,279,279,279,186,186,186,279,279,186,279,279,279,186,279,279,279,279,279,279,279,186,186,186,186,279,279,186,186,186,186,186,186,186,186,186,279,186,186,279,186,186,186,186,186,186,186,279,186,279,186,279,186,279,279,279,279,186,279,186,279,186,279,279,279,279,186,186,279,186,279,279,279,186,279,186,279,279,186,279,186,279,186,186,279,186,186,186,279,279,279,186,186,279,279,186,186,279,186,186],"coherence":1,"opposite_coherence":0,"dot_radius":2,"dot_side_length":1,"dot_life":-1,"move_distance":1,"aperture_width":300,"aperture_height":300,"dot_color":["black","black","black","black","black","black","white","white","white","white","black","black","black","white","black","white","white","black","black","black","white","black","white","white","white","white","white","white","black","white","white","white","white","black","black","white","white","white","black","black","black","white","black","white","white","white","black","white","white","white","white","black","black","white","black","black","white","white","black","black","white","white","white","white","black","black","white","black","white","white","white","white","black","white","black","black","white","white","white","black","black","black","black","black","black","black","white","black","white","white","black","black","white","white","black","white","black","black","black","black","white","white","white","white","black","black","black","white","white","black","white","white","white","black","white","white","white","white","white","white","white","black","black","black","black","white","white","black","black","black","black","black","black","black","black","black","white","black","black","white","black","black","black","black","black","black","black","white","black","white","black","white","black","white","white","white","white","black","white","black","white","black","white","white","white","white","black","black","white","black","white","white","white","black","white","black","white","white","black","white","black","white","black","black","white","black","black","black","white","white","white","black","black","white","white","black","black","white","black","black"],"dot_shape":"circle","background_color":"#AAA","RDK_type":3,"aperture_type":2,"reinsert_type":2,"frame_rate":16.37704918032787,"frame_rate_array":[7,26,19,17,17,10,20,13,16,18,16,16,18,16,16,16,16,21,16,17,17,15,15,18,14,15,17,17,17,18,15,17,16,15,15,17,16,20,16,17,18,13,19,15,15,19,14,18,17,17,16,15,15,17,18,16,14,15,17,17,16,17,17,16,16,20,17,17,16,15,16,18,14,18,13,16,16,25,10,17,18,15,16,18,16,15,18,20,10,19,16,15,17,17,14,18,17,16,17,16,16,15,16,17,17,16,17,15,18,15,16,15,20,13,18,19,14,15,19,13,18,15],"number_of_frames":122,"aperture_center_x":376,"aperture_center_y":629,"fixation_cross":true,"fixation_cross_width":15,"fixation_cross_height":15,"fixation_cross_color":"#111","fixation_cross_thickness":1,"border":true,"border_thickness":2,"border_color":"transparent","canvas_width":752,"canvas_height":1258,"trial_type":"rdk","trial_index":88,"plugin_version":"2.0.0","time_elapsed":527344},{"rt":2644,"stimulus":"\n        <div class=\"response-container\">\n          <div class=\"response-instruction\">\n            <p>rotate the bar by using the left and right arrow keys.</p>\n            <p>when you are determined, press the Enter key.</p>\n          </div>\n          <div class=\"response-circle\">\n            <div class=\"response-fixation\"></div>\n            <div id=\"bar\" class=\"rotating-bar\"></div>\n          </div>\n        </div>\n      ","response":"Enter","trial_type":"html-keyboard-response","trial_index":89,"plugin_version":"2.1.0","time_elapsed":529990,"random_initial_angle":51,"response_angle_css":51,"response_angle_rdk":39,"angular_error_target":120,"angular_error_distractor":-147,"target_direction":279,"target_group":"white","reward_points":0},{"rt":null,"stimulus":"\n          <p style=\"color: #FF3333;\">Your reward: 0 points</p>\n        ","response":null,"trial_type":"html-keyboard-response","trial_index":90,"plugin_version":"2.1.0","time_elapsed":531996},{"rt":null,"stimulus":"<div class=\"fixation\" style=\"font-size: 60px;\">+</div>","response":null,"trial_type":"html-keyboard-response","trial_index":91,"plugin_version":"2.1.0","time_elapsed":533003},{"phase":"learning-awareness","target_group":"black","condition_label":"B_H_vs_W_L_rep1","target_direction":5,"distractor_direction":102,"session_rotation":244,"rt":-1,"response":"","correct":false,"choices":"ALL_KEYS","correct_choice":["a"],"trial_duration":2000,"flip_timestamps":[],"response_ends_trial":false,"number_of_apertures":200,"number_of_dots":[1,1,1,1,1,1,1,1,1,1,1,1,1,1,1,1,1,1,1,1,1,1,1,1,1,1,1,1,1,1,1,1,1,1,1,1,1,1,1,1,1,1,1,1,1,1,1,1,1,1,1,1,1,1,1,1,1,1,1,1,1,1,1,1,1,1,1,1,1,1,1,1,1,1,1,1,1,1,1,1,1,1,1,1,1,1,1,1,1,1,1,1,1,1,1,1,1,1,1,1,1,1,1,1,1,1,1,1,1,1,1,1,1,1,1,1,1,1,1,1,1,1,1,1,1,1,1,1,1,1,1,1,1,1,1,1,1,1,1,1,1,1,1,1,1,1,1,1,1,1,1,1,1,1,1,1,1,1,1,1,1,1,1,1,1,1,1,1,1,1,1,1,1,1,1,1,1,1,1,1,1,1,1,1,1,1,1,1,1,1,1,1,1,1,1,1,1,1,1,1],"number_of_sets":1,"coherent_direction":[102,5,102,5,102,102,102,102,5,5,102,102,5,102,5,5,102,5,102,102,5,5,5,102,102,102,102,102,5,5,102,5,5,5,102,102,5,102,102,5,5,5,5,102,5,5,5,5,102,5,102,5,5,102,5,5,102,5,102,5,102,102,5,102,5,102,102,102,5,102,102,102,5,102,102,102,102,5,5,5,5,5,5,5,5,102,5,102,5,102,102,5,102,102,5,5,5,102,5,102,102,5,5,102,5,102,102,102,102,5,5,102,102,102,5,102,102,102,5,102,5,5,5,102,102,102,102,5,102,5,5,5,102,5,5,5,5,102,5,102,102,102,102,102,102,5,102,5,5,5,102,5,102,102,102,102,5,5,5,5,102,5,5,5,102,5,102,5,102,102,102,5,102,5,102,5,5,5,5,5,5,102,5,102,5,5,102,102,5,5,5,102,102,5,102,102,102,102,5,102],"coherence":1,"opposite_coherence":0,"dot_radius":2,"dot_side_length":1,"dot_life":-1,"move_distance":1,"aperture_width":300,"aperture_height":300,"dot_color":["white","black","white","black","white","white","white","white","black","black","white","white","black","white","black","black","white","black","white","white","black","black","black","white","white","white","white","white","black","black","white","black","black","black","white","white","black","white","white","black","black","black","black","white","black","black","black","black","white","black","white","black","black","white","black","black","white","black","white","black","white","white","black","white","black","white","white","white","black","white","white","white","black","white","white","white","white","black","black","black","black","black","black","black","black","white","black","white","black","white","white","black","white","white","black","black","black","white","black","white","white","black","black","white","black","white","white","white","white","black","black","white","white","white","black","white","white","white","black","white","black","black","black","white","white","white","white","black","white","black","black","black","white","black","black","black","black","white","black","white","white","white","white","white","white","black","white","black","black","black","white","black","white","white","white","white","black","black","black","black","white","black","black","black","white","black","white","black","white","white","white","black","white","black","white","black","black","black","black","black","black","white","black","white","black","black","white","white","black","black","black","white","white","black","white","white","white","white","black","white"],"dot_shape":"circle","background_color":"#AAA","RDK_type":3,"aperture_type":2,"reinsert_type":2,"frame_rate":16.28688524590164,"frame_rate_array":[9,12,16,19,21,10,18,17,15,17,17,17,14,18,16,15,18,15,16,18,16,15,16,15,17,16,23,9,19,16,18,16,17,19,14,15,17,17,17,16,17,13,18,16,17,16,17,13,17,19,16,14,17,18,14,19,17,16,16,16,16,16,18,16,17,16,17,17,15,16,17,17,14,17,19,15,16,17,14,16,17,19,16,17,15,15,18,17,16,15,16,17,16,17,16,16,17,15,16,18,17,15,17,14,18,17,16,16,17,18,14,18,16,16,17,15,17,16,18,15,17,16],"number_of_frames":122,"aperture_center_x":376,"aperture_center_y":629,"fixation_cross":true,"fixation_cross_width":15,"fixation_cross_height":15,"fixation_cross_color":"#111","fixation_cross_thickness":1,"border":true,"border_thickness":2,"border_color":"transparent","canvas_width":752,"canvas_height":1258,"trial_type":"rdk","trial_index":92,"plugin_version":"2.0.0","time_elapsed":535022},{"rt":11914,"stimulus":"\n        <div class=\"response-container\">\n          <div class=\"response-instruction\">\n            <p>rotate the bar by using the left and right arrow keys.</p>\n            <p>when you are determined, press the Enter key.</p>\n          </div>\n          <div class=\"response-circle\">\n            <div class=\"response-fixation\"></div>\n            <div id=\"bar\" class=\"rotating-bar\"></div>\n          </div>\n        </div>\n      ","response":"Enter","trial_type":"html-keyboard-response","trial_index":93,"plugin_version":"2.1.0","time_elapsed":546940,"random_initial_angle":17,"response_angle_css":17,"response_angle_rdk":73,"angular_error_target":68,"angular_error_distractor":-29,"target_direction":5,"target_group":"black","reward_points":0},{"rt":null,"stimulus":"\n          <p style=\"color: #FF3333;\">Your reward: 0 points</p>\n        ","response":null,"trial_type":"html-keyboard-response","trial_index":94,"plugin_version":"2.1.0","time_elapsed":548944},{"rt":null,"stimulus":"<div class=\"fixation\" style=\"font-size: 60px;\">+</div>","response":null,"trial_type":"html-keyboard-response","trial_index":95,"plugin_version":"2.1.0","time_elapsed":549951},{"phase":"learning-awareness","target_group":"white","condition_label":"W_H_vs_B_L_rep21","target_direction":281,"distractor_direction":183,"session_rotation":244,"rt":-1,"response":"","correct":false,"choices":"ALL_KEYS","correct_choice":["a"],"trial_duration":2000,"flip_timestamps":[],"response_ends_trial":false,"number_of_apertures":200,"number_of_dots":[1,1,1,1,1,1,1,1,1,1,1,1,1,1,1,1,1,1,1,1,1,1,1,1,1,1,1,1,1,1,1,1,1,1,1,1,1,1,1,1,1,1,1,1,1,1,1,1,1,1,1,1,1,1,1,1,1,1,1,1,1,1,1,1,1,1,1,1,1,1,1,1,1,1,1,1,1,1,1,1,1,1,1,1,1,1,1,1,1,1,1,1,1,1,1,1,1,1,1,1,1,1,1,1,1,1,1,1,1,1,1,1,1,1,1,1,1,1,1,1,1,1,1,1,1,1,1,1,1,1,1,1,1,1,1,1,1,1,1,1,1,1,1,1,1,1,1,1,1,1,1,1,1,1,1,1,1,1,1,1,1,1,1,1,1,1,1,1,1,1,1,1,1,1,1,1,1,1,1,1,1,1,1,1,1,1,1,1,1,1,1,1,1,1,1,1,1,1,1,1],"number_of_sets":1,"coherent_direction":[281,183,281,281,281,183,281,281,281,281,281,183,281,281,183,183,281,183,183,183,281,281,183,281,281,183,281,281,183,281,281,281,183,183,183,183,281,281,183,281,183,183,281,281,183,183,183,183,281,183,183,183,281,281,183,281,183,281,281,183,183,183,183,183,183,183,183,281,183,183,183,183,281,281,183,281,281,281,183,183,183,183,281,281,183,281,281,281,183,281,281,183,183,183,183,281,183,281,281,281,281,281,183,281,281,281,183,281,183,183,281,183,281,183,281,183,183,281,281,183,281,183,183,281,183,281,183,183,281,281,281,281,281,281,183,281,183,183,281,183,183,183,183,281,281,281,281,281,281,183,281,281,281,281,281,183,281,281,183,183,281,281,281,183,281,183,183,281,183,183,183,183,183,183,183,281,183,183,281,183,183,281,183,281,281,183,183,281,183,281,183,183,281,183,183,183,281,183,281,281],"coherence":1,"opposite_coherence":0,"dot_radius":2,"dot_side_length":1,"dot_life":-1,"move_distance":1,"aperture_width":300,"aperture_height":300,"dot_color":["white","black","white","white","white","black","white","white","white","white","white","black","white","white","black","black","white","black","black","black","white","white","black","white","white","black","white","white","black","white","white","white","black","black","black","black","white","white","black","white","black","black","white","white","black","black","black","black","white","black","black","black","white","white","black","white","black","white","white","black","black","black","black","black","black","black","black","white","black","black","black","black","white","white","black","white","white","white","black","black","black","black","white","white","black","white","white","white","black","white","white","black","black","black","black","white","black","white","white","white","white","white","black","white","white","white","black","white","black","black","white","black","white","black","white","black","black","white","white","black","white","black","black","white","black","white","black","black","white","white","white","white","white","white","black","white","black","black","white","black","black","black","black","white","white","white","white","white","white","black","white","white","white","white","white","black","white","white","black","black","white","white","white","black","white","black","black","white","black","black","black","black","black","black","black","white","black","black","white","black","black","white","black","white","white","black","black","white","black","white","black","black","white","black","black","black","white","black","white","white"],"dot_shape":"circle","background_color":"#AAA","RDK_type":3,"aperture_type":2,"reinsert_type":2,"frame_rate":16.34426229508197,"frame_rate_array":[8,28,16,16,17,15,16,16,17,16,17,18,14,16,17,16,13,17,14,17,16,16,17,16,17,20,16,16,15,16,16,17,17,16,15,18,16,15,17,16,18,15,15,17,17,17,15,16,17,15,19,16,16,17,15,17,17,17,16,16,16,13,17,16,16,18,17,18,18,16,16,18,15,17,16,16,17,16,17,13,19,16,17,15,17,16,16,17,15,19,17,16,16,17,15,16,21,11,16,16,17,18,14,16,18,18,14,17,17,16,15,17,16,17,16,15,17,18,14,17,15,18],"number_of_frames":122,"aperture_center_x":376,"aperture_center_y":629,"fixation_cross":true,"fixation_cross_width":15,"fixation_cross_height":15,"fixation_cross_color":"#111","fixation_cross_thickness":1,"border":true,"border_thickness":2,"border_color":"transparent","canvas_width":752,"canvas_height":1258,"trial_type":"rdk","trial_index":96,"plugin_version":"2.0.0","time_elapsed":551969},{"rt":2154,"stimulus":"\n        <div class=\"response-container\">\n          <div class=\"response-instruction\">\n            <p>rotate the bar by using the left and right arrow keys.</p>\n            <p>when you are determined, press the Enter key.</p>\n          </div>\n          <div class=\"response-circle\">\n            <div class=\"response-fixation\"></div>\n            <div id=\"bar\" class=\"rotating-bar\"></div>\n          </div>\n        </div>\n      ","response":"Enter","trial_type":"html-keyboard-response","trial_index":97,"plugin_version":"2.1.0","time_elapsed":554126,"random_initial_angle":98,"response_angle_css":98,"response_angle_rdk":352,"angular_error_target":71,"angular_error_distractor":169,"target_direction":281,"target_group":"white","reward_points":0},{"rt":null,"stimulus":"\n          <p style=\"color: #FF3333;\">Your reward: 0 points</p>\n        ","response":null,"trial_type":"html-keyboard-response","trial_index":98,"plugin_version":"2.1.0","time_elapsed":556129},{"rt":null,"stimulus":"<div class=\"fixation\" style=\"font-size: 60px;\">+</div>","response":null,"trial_type":"html-keyboard-response","trial_index":99,"plugin_version":"2.1.0","time_elapsed":557137},{"phase":"learning-awareness","target_group":"black","condition_label":"B_H_vs_W_L_rep5","target_direction":4,"distractor_direction":99,"session_rotation":244,"rt":-1,"response":"","correct":false,"choices":"ALL_KEYS","correct_choice":["a"],"trial_duration":2000,"flip_timestamps":[],"response_ends_trial":false,"number_of_apertures":200,"number_of_dots":[1,1,1,1,1,1,1,1,1,1,1,1,1,1,1,1,1,1,1,1,1,1,1,1,1,1,1,1,1,1,1,1,1,1,1,1,1,1,1,1,1,1,1,1,1,1,1,1,1,1,1,1,1,1,1,1,1,1,1,1,1,1,1,1,1,1,1,1,1,1,1,1,1,1,1,1,1,1,1,1,1,1,1,1,1,1,1,1,1,1,1,1,1,1,1,1,1,1,1,1,1,1,1,1,1,1,1,1,1,1,1,1,1,1,1,1,1,1,1,1,1,1,1,1,1,1,1,1,1,1,1,1,1,1,1,1,1,1,1,1,1,1,1,1,1,1,1,1,1,1,1,1,1,1,1,1,1,1,1,1,1,1,1,1,1,1,1,1,1,1,1,1,1,1,1,1,1,1,1,1,1,1,1,1,1,1,1,1,1,1,1,1,1,1,1,1,1,1,1,1],"number_of_sets":1,"coherent_direction":[99,99,99,4,4,99,99,99,99,4,99,99,99,4,4,4,99,99,4,99,4,99,4,99,99,4,99,99,4,99,4,4,99,4,4,99,99,99,4,4,4,4,4,4,4,99,4,99,4,4,4,99,4,4,4,4,4,99,4,99,4,99,99,4,4,4,4,4,99,99,99,99,99,4,99,99,99,99,4,4,99,4,4,99,4,4,4,99,99,4,4,99,99,99,4,99,99,4,99,4,4,4,4,99,4,99,4,4,4,4,99,4,4,99,4,99,99,4,4,99,99,99,4,4,4,99,99,4,99,4,99,4,99,99,4,4,99,4,99,4,99,4,4,99,99,99,99,4,99,99,99,99,4,99,99,4,4,99,99,99,99,4,99,99,99,4,4,4,99,99,99,99,4,99,4,4,4,4,99,4,4,4,4,99,4,4,4,4,4,99,99,99,99,99,99,4,99,99,99,4],"coherence":1,"opposite_coherence":0,"dot_radius":2,"dot_side_length":1,"dot_life":-1,"move_distance":1,"aperture_width":300,"aperture_height":300,"dot_color":["white","white","white","black","black","white","white","white","white","black","white","white","white","black","black","black","white","white","black","white","black","white","black","white","white","black","white","white","black","white","black","black","white","black","black","white","white","white","black","black","black","black","black","black","black","white","black","white","black","black","black","white","black","black","black","black","black","white","black","white","black","white","white","black","black","black","black","black","white","white","white","white","white","black","white","white","white","white","black","black","white","black","black","white","black","black","black","white","white","black","black","white","white","white","black","white","white","black","white","black","black","black","black","white","black","white","black","black","black","black","white","black","black","white","black","white","white","black","black","white","white","white","black","black","black","white","white","black","white","black","white","black","white","white","black","black","white","black","white","black","white","black","black","white","white","white","white","black","white","white","white","white","black","white","white","black","black","white","white","white","white","black","white","white","white","black","black","black","white","white","white","white","black","white","black","black","black","black","white","black","black","black","black","white","black","black","black","black","black","white","white","white","white","white","white","black","white","white","white","black"],"dot_shape":"circle","background_color":"#AAA","RDK_type":3,"aperture_type":2,"reinsert_type":2,"frame_rate":16.25409836065574,"frame_rate_array":[9,11,18,15,19,15,14,18,19,15,16,15,16,17,16,16,18,14,18,14,14,18,15,17,22,13,17,16,13,18,18,17,17,14,17,16,18,16,18,10,19,16,18,15,18,16,16,17,17,16,16,18,16,16,20,11,17,17,16,17,16,16,15,18,16,14,19,16,17,15,16,19,14,18,16,17,17,16,16,18,16,14,18,17,16,15,17,17,16,16,17,16,16,17,15,17,17,16,18,14,17,17,15,17,17,16,15,18,16,15,18,14,19,15,16,16,19,13,17,15,19,16],"number_of_frames":122,"aperture_center_x":376,"aperture_center_y":629,"fixation_cross":true,"fixation_cross_width":15,"fixation_cross_height":15,"fixation_cross_color":"#111","fixation_cross_thickness":1,"border":true,"border_thickness":2,"border_color":"transparent","canvas_width":752,"canvas_height":1258,"trial_type":"rdk","trial_index":100,"plugin_version":"2.0.0","time_elapsed":559156},{"rt":19534,"stimulus":"\n        <div class=\"response-container\">\n          <div class=\"response-instruction\">\n            <p>rotate the bar by using the left and right arrow keys.</p>\n            <p>when you are determined, press the Enter key.</p>\n          </div>\n          <div class=\"response-circle\">\n            <div class=\"response-fixation\"></div>\n            <div id=\"bar\" class=\"rotating-bar\"></div>\n          </div>\n        </div>\n      ","response":"Enter","trial_type":"html-keyboard-response","trial_index":101,"plugin_version":"2.1.0","time_elapsed":578693,"random_initial_angle":216,"response_angle_css":216,"response_angle_rdk":234,"angular_error_target":-130,"angular_error_distractor":135,"target_direction":4,"target_group":"black","reward_points":0},{"rt":null,"stimulus":"\n          <p style=\"color: #FF3333;\">Your reward: 0 points</p>\n        ","response":null,"trial_type":"html-keyboard-response","trial_index":102,"plugin_version":"2.1.0","time_elapsed":580698},{"rt":null,"stimulus":"<div class=\"fixation\" style=\"font-size: 60px;\">+</div>","response":null,"trial_type":"html-keyboard-response","trial_index":103,"plugin_version":"2.1.0","time_elapsed":581705},{"phase":"learning-awareness","target_group":"black","condition_label":"B_H_vs_W_L_rep7","target_direction":350,"distractor_direction":89,"session_rotation":244,"rt":-1,"response":"","correct":false,"choices":"ALL_KEYS","correct_choice":["a"],"trial_duration":2000,"flip_timestamps":[],"response_ends_trial":false,"number_of_apertures":200,"number_of_dots":[1,1,1,1,1,1,1,1,1,1,1,1,1,1,1,1,1,1,1,1,1,1,1,1,1,1,1,1,1,1,1,1,1,1,1,1,1,1,1,1,1,1,1,1,1,1,1,1,1,1,1,1,1,1,1,1,1,1,1,1,1,1,1,1,1,1,1,1,1,1,1,1,1,1,1,1,1,1,1,1,1,1,1,1,1,1,1,1,1,1,1,1,1,1,1,1,1,1,1,1,1,1,1,1,1,1,1,1,1,1,1,1,1,1,1,1,1,1,1,1,1,1,1,1,1,1,1,1,1,1,1,1,1,1,1,1,1,1,1,1,1,1,1,1,1,1,1,1,1,1,1,1,1,1,1,1,1,1,1,1,1,1,1,1,1,1,1,1,1,1,1,1,1,1,1,1,1,1,1,1,1,1,1,1,1,1,1,1,1,1,1,1,1,1,1,1,1,1,1,1],"number_of_sets":1,"coherent_direction":[89,89,350,89,89,350,350,350,89,89,89,89,89,89,350,350,350,350,350,89,350,89,89,350,89,350,350,350,350,350,350,89,89,350,350,89,89,350,350,89,89,350,350,89,350,89,89,350,350,350,350,89,89,89,350,89,89,89,89,350,350,89,350,89,350,89,350,89,350,89,350,89,350,350,350,350,350,89,89,89,350,89,89,89,89,350,89,350,89,350,89,350,89,350,350,89,350,89,350,350,89,350,350,350,89,350,89,350,89,89,89,89,89,350,89,89,89,89,89,350,89,89,350,350,350,350,350,89,89,89,350,350,350,350,350,350,89,350,89,350,350,350,350,350,89,89,350,89,89,89,350,350,350,350,89,89,350,89,350,89,350,89,350,89,89,89,350,350,89,89,89,89,89,350,89,89,89,89,89,350,350,89,350,89,350,89,89,350,350,89,350,350,350,350,89,350,89,89,350,350],"coherence":1,"opposite_coherence":0,"dot_radius":2,"dot_side_length":1,"dot_life":-1,"move_distance":1,"aperture_width":300,"aperture_height":300,"dot_color":["white","white","black","white","white","black","black","black","white","white","white","white","white","white","black","black","black","black","black","white","black","white","white","black","white","black","black","black","black","black","black","white","white","black","black","white","white","black","black","white","white","black","black","white","black","white","white","black","black","black","black","white","white","white","black","white","white","white","white","black","black","white","black","white","black","white","black","white","black","white","black","white","black","black","black","black","black","white","white","white","black","white","white","white","white","black","white","black","white","black","white","black","white","black","black","white","black","white","black","black","white","black","black","black","white","black","white","black","white","white","white","white","white","black","white","white","white","white","white","black","white","white","black","black","black","black","black","white","white","white","black","black","black","black","black","black","white","black","white","black","black","black","black","black","white","white","black","white","white","white","black","black","black","black","white","white","black","white","black","white","black","white","black","white","white","white","black","black","white","white","white","white","white","black","white","white","white","white","white","black","black","white","black","white","black","white","white","black","black","white","black","black","black","black","white","black","white","white","black","black"],"dot_shape":"circle","background_color":"#AAA","RDK_type":3,"aperture_type":2,"reinsert_type":2,"frame_rate":16.40983606557377,"frame_rate_array":[8,28,17,16,18,11,19,18,13,17,16,18,16,16,17,17,16,15,16,20,16,12,17,16,17,20,15,14,17,18,19,19,12,17,17,16,16,17,16,16,17,16,16,16,17,18,12,19,15,19,17,15,17,17,15,16,17,15,16,16,17,18,13,20,22,10,16,17,15,21,12,16,19,12,18,16,17,17,16,16,16,18,16,14,19,15,15,19,15,18,13,19,16,14,23,11,17,16,16,18,15,18,16,14,18,17,19,14,15,19,13,20,16,16,16,16,15,15,19,17,18,15],"number_of_frames":122,"aperture_center_x":376,"aperture_center_y":629,"fixation_cross":true,"fixation_cross_width":15,"fixation_cross_height":15,"fixation_cross_color":"#111","fixation_cross_thickness":1,"border":true,"border_thickness":2,"border_color":"transparent","canvas_width":752,"canvas_height":1258,"trial_type":"rdk","trial_index":104,"plugin_version":"2.0.0","time_elapsed":583723},{"rt":2225,"stimulus":"\n        <div class=\"response-container\">\n          <div class=\"response-instruction\">\n            <p>rotate the bar by using the left and right arrow keys.</p>\n            <p>when you are determined, press the Enter key.</p>\n          </div>\n          <div class=\"response-circle\">\n            <div class=\"response-fixation\"></div>\n            <div id=\"bar\" class=\"rotating-bar\"></div>\n          </div>\n        </div>\n      ","response":"Enter","trial_type":"html-keyboard-response","trial_index":105,"plugin_version":"2.1.0","time_elapsed":585951,"random_initial_angle":325,"response_angle_css":325,"response_angle_rdk":125,"angular_error_target":135,"angular_error_distractor":36,"target_direction":350,"target_group":"black","reward_points":0},{"rt":null,"stimulus":"\n          <p style=\"color: #FF3333;\">Your reward: 0 points</p>\n        ","response":null,"trial_type":"html-keyboard-response","trial_index":106,"plugin_version":"2.1.0","time_elapsed":587955},{"rt":null,"stimulus":"<div class=\"fixation\" style=\"font-size: 60px;\">+</div>","response":null,"trial_type":"html-keyboard-response","trial_index":107,"plugin_version":"2.1.0","time_elapsed":588962},{"phase":"learning-awareness","target_g