[{"rt":1555,"stimulus":"Welcome to the experiment. Press any key to begin.","response":"Enter","trial_type":"html-keyboard-response","trial_index":0,"plugin_version":"2.1.0","time_elapsed":1558},{"rt":5452,"stimulus":"\n        <div class=\"instructions-container\">\n          <h2>Instructions</h2>\n\n          <p>\n          In this experiment, you will see <strong>two Random Dot Kinematograms (RDKs)</strong> displayed simultaneously.\n          </p>\n\n          <p>\n          An RDK is a visual stimulus consisting of many small dots that move coherently in a single direction. \n          In this experiment, the dots will be either <strong>white</strong> or <strong>black</strong> \n          (see the short demo below for an example of an RDK stimulus).\n          </p>\n\n          <p>\n          On each trial, the two RDKs will move in different directions. \n          Your task is to decide <strong>which RDK appears to contain more dots</strong>.\n          </p>\n\n          <p>\n          The RDK that you judge to have more dots is called the <strong>target RDK</strong>. \n          For example, if the white RDK appears to have more dots than the black RDK, \n          you should report the motion direction of the white RDK.\n          </p>\n\n          <p>\n          After viewing the RDKs, you will rotate a bar to indicate the perceived direction of the target RDK \n          using the <strong>left</strong> and <strong>right arrow keys</strong>. \n          Press <strong>Enter</strong> when you are satisfied with your response.\n          When the bar is held down, the rotation speed increases.\n          </p>\n\n          <p>\n          You will receive points based on the <strong>accuracy of your response</strong>, \n          and your final <strong>bonus reward</strong> may depend on your overall performance. \n          Please try to respond as accurately as possible.\n          </p>\n\n          <p>\n          You will first complete <strong>16 practice trials</strong>. \n          Press the <strong>Enter</strong> key to start the practice phase.\n          </p>\n\n          <canvas id=\"instruction-demo-rdk\" width=\"200\" height=\"200\"style=\"display:block;margin:12px auto; border-radius: 50%;\"></canvas>\n        </div>\n      ","response":"Enter","trial_type":"html-keyboard-response","trial_index":1,"plugin_version":"2.1.0","time_elapsed":7011},{"rt":null,"stimulus":"<div class=\"fixation\" style=\"font-size: 60px;\">+</div>","response":null,"trial_type":"html-keyboard-response","trial_index":2,"plugin_version":"2.1.0","time_elapsed":8014},{"target_group":"black","target_index":1,"condition_label":"practice","rt":-1,"response":"","correct":false,"choices":"ALL_KEYS","correct_choice":["a"],"trial_duration":2000,"flip_timestamps":[],"response_ends_trial":false,"number_of_apertures":2,"number_of_dots":[83,100],"number_of_sets":1,"coherent_direction":[11,118],"coherence":1,"opposite_coherence":0,"dot_radius":2,"dot_side_length":1,"dot_life":-1,"move_distance":1,"aperture_width":300,"aperture_height":300,"dot_color":["white","black"],"dot_shape":"circle","background_color":"#AAA","RDK_type":3,"aperture_type":2,"reinsert_type":2,"frame_rate":16.891666666666666,"frame_rate_array":[10,17,16,17,17,17,17,17,17,17,17,17,17,17,17,17,17,17,17,17,17,17,17,17,17,17,17,17,17,17,17,17,17,16,16,18,17,17,17,17,17,17,17,17,17,17,17,17,17,17,17,17,17,17,16,17,18,17,16,18,17,17,17,17,17,17,17,17,17,17,17,17,17,17,17,17,17,17,17,17,17,17,17,17,17,17,17,17,17,18,16,17,17,16,17,17,17,17,17,17,16,17,17,17,17,16,17,17,17,17,17,17,17,17,17,17,17,17,16,17],"number_of_frames":120,"aperture_center_x":1280,"aperture_center_y":720,"fixation_cross":true,"fixation_cross_width":15,"fixation_cross_height":15,"fixation_cross_color":"#111","fixation_cross_thickness":1,"border":true,"border_thickness":2,"border_color":"transparent","canvas_width":2560,"canvas_height":1440,"trial_type":"rdk","trial_index":3,"plugin_version":"2.0.0","time_elapsed":10020,"phase":"practice","target_direction":118,"distractor_direction":11},{"rt":2342,"stimulus":"\n        <div class=\"response-container\">\n          <div class=\"response-instruction\">\n            <p>rotate the bar by using the left and right arrow keys.</p>\n            <p>when you are determined, press the Enter key.</p>\n          </div>\n          <div class=\"response-circle\">\n            <div class=\"response-fixation\"></div>\n            <div id=\"bar\" class=\"rotating-bar\"></div>\n          </div>\n        </div>\n      ","response":"Enter","trial_type":"html-keyboard-response","trial_index":4,"plugin_version":"2.1.0","time_elapsed":12363,"random_initial_angle":96,"response_angle_css":-48,"response_angle_rdk":138,"angular_error_target":20,"angular_error_distractor":127,"target_direction":118,"target_group":"black","reward_points":6},{"rt":null,"stimulus":"\n          <p style=\"color: #00FF00;\">Your reward: 6 points</p>\n        ","response":null,"trial_type":"html-keyboard-response","trial_index":5,"plugin_version":"2.1.0","time_elapsed":14366},{"rt":null,"stimulus":"<div class=\"fixation\" style=\"font-size: 60px;\">+</div>","response":null,"trial_type":"html-keyboard-response","trial_index":6,"plugin_version":"2.1.0","time_elapsed":15369},{"target_group":"white","target_index":0,"condition_label":"practice","rt":-1,"response":"","correct":false,"choices":"ALL_KEYS","correct_choice":["a"],"trial_duration":2000,"flip_timestamps":[],"response_ends_trial":false,"number_of_apertures":2,"number_of_dots":[100,99],"number_of_sets":1,"coherent_direction":[301,98],"coherence":1,"opposite_coherence":0,"dot_radius":2,"dot_side_length":1,"dot_life":-1,"move_distance":1,"aperture_width":300,"aperture_height":300,"dot_color":["white","black"],"dot_shape":"circle","background_color":"#AAA","RDK_type":3,"aperture_type":2,"reinsert_type":2,"frame_rate":16.825,"frame_rate_array":[9,17,16,17,17,17,17,17,16,17,16,17,16,18,17,17,17,17,16,18,17,17,17,16,17,17,17,17,17,17,17,17,17,17,17,17,17,16,17,17,17,17,17,16,17,17,17,16,17,17,17,17,16,17,17,17,17,17,17,17,17,17,17,17,17,17,17,17,17,17,16,18,16,17,16,18,16,17,17,17,17,17,17,17,17,17,17,17,17,17,17,17,17,17,17,16,18,16,17,17,17,16,16,18,17,17,17,17,17,17,17,16,17,17,17,17,17,17,17,17],"number_of_frames":120,"aperture_center_x":1280,"aperture_center_y":720,"fixation_cross":true,"fixation_cross_width":15,"fixation_cross_height":15,"fixation_cross_color":"#111","fixation_cross_thickness":1,"border":true,"border_thickness":2,"border_color":"transparent","canvas_width":2560,"canvas_height":1440,"trial_type":"rdk","trial_index":7,"plugin_version":"2.0.0","time_elapsed":17374,"phase":"practice","target_direction":301,"distractor_direction":98},{"rt":3032,"stimulus":"\n        <div class=\"response-container\">\n          <div class=\"response-instruction\">\n            <p>rotate the bar by using the left and right arrow keys.</p>\n            <p>when you are determined, press the Enter key.</p>\n          </div>\n          <div class=\"response-circle\">\n            <div class=\"response-fixation\"></div>\n            <div id=\"bar\" class=\"rotating-bar\"></div>\n          </div>\n        </div>\n      ","response":"Enter","trial_type":"html-keyboard-response","trial_index":8,"plugin_version":"2.1.0","time_elapsed":20407,"random_initial_angle":86,"response_angle_css":-19,"response_angle_rdk":109,"angular_error_target":168,"angular_error_distractor":11,"target_direction":301,"target_group":"white","reward_points":0},{"rt":null,"stimulus":"\n          <p style=\"color: #FF3333;\">Your reward: 0 points</p>\n        ","response":null,"trial_type":"html-keyboard-response","trial_index":9,"plugin_version":"2.1.0","time_elapsed":22410},{"rt":null,"stimulus":"<div class=\"fixation\" style=\"font-size: 60px;\">+</div>","response":null,"trial_type":"html-keyboard-response","trial_index":10,"plugin_version":"2.1.0","time_elapsed":23412},{"target_group":"black","target_index":1,"condition_label":"practice","rt":-1,"response":"","correct":false,"choices":"ALL_KEYS","correct_choice":["a"],"trial_duration":2000,"flip_timestamps":[],"response_ends_trial":false,"number_of_apertures":2,"number_of_dots":[52,100],"number_of_sets":1,"coherent_direction":[141,13],"coherence":1,"opposite_coherence":0,"dot_radius":2,"dot_side_length":1,"dot_life":-1,"move_distance":1,"aperture_width":300,"aperture_height":300,"dot_color":["white","black"],"dot_shape":"circle","background_color":"#AAA","RDK_type":3,"aperture_type":2,"reinsert_type":2,"frame_rate":16.760330578512395,"frame_rate_array":[1,15,17,17,17,17,17,17,17,17,16,17,17,17,17,17,17,17,17,17,17,17,16,17,17,17,17,17,17,17,16,17,17,16,17,17,17,17,17,17,17,17,17,17,17,17,16,17,17,17,17,17,17,17,17,16,16,17,17,17,17,17,17,17,17,16,17,17,17,17,16,17,17,16,17,17,17,17,17,17,16,17,17,17,17,17,17,17,17,17,17,17,17,16,18,17,17,17,17,17,17,17,17,17,17,17,17,17,17,17,17,17,17,17,17,17,17,17,17,17,17],"number_of_frames":121,"aperture_center_x":1280,"aperture_center_y":720,"fixation_cross":true,"fixation_cross_width":15,"fixation_cross_height":15,"fixation_cross_color":"#111","fixation_cross_thickness":1,"border":true,"border_thickness":2,"border_color":"transparent","canvas_width":2560,"canvas_height":1440,"trial_type":"rdk","trial_index":11,"plugin_version":"2.0.0","time_elapsed":25416,"phase":"practice","target_direction":13,"distractor_direction":141},{"rt":1305,"stimulus":"\n        <div class=\"response-container\">\n          <div class=\"response-instruction\">\n            <p>rotate the bar by using the left and right arrow keys.</p>\n            <p>when you are determined, press the Enter key.</p>\n          </div>\n          <div class=\"response-circle\">\n            <div class=\"response-fixation\"></div>\n            <div id=\"bar\" class=\"rotating-bar\"></div>\n          </div>\n        </div>\n      ","response":"Enter","trial_type":"html-keyboard-response","trial_index":12,"plugin_version":"2.1.0","time_elapsed":26722,"random_initial_angle":112,"response_angle_css":70,"response_angle_rdk":20,"angular_error_target":7,"angular_error_distractor":-121,"target_direction":13,"target_group":"black","reward_points":8},{"rt":null,"stimulus":"\n          <p style=\"color: #00FF00;\">Your reward: 8 points</p>\n        ","response":null,"trial_type":"html-keyboard-response","trial_index":13,"plugin_version":"2.1.0","time_elapsed":28725},{"rt":null,"stimulus":"<div class=\"fixation\" style=\"font-size: 60px;\">+</div>","response":null,"trial_type":"html-keyboard-response","trial_index":14,"plugin_version":"2.1.0","time_elapsed":29727},{"target_group":"white","target_index":0,"condition_label":"practice","rt":-1,"response":"","correct":false,"choices":"ALL_KEYS","correct_choice":["a"],"trial_duration":2000,"flip_timestamps":[],"response_ends_trial":false,"number_of_apertures":2,"number_of_dots":[100,78],"number_of_sets":1,"coherent_direction":[186,61],"coherence":1,"opposite_coherence":0,"dot_radius":2,"dot_side_length":1,"dot_life":-1,"move_distance":1,"aperture_width":300,"aperture_height":300,"dot_color":["white","black"],"dot_shape":"circle","background_color":"#AAA","RDK_type":3,"aperture_type":2,"reinsert_type":2,"frame_rate":16.865546218487395,"frame_rate_array":[18,17,17,17,17,17,17,17,17,16,17,17,16,17,17,16,17,16,17,16,17,17,17,17,17,17,17,17,17,17,16,17,17,17,17,17,16,17,16,18,17,16,17,17,17,17,17,17,17,17,16,17,17,17,17,17,16,17,17,17,16,18,16,18,16,17,17,16,17,17,17,17,17,16,16,17,17,17,17,17,17,17,17,17,17,17,17,17,17,17,17,17,17,17,16,17,17,17,17,17,17,16,17,17,17,17,17,17,17,17,17,17,17,17,17,17,16,17,17],"number_of_frames":119,"aperture_center_x":1280,"aperture_center_y":720,"fixation_cross":true,"fixation_cross_width":15,"fixation_cross_height":15,"fixation_cross_color":"#111","fixation_cross_thickness":1,"border":true,"border_thickness":2,"border_color":"transparent","canvas_width":2560,"canvas_height":1440,"trial_type":"rdk","trial_index":15,"plugin_version":"2.0.0","time_elapsed":31732,"phase":"practice","target_direction":186,"distractor_direction":61},{"rt":3227,"stimulus":"\n        <div class=\"response-container\">\n          <div class=\"response-instruction\">\n            <p>rotate the bar by using the left and right arrow keys.</p>\n            <p>when you are determined, press the Enter key.</p>\n          </div>\n          <div class=\"response-circle\">\n            <div class=\"response-fixation\"></div>\n            <div id=\"bar\" class=\"rotating-bar\"></div>\n          </div>\n        </div>\n      ","response":"Enter","trial_type":"html-keyboard-response","trial_index":16,"plugin_version":"2.1.0","time_elapsed":34960,"random_initial_angle":116,"response_angle_css":-98,"response_angle_rdk":188,"angular_error_target":2,"angular_error_distractor":127,"target_direction":186,"target_group":"white","reward_points":9},{"rt":null,"stimulus":"\n          <p style=\"color: #00FF00;\">Your reward: 9 points</p>\n        ","response":null,"trial_type":"html-keyboard-response","trial_index":17,"plugin_version":"2.1.0","time_elapsed":36962},{"rt":null,"stimulus":"<div class=\"fixation\" style=\"font-size: 60px;\">+</div>","response":null,"trial_type":"html-keyboard-response","trial_index":18,"plugin_version":"2.1.0","time_elapsed":37965},{"target_group":"black","target_index":1,"condition_label":"practice","rt":-1,"response":"","correct":false,"choices":"ALL_KEYS","correct_choice":["a"],"trial_duration":2000,"flip_timestamps":[],"response_ends_trial":false,"number_of_apertures":2,"number_of_dots":[79,100],"number_of_sets":1,"coherent_direction":[262,161],"coherence":1,"opposite_coherence":0,"dot_radius":2,"dot_side_length":1,"dot_life":-1,"move_distance":1,"aperture_width":300,"aperture_height":300,"dot_color":["white","black"],"dot_shape":"circle","background_color":"#AAA","RDK_type":3,"aperture_type":2,"reinsert_type":2,"frame_rate":16.866666666666667,"frame_rate_array":[13,17,16,18,17,17,17,17,17,17,17,17,17,17,17,16,17,17,17,17,17,17,17,17,17,17,17,17,17,17,16,17,17,17,17,17,17,17,17,17,17,17,17,16,17,16,18,17,16,17,17,17,17,17,17,17,17,17,17,16,18,16,17,17,16,17,17,17,17,17,17,17,17,17,17,17,17,17,17,17,17,17,17,17,17,16,17,17,17,17,17,17,17,17,17,17,16,17,17,17,17,17,16,17,17,16,17,16,17,17,17,17,17,17,17,17,17,17,17,16],"number_of_frames":120,"aperture_center_x":1280,"aperture_center_y":720,"fixation_cross":true,"fixation_cross_width":15,"fixation_cross_height":15,"fixation_cross_color":"#111","fixation_cross_thickness":1,"border":true,"border_thickness":2,"border_color":"transparent","canvas_width":2560,"canvas_height":1440,"trial_type":"rdk","trial_index":19,"plugin_version":"2.0.0","time_elapsed":39969,"phase":"practice","target_direction":161,"distractor_direction":262},{"rt":1630,"stimulus":"\n        <div class=\"response-container\">\n          <div class=\"response-instruction\">\n            <p>rotate the bar by using the left and right arrow keys.</p>\n            <p>when you are determined, press the Enter key.</p>\n          </div>\n          <div class=\"response-circle\">\n            <div class=\"response-fixation\"></div>\n            <div id=\"bar\" class=\"rotating-bar\"></div>\n          </div>\n        </div>\n      ","response":"Enter","trial_type":"html-keyboard-response","trial_index":20,"plugin_version":"2.1.0","time_elapsed":41600,"random_initial_angle":255,"response_angle_css":296,"response_angle_rdk":154,"angular_error_target":-7,"angular_error_distractor":-108,"target_direction":161,"target_group":"black","reward_points":8},{"rt":null,"stimulus":"\n          <p style=\"color: #00FF00;\">Your reward: 8 points</p>\n        ","response":null,"trial_type":"html-keyboard-response","trial_index":21,"plugin_version":"2.1.0","time_elapsed":43602},{"rt":null,"stimulus":"<div class=\"fixation\" style=\"font-size: 60px;\">+</div>","response":null,"trial_type":"html-keyboard-response","trial_index":22,"plugin_version":"2.1.0","time_elapsed":44604},{"target_group":"white","target_index":0,"condition_label":"practice","rt":-1,"response":"","correct":false,"choices":"ALL_KEYS","correct_choice":["a"],"trial_duration":2000,"flip_timestamps":[],"response_ends_trial":false,"number_of_apertures":2,"number_of_dots":[100,69],"number_of_sets":1,"coherent_direction":[272,53],"coherence":1,"opposite_coherence":0,"dot_radius":2,"dot_side_length":1,"dot_life":-1,"move_distance":1,"aperture_width":300,"aperture_height":300,"dot_color":["white","black"],"dot_shape":"circle","background_color":"#AAA","RDK_type":3,"aperture_type":2,"reinsert_type":2,"frame_rate":16.974789915966387,"frame_rate_array":[25,17,17,17,16,17,17,17,17,17,17,17,17,17,17,17,17,16,17,17,16,17,16,17,16,16,17,17,17,17,17,17,17,17,17,16,17,17,17,17,17,16,17,17,17,17,17,17,17,17,17,17,17,17,17,17,17,16,17,17,17,17,17,17,17,17,17,17,17,17,17,17,17,17,17,16,18,17,17,17,17,17,17,17,17,17,17,17,17,17,17,16,17,17,17,17,17,17,17,17,17,17,17,17,17,17,15,18,17,17,17,17,17,17,17,17,17,17,17],"number_of_frames":119,"aperture_center_x":1280,"aperture_center_y":720,"fixation_cross":true,"fixation_cross_width":15,"fixation_cross_height":15,"fixation_cross_color":"#111","fixation_cross_thickness":1,"border":true,"border_thickness":2,"border_color":"transparent","canvas_width":2560,"canvas_height":1440,"trial_type":"rdk","trial_index":23,"plugin_version":"2.0.0","time_elapsed":46608,"phase":"practice","target_direction":272,"distractor_direction":53},{"rt":2539,"stimulus":"\n        <div class=\"response-container\">\n          <div class=\"response-instruction\">\n            <p>rotate the bar by using the left and right arrow keys.</p>\n            <p>when you are determined, press the Enter key.</p>\n          </div>\n          <div class=\"response-circle\">\n            <div class=\"response-fixation\"></div>\n            <div id=\"bar\" class=\"rotating-bar\"></div>\n          </div>\n        </div>\n      ","response":"Enter","trial_type":"html-keyboard-response","trial_index":24,"plugin_version":"2.1.0","time_elapsed":49148,"random_initial_angle":315,"response_angle_css":200,"response_angle_rdk":250,"angular_error_target":-22,"angular_error_distractor":-163,"target_direction":272,"target_group":"white","reward_points":5},{"rt":null,"stimulus":"\n          <p style=\"color: #00FF00;\">Your reward: 5 points</p>\n        ","response":null,"trial_type":"html-keyboard-response","trial_index":25,"plugin_version":"2.1.0","time_elapsed":51150},{"rt":null,"stimulus":"<div class=\"fixation\" style=\"font-size: 60px;\">+</div>","response":null,"trial_type":"html-keyboard-response","trial_index":26,"plugin_version":"2.1.0","time_elapsed":52152},{"target_group":"white","target_index":0,"condition_label":"practice","rt":-1,"response":"","correct":false,"choices":"ALL_KEYS","correct_choice":["a"],"trial_duration":2000,"flip_timestamps":[],"response_ends_trial":false,"number_of_apertures":2,"number_of_dots":[100,99],"number_of_sets":1,"coherent_direction":[210,107],"coherence":1,"opposite_coherence":0,"dot_radius":2,"dot_side_length":1,"dot_life":-1,"move_distance":1,"aperture_width":300,"aperture_height":300,"dot_color":["white","black"],"dot_shape":"circle","background_color":"#AAA","RDK_type":3,"aperture_type":2,"reinsert_type":2,"frame_rate":16.816666666666666,"frame_rate_array":[11,17,17,17,17,17,17,17,17,17,16,18,17,17,17,16,18,16,17,16,18,16,17,17,17,17,17,17,16,17,17,17,17,16,17,17,17,16,16,17,17,17,17,16,17,17,17,17,16,17,17,17,17,17,17,17,16,17,17,17,17,17,16,17,17,17,17,17,17,17,16,17,17,17,16,17,17,17,17,17,17,17,17,17,17,17,17,17,17,17,17,17,17,17,17,16,18,16,17,16,17,17,17,17,17,17,16,17,17,17,16,17,17,17,17,17,17,17,17,17],"number_of_frames":120,"aperture_center_x":1280,"aperture_center_y":720,"fixation_cross":true,"fixation_cross_width":15,"fixation_cross_height":15,"fixation_cross_color":"#111","fixation_cross_thickness":1,"border":true,"border_thickness":2,"border_color":"transparent","canvas_width":2560,"canvas_height":1440,"trial_type":"rdk","trial_index":27,"plugin_version":"2.0.0","time_elapsed":54155,"phase":"practice","target_direction":210,"distractor_direction":107},{"rt":2866,"stimulus":"\n        <div class=\"response-container\">\n          <div class=\"response-instruction\">\n            <p>rotate the bar by using the left and right arrow keys.</p>\n            <p>when you are determined, press the Enter key.</p>\n          </div>\n          <div class=\"response-circle\">\n            <div class=\"response-fixation\"></div>\n            <div id=\"bar\" class=\"rotating-bar\"></div>\n          </div>\n        </div>\n      ","response":"Enter","trial_type":"html-keyboard-response","trial_index":28,"plugin_version":"2.1.0","time_elapsed":57022,"random_initial_angle":288,"response_angle_css":348,"response_angle_rdk":102,"angular_error_target":-108,"angular_error_distractor":-5,"target_direction":210,"target_group":"white","reward_points":0},{"rt":null,"stimulus":"\n          <p style=\"color: #FF3333;\">Your reward: 0 points</p>\n        ","response":null,"trial_type":"html-keyboard-response","trial_index":29,"plugin_version":"2.1.0","time_elapsed":59024},{"rt":null,"stimulus":"<div class=\"fixation\" style=\"font-size: 60px;\">+</div>","response":null,"trial_type":"html-keyboard-response","trial_index":30,"plugin_version":"2.1.0","time_elapsed":60026},{"target_group":"white","target_index":0,"condition_label":"practice","rt":-1,"response":"","correct":false,"choices":"ALL_KEYS","correct_choice":["a"],"trial_duration":2000,"flip_timestamps":[],"response_ends_trial":false,"number_of_apertures":2,"number_of_dots":[100,85],"number_of_sets":1,"coherent_direction":[303,79],"coherence":1,"opposite_coherence":0,"dot_radius":2,"dot_side_length":1,"dot_life":-1,"move_distance":1,"aperture_width":300,"aperture_height":300,"dot_color":["white","black"],"dot_shape":"circle","background_color":"#AAA","RDK_type":3,"aperture_type":2,"reinsert_type":2,"frame_rate":16.75,"frame_rate_array":[4,17,17,17,17,17,16,17,16,18,17,16,17,17,17,17,17,17,16,18,17,17,16,17,17,17,17,17,17,17,17,17,17,17,17,17,17,17,17,16,17,17,17,16,17,16,17,17,17,17,17,17,17,17,17,17,16,17,16,17,17,17,17,17,17,16,17,17,17,17,17,16,17,17,17,16,17,17,17,17,16,17,17,17,16,17,17,17,17,17,17,17,17,16,17,17,17,17,17,17,17,17,17,17,17,17,16,16,17,16,17,17,17,16,18,17,17,17,16,18],"number_of_frames":120,"aperture_center_x":1280,"aperture_center_y":720,"fixation_cross":true,"fixation_cross_width":15,"fixation_cross_height":15,"fixation_cross_color":"#111","fixation_cross_thickness":1,"border":true,"border_thickness":2,"border_color":"transparent","canvas_width":2560,"canvas_height":1440,"trial_type":"rdk","trial_index":31,"plugin_version":"2.0.0","time_elapsed":62029,"phase":"practice","target_direction":303,"distractor_direction":79},{"rt":2164,"stimulus":"\n        <div class=\"response-container\">\n          <div class=\"response-instruction\">\n            <p>rotate the bar by using the left and right arrow keys.</p>\n            <p>when you are determined, press the Enter key.</p>\n          </div>\n          <div class=\"response-circle\">\n            <div class=\"response-fixation\"></div>\n            <div id=\"bar\" class=\"rotating-bar\"></div>\n          </div>\n        </div>\n      ","response":"Enter","trial_type":"html-keyboard-response","trial_index":32,"plugin_version":"2.1.0","time_elapsed":64194,"random_initial_angle":81,"response_angle_css":-15,"response_angle_rdk":105,"angular_error_target":162,"angular_error_distractor":26,"target_direction":303,"target_group":"white","reward_points":0},{"rt":null,"stimulus":"\n          <p style=\"color: #FF3333;\">Your reward: 0 points</p>\n        ","response":null,"trial_type":"html-keyboard-response","trial_index":33,"plugin_version":"2.1.0","time_elapsed":66196},{"rt":null,"stimulus":"<div class=\"fixation\" style=\"font-size: 60px;\">+</div>","response":null,"trial_type":"html-keyboard-response","trial_index":34,"plugin_version":"2.1.0","time_elapsed":67199},{"target_group":"white","target_index":0,"condition_label":"practice","rt":-1,"response":"","correct":false,"choices":"ALL_KEYS","correct_choice":["a"],"trial_duration":2000,"flip_timestamps":[],"response_ends_trial":false,"number_of_apertures":2,"number_of_dots":[100,60],"number_of_sets":1,"coherent_direction":[63,284],"coherence":1,"opposite_coherence":0,"dot_radius":2,"dot_side_length":1,"dot_life":-1,"move_distance":1,"aperture_width":300,"aperture_height":300,"dot_color":["white","black"],"dot_shape":"circle","background_color":"#AAA","RDK_type":3,"aperture_type":2,"reinsert_type":2,"frame_rate":16.816666666666666,"frame_rate_array":[13,17,17,17,16,17,17,17,17,17,16,17,17,17,17,16,17,17,17,17,17,17,16,17,17,17,17,17,17,17,16,17,17,16,18,17,16,17,17,17,16,17,17,16,17,17,17,16,17,17,17,17,17,17,17,17,16,17,17,17,17,17,17,17,16,17,17,16,17,17,17,17,16,17,17,17,16,18,17,17,17,17,16,17,17,17,17,17,17,17,17,17,17,17,17,17,17,16,17,17,17,17,17,17,17,17,17,16,17,17,17,17,17,16,17,17,17,16,17,17],"number_of_frames":120,"aperture_center_x":1280,"aperture_center_y":720,"fixation_cross":true,"fixation_cross_width":15,"fixation_cross_height":15,"fixation_cross_color":"#111","fixation_cross_thickness":1,"border":true,"border_thickness":2,"border_color":"transparent","canvas_width":2560,"canvas_height":1440,"trial_type":"rdk","trial_index":35,"plugin_version":"2.0.0","time_elapsed":69202,"phase":"practice","target_direction":63,"distractor_direction":284},{"rt":1335,"stimulus":"\n        <div class=\"response-container\">\n          <div class=\"response-instruction\">\n            <p>rotate the bar by using the left and right arrow keys.</p>\n            <p>when you are determined, press the Enter key.</p>\n          </div>\n          <div class=\"response-circle\">\n            <div class=\"response-fixation\"></div>\n            <div id=\"bar\" class=\"rotating-bar\"></div>\n          </div>\n        </div>\n      ","response":"Enter","trial_type":"html-keyboard-response","trial_index":36,"plugin_version":"2.1.0","time_elapsed":70538,"random_initial_angle":51,"response_angle_css":18,"response_angle_rdk":72,"angular_error_target":9,"angular_error_distractor":148,"target_direction":63,"target_group":"white","reward_points":8},{"rt":null,"stimulus":"\n          <p style=\"color: #00FF00;\">Your reward: 8 points</p>\n        ","response":null,"trial_type":"html-keyboard-response","trial_index":37,"plugin_version":"2.1.0","time_elapsed":72541},{"rt":null,"stimulus":"<div class=\"fixation\" style=\"font-size: 60px;\">+</div>","response":null,"trial_type":"html-keyboard-response","trial_index":38,"plugin_version":"2.1.0","time_elapsed":73544},{"target_group":"black","target_index":1,"condition_label":"practice","rt":-1,"response":"","correct":false,"choices":"ALL_KEYS","correct_choice":["a"],"trial_duration":2000,"flip_timestamps":[],"response_ends_trial":false,"number_of_apertures":2,"number_of_dots":[83,100],"number_of_sets":1,"coherent_direction":[316,196],"coherence":1,"opposite_coherence":0,"dot_radius":2,"dot_side_length":1,"dot_life":-1,"move_distance":1,"aperture_width":300,"aperture_height":300,"dot_color":["white","black"],"dot_shape":"circle","background_color":"#AAA","RDK_type":3,"aperture_type":2,"reinsert_type":2,"frame_rate":16.9,"frame_rate_array":[17,17,17,17,16,18,17,17,17,17,17,17,17,17,17,16,18,16,17,18,17,17,17,17,17,17,17,17,17,17,17,17,17,17,17,16,17,17,16,17,17,17,17,17,17,17,17,17,17,17,17,17,16,17,17,17,17,17,17,17,17,16,17,16,17,16,17,17,17,17,17,17,17,17,17,16,17,17,17,17,17,17,17,17,17,17,16,17,17,17,17,16,16,17,17,17,17,17,17,17,17,17,17,17,17,17,17,17,17,17,16,17,17,16,17,17,17,17,17,17],"number_of_frames":120,"aperture_center_x":1280,"aperture_center_y":720,"fixation_cross":true,"fixation_cross_width":15,"fixation_cross_height":15,"fixation_cross_color":"#111","fixation_cross_thickness":1,"border":true,"border_thickness":2,"border_color":"transparent","canvas_width":2560,"canvas_height":1440,"trial_type":"rdk","trial_index":39,"plugin_version":"2.0.0","time_elapsed":75549,"phase":"practice","target_direction":196,"distractor_direction":316},{"rt":3234,"stimulus":"\n        <div class=\"response-container\">\n          <div class=\"response-instruction\">\n            <p>rotate the bar by using the left and right arrow keys.</p>\n            <p>when you are determined, press the Enter key.</p>\n          </div>\n          <div class=\"response-circle\">\n            <div class=\"response-fixation\"></div>\n            <div id=\"bar\" class=\"rotating-bar\"></div>\n          </div>\n        </div>\n      ","response":"Enter","trial_type":"html-keyboard-response","trial_index":40,"plugin_version":"2.1.0","time_elapsed":78784,"random_initial_angle":116,"response_angle_css":-78,"response_angle_rdk":168,"angular_error_target":-28,"angular_error_distractor":-148,"target_direction":196,"target_group":"black","reward_points":4},{"rt":null,"stimulus":"\n          <p style=\"color: #00FF00;\">Your reward: 4 points</p>\n        ","response":null,"trial_type":"html-keyboard-response","trial_index":41,"plugin_version":"2.1.0","time_elapsed":80787},{"rt":null,"stimulus":"<div class=\"fixation\" style=\"font-size: 60px;\">+</div>","response":null,"trial_type":"html-keyboard-response","trial_index":42,"plugin_version":"2.1.0","time_elapsed":81788},{"target_group":"black","target_index":1,"condition_label":"practice","rt":-1,"response":"","correct":false,"choices":"ALL_KEYS","correct_choice":["a"],"trial_duration":2000,"flip_timestamps":[],"response_ends_trial":false,"number_of_apertures":2,"number_of_dots":[95,100],"number_of_sets":1,"coherent_direction":[102,203],"coherence":1,"opposite_coherence":0,"dot_radius":2,"dot_side_length":1,"dot_life":-1,"move_distance":1,"aperture_width":300,"aperture_height":300,"dot_color":["white","black"],"dot_shape":"circle","background_color":"#AAA","RDK_type":3,"aperture_type":2,"reinsert_type":2,"frame_rate":16.833333333333332,"frame_rate_array":[8,17,17,17,17,17,17,17,17,17,17,17,17,17,17,16,17,17,17,17,17,17,16,16,18,17,17,17,17,17,16,17,17,17,17,16,17,17,16,17,17,17,17,17,17,17,17,16,17,17,16,17,17,17,17,17,16,17,18,17,16,17,17,17,17,17,16,17,16,18,17,17,17,17,17,16,18,17,17,17,17,17,17,17,17,17,17,17,17,17,17,17,17,17,16,17,16,17,16,18,17,17,17,17,17,17,17,17,17,17,17,17,17,17,17,17,17,17,17,17],"number_of_frames":120,"aperture_center_x":1280,"aperture_center_y":720,"fixation_cross":true,"fixation_cross_width":15,"fixation_cross_height":15,"fixation_cross_color":"#111","fixation_cross_thickness":1,"border":true,"border_thickness":2,"border_color":"transparent","canvas_width":2560,"canvas_height":1440,"trial_type":"rdk","trial_index":43,"plugin_version":"2.0.0","time_elapsed":83792,"phase":"practice","target_direction":203,"distractor_direction":102},{"rt":2074,"stimulus":"\n        <div class=\"response-container\">\n          <div class=\"response-instruction\">\n            <p>rotate the bar by using the left and right arrow keys.</p>\n            <p>when you are determined, press the Enter key.</p>\n          </div>\n          <div class=\"response-circle\">\n            <div class=\"response-fixation\"></div>\n            <div id=\"bar\" class=\"rotating-bar\"></div>\n          </div>\n        </div>\n      ","response":"Enter","trial_type":"html-keyboard-response","trial_index":44,"plugin_version":"2.1.0","time_elapsed":85867,"random_initial_angle":252,"response_angle_css":351,"response_angle_rdk":99,"angular_error_target":-104,"angular_error_distractor":-3,"target_direction":203,"target_group":"black","reward_points":0},{"rt":null,"stimulus":"\n          <p style=\"color: #FF3333;\">Your reward: 0 points</p>\n        ","response":null,"trial_type":"html-keyboard-response","trial_index":45,"plugin_version":"2.1.0","time_elapsed":87869},{"rt":null,"stimulus":"<div class=\"fixation\" style=\"font-size: 60px;\">+</div>","response":null,"trial_type":"html-keyboard-response","trial_index":46,"plugin_version":"2.1.0","time_elapsed":88872},{"target_group":"black","target_index":1,"condition_label":"practice","rt":-1,"response":"","correct":false,"choices":"ALL_KEYS","correct_choice":["a"],"trial_duration":2000,"flip_timestamps":[],"response_ends_trial":false,"number_of_apertures":2,"number_of_dots":[56,100],"number_of_sets":1,"coherent_direction":[261,145],"coherence":1,"opposite_coherence":0,"dot_radius":2,"dot_side_length":1,"dot_life":-1,"move_distance":1,"aperture_width":300,"aperture_height":300,"dot_color":["white","black"],"dot_shape":"circle","background_color":"#AAA","RDK_type":3,"aperture_type":2,"reinsert_type":2,"frame_rate":16.915966386554622,"frame_rate_array":[23,17,17,16,18,16,17,17,16,17,17,17,17,17,17,17,16,18,16,18,17,17,16,17,17,17,17,17,17,16,17,16,17,16,18,17,16,18,16,18,17,16,18,16,16,17,17,17,17,17,17,16,16,17,18,17,17,17,16,17,17,17,16,17,16,17,16,17,17,16,18,16,17,16,18,17,17,17,17,17,16,17,17,18,17,16,17,17,17,17,17,16,18,17,17,16,17,18,16,18,17,17,17,17,17,17,17,16,17,18,17,17,17,17,16,17,16,18,16],"number_of_frames":119,"aperture_center_x":1280,"aperture_center_y":720,"fixation_cross":true,"fixation_cross_width":15,"fixation_cross_height":15,"fixation_cross_color":"#111","fixation_cross_thickness":1,"border":true,"border_thickness":2,"border_color":"transparent","canvas_width":2560,"canvas_height":1440,"trial_type":"rdk","trial_index":47,"plugin_version":"2.0.0","time_elapsed":90875,"phase":"practice","target_direction":145,"distractor_direction":261},{"rt":3017,"stimulus":"\n        <div class=\"response-container\">\n          <div class=\"response-instruction\">\n            <p>rotate the bar by using the left and right arrow keys.</p>\n            <p>when you are determined, press the Enter key.</p>\n          </div>\n          <div class=\"response-circle\">\n            <div class=\"response-fixation\"></div>\n            <div id=\"bar\" class=\"rotating-bar\"></div>\n          </div>\n        </div>\n      ","response":"Enter","trial_type":"html-keyboard-response","trial_index":48,"plugin_version":"2.1.0","time_elapsed":93894,"random_initial_angle":94,"response_angle_css":-33,"response_angle_rdk":123,"angular_error_target":-22,"angular_error_distractor":-138,"target_direction":145,"target_group":"black","reward_points":5},{"rt":null,"stimulus":"\n          <p style=\"color: #00FF00;\">Your reward: 5 points</p>\n        ","response":null,"trial_type":"html-keyboard-response","trial_index":49,"plugin_version":"2.1.0","time_elapsed":95896},{"rt":null,"stimulus":"<div class=\"fixation\" style=\"font-size: 60px;\">+</div>","response":null,"trial_type":"html-keyboard-response","trial_index":50,"plugin_version":"2.1.0","time_elapsed":96898},{"target_group":"black","target_index":1,"condition_label":"practice","rt":-1,"response":"","correct":false,"choices":"ALL_KEYS","correct_choice":["a"],"trial_duration":2000,"flip_timestamps":[],"response_ends_trial":false,"number_of_apertures":2,"number_of_dots":[96,100],"number_of_sets":1,"coherent_direction":[341,172],"coherence":1,"opposite_coherence":0,"dot_radius":2,"dot_side_length":1,"dot_life":-1,"move_distance":1,"aperture_width":300,"aperture_height":300,"dot_color":["white","black"],"dot_shape":"circle","background_color":"#AAA","RDK_type":3,"aperture_type":2,"reinsert_type":2,"frame_rate":16.866666666666667,"frame_rate_array":[13,17,16,18,17,17,17,17,16,17,17,16,17,17,17,17,17,17,17,17,16,17,17,17,17,17,17,17,16,17,17,16,18,16,17,17,17,17,17,16,18,17,16,16,18,17,17,17,17,17,17,16,18,17,17,17,17,17,17,16,18,16,18,17,17,17,17,17,17,17,17,17,17,16,18,17,17,17,16,17,17,17,17,17,17,16,17,17,17,17,17,17,16,18,17,17,16,18,17,17,16,16,17,16,18,17,16,18,16,18,17,17,15,18,17,16,18,17,16,17],"number_of_frames":120,"aperture_center_x":1280,"aperture_center_y":720,"fixation_cross":true,"fixation_cross_width":15,"fixation_cross_height":15,"fixation_cross_color":"#111","fixation_cross_thickness":1,"border":true,"border_thickness":2,"border_color":"transparent","canvas_width":2560,"canvas_height":1440,"trial_type":"rdk","trial_index":51,"plugin_version":"2.0.0","time_elapsed":98902,"phase":"practice","target_direction":172,"distractor_direction":341},{"rt":2160,"stimulus":"\n        <div class=\"response-container\">\n          <div class=\"response-instruction\">\n            <p>rotate the bar by using the left and right arrow keys.</p>\n            <p>when you are determined, press the Enter key.</p>\n          </div>\n          <div class=\"response-circle\">\n            <div class=\"response-fixation\"></div>\n            <div id=\"bar\" class=\"rotating-bar\"></div>\n          </div>\n        </div>\n      ","response":"Enter","trial_type":"html-keyboard-response","trial_index":52,"plugin_version":"2.1.0","time_elapsed":101063,"random_initial_angle":356,"response_angle_css":276,"response_angle_rdk":174,"angular_error_target":2,"angular_error_distractor":-167,"target_direction":172,"target_group":"black","reward_points":9},{"rt":null,"stimulus":"\n          <p style=\"color: #00FF00;\">Your reward: 9 points</p>\n        ","response":null,"trial_type":"html-keyboard-response","trial_index":53,"plugin_version":"2.1.0","time_elapsed":103066},{"rt":null,"stimulus":"<div class=\"fixation\" style=\"font-size: 60px;\">+</div>","response":null,"trial_type":"html-keyboard-response","trial_index":54,"plugin_version":"2.1.0","time_elapsed":104069},{"target_group":"white","target_index":0,"condition_label":"practice","rt":-1,"response":"","correct":false,"choices":"ALL_KEYS","correct_choice":["a"],"trial_duration":2000,"flip_timestamps":[],"response_ends_trial":false,"number_of_apertures":2,"number_of_dots":[100,61],"number_of_sets":1,"coherent_direction":[341,95],"coherence":1,"opposite_coherence":0,"dot_radius":2,"dot_side_length":1,"dot_life":-1,"move_distance":1,"aperture_width":300,"aperture_height":300,"dot_color":["white","black"],"dot_shape":"circle","background_color":"#AAA","RDK_type":3,"aperture_type":2,"reinsert_type":2,"frame_rate":16.816666666666666,"frame_rate_array":[9,17,16,17,17,17,17,16,18,17,16,18,17,17,17,17,17,17,17,17,17,16,17,17,17,17,17,17,17,17,16,17,17,16,17,17,17,17,17,16,17,17,17,16,17,17,17,17,17,17,17,17,17,17,17,16,17,16,18,17,17,17,17,16,18,17,17,17,17,16,17,17,17,17,17,16,18,17,17,17,17,17,17,16,17,17,16,18,17,17,17,16,17,16,17,17,17,17,17,17,16,17,17,17,17,16,18,17,17,17,17,17,17,16,17,17,17,17,16,17],"number_of_frames":120,"aperture_center_x":1280,"aperture_center_y":720,"fixation_cross":true,"fixation_cross_width":15,"fixation_cross_height":15,"fixation_cross_color":"#111","fixation_cross_thickness":1,"border":true,"border_thickness":2,"border_color":"transparent","canvas_width":2560,"canvas_height":1440,"trial_type":"rdk","trial_index":55,"plugin_version":"2.0.0","time_elapsed":106073,"phase":"practice","target_direction":341,"distractor_direction":95},{"rt":2412,"stimulus":"\n        <div class=\"response-container\">\n          <div class=\"response-instruction\">\n            <p>rotate the bar by using the left and right arrow keys.</p>\n            <p>when you are determined, press the Enter key.</p>\n          </div>\n          <div class=\"response-circle\">\n            <div class=\"response-fixation\"></div>\n            <div id=\"bar\" class=\"rotating-bar\"></div>\n          </div>\n        </div>\n      ","response":"Enter","trial_type":"html-keyboard-response","trial_index":56,"plugin_version":"2.1.0","time_elapsed":108486,"random_initial_angle":337,"response_angle_css":456,"response_angle_rdk":354,"angular_error_target":13,"angular_error_distractor":-101,"target_direction":341,"target_group":"white","reward_points":7},{"rt":null,"stimulus":"\n          <p style=\"color: #00FF00;\">Your reward: 7 points</p>\n        ","response":null,"trial_type":"html-keyboard-response","trial_index":57,"plugin_version":"2.1.0","time_elapsed":110488},{"rt":null,"stimulus":"<div class=\"fixation\" style=\"font-size: 60px;\">+</div>","response":null,"trial_type":"html-keyboard-response","trial_index":58,"plugin_version":"2.1.0","time_elapsed":111490},{"target_group":"white","target_index":0,"condition_label":"practice","rt":-1,"response":"","correct":false,"choices":"ALL_KEYS","correct_choice":["a"],"trial_duration":2000,"flip_timestamps":[],"response_ends_trial":false,"number_of_apertures":2,"number_of_dots":[100,73],"number_of_sets":1,"coherent_direction":[328,61],"coherence":1,"opposite_coherence":0,"dot_radius":2,"dot_side_length":1,"dot_life":-1,"move_distance":1,"aperture_width":300,"aperture_height":300,"dot_color":["white","black"],"dot_shape":"circle","background_color":"#AAA","RDK_type":3,"aperture_type":2,"reinsert_type":2,"frame_rate":16.725,"frame_rate_array":[4,17,17,17,17,17,17,17,16,18,17,17,16,17,17,17,17,17,17,16,17,17,16,17,17,17,17,17,17,17,16,17,17,17,17,16,17,17,16,18,16,16,17,17,16,18,16,17,17,17,16,17,16,17,18,17,16,18,17,17,16,17,17,17,16,17,17,17,17,16,17,17,16,17,16,17,17,17,16,17,17,17,16,17,17,17,17,17,17,17,17,17,16,17,17,17,17,17,16,17,17,17,17,17,16,17,17,17,17,17,16,17,17,17,17,17,17,17,17,17],"number_of_frames":120,"aperture_center_x":1280,"aperture_center_y":720,"fixation_cross":true,"fixation_cross_width":15,"fixation_cross_height":15,"fixation_cross_color":"#111","fixation_cross_thickness":1,"border":true,"border_thickness":2,"border_color":"transparent","canvas_width":2560,"canvas_height":1440,"trial_type":"rdk","trial_index":59,"plugin_version":"2.0.0","time_elapsed":113495,"phase":"practice","target_direction":328,"distractor_direction":61},{"rt":2026,"stimulus":"\n        <div class=\"response-container\">\n          <div class=\"response-instruction\">\n            <p>rotate the bar by using the left and right arrow keys.</p>\n            <p>when you are determined, press the Enter key.</p>\n          </div>\n          <div class=\"response-circle\">\n            <div class=\"response-fixation\"></div>\n            <div id=\"bar\" class=\"rotating-bar\"></div>\n          </div>\n        </div>\n      ","response":"Enter","trial_type":"html-keyboard-response","trial_index":60,"plugin_version":"2.1.0","time_elapsed":115522,"random_initial_angle":144,"response_angle_css":33,"response_angle_rdk":57,"angular_error_target":89,"angular_error_distractor":-4,"target_direction":328,"target_group":"white","reward_points":0},{"rt":null,"stimulus":"\n          <p style=\"color: #FF3333;\">Your reward: 0 points</p>\n        ","response":null,"trial_type":"html-keyboard-response","trial_index":61,"plugin_version":"2.1.0","time_elapsed":117524},{"rt":null,"stimulus":"<div class=\"fixation\" style=\"font-size: 60px;\">+</div>","response":null,"trial_type":"html-keyboard-response","trial_index":62,"plugin_version":"2.1.0","time_elapsed":118525},{"target_group":"black","target_index":1,"condition_label":"practice","rt":-1,"response":"","correct":false,"choices":"ALL_KEYS","correct_choice":["a"],"trial_duration":2000,"flip_timestamps":[],"response_ends_trial":false,"number_of_apertures":2,"number_of_dots":[58,100],"number_of_sets":1,"coherent_direction":[224,111],"coherence":1,"opposite_coherence":0,"dot_radius":2,"dot_side_length":1,"dot_life":-1,"move_distance":1,"aperture_width":300,"aperture_height":300,"dot_color":["white","black"],"dot_shape":"circle","background_color":"#AAA","RDK_type":3,"aperture_type":2,"reinsert_type":2,"frame_rate":16.92436974789916,"frame_rate_array":[19,17,16,17,17,16,17,17,17,17,17,17,17,17,17,17,17,16,17,17,17,17,17,16,16,17,17,17,16,17,17,17,17,17,17,17,16,18,17,17,17,17,17,16,17,17,17,17,17,17,17,17,17,17,17,17,17,16,17,16,17,17,17,17,17,16,18,17,17,17,17,17,17,17,17,17,17,17,17,17,17,17,17,17,17,17,17,16,17,17,17,17,17,17,17,17,17,17,17,17,17,17,17,16,18,17,17,16,17,17,17,17,17,17,17,17,17,17,17],"number_of_frames":119,"aperture_center_x":1280,"aperture_center_y":720,"fixation_cross":true,"fixation_cross_width":15,"fixation_cross_height":15,"fixation_cross_color":"#111","fixation_cross_thickness":1,"border":true,"border_thickness":2,"border_color":"transparent","canvas_width":2560,"canvas_height":1440,"trial_type":"rdk","trial_index":63,"plugin_version":"2.0.0","time_elapsed":120530,"phase":"practice","target_direction":111,"distractor_direction":224},{"rt":3088,"stimulus":"\n        <div class=\"response-container\">\n          <div class=\"response-instruction\">\n            <p>rotate the bar by using the left and right arrow keys.</p>\n            <p>when you are determined, press the Enter key.</p>\n          </div>\n          <div class=\"response-circle\">\n            <div class=\"response-fixation\"></div>\n            <div id=\"bar\" class=\"rotating-bar\"></div>\n          </div>\n        </div>\n      ","response":"Enter","trial_type":"html-keyboard-response","trial_index":64,"plugin_version":"2.1.0","time_elapsed":123619,"random_initial_angle":171,"response_angle_css":-17,"response_angle_rdk":107,"angular_error_target":-4,"angular_error_distractor":-117,"target_direction":111,"target_group":"black","reward_points":9},{"rt":null,"stimulus":"\n          <p style=\"color: #00FF00;\">Your reward: 9 points</p>\n        ","response":null,"trial_type":"html-keyboard-response","trial_index":65,"plugin_version":"2.1.0","time_elapsed":125621},{"rt":1122,"stimulus":"\n        <div class=\"instructions-container\">\n          <h2>End of Practice</h2>\n          <p>You have completed the practice trials.</p>\n          <p>Press <strong>Enter</strong> key to begin the main experiment.</p>\n        </div>\n      ","response":"Enter","trial_type":"html-keyboard-response","trial_index":66,"plugin_version":"2.1.0","time_elapsed":126744},{"rt":null,"stimulus":"<div class=\"fixation\" style=\"font-size: 60px;\">+</div>","response":null,"trial_type":"html-keyboard-response","trial_index":67,"plugin_version":"2.1.0","time_elapsed":127748},{"phase":"learning-awareness","target_group":"black","condition_label":"B_H_vs_W_L_rep16","target_direction":328,"distractor_direction":66,"session_rotation":214,"rt":-1,"response":"","correct":false,"choices":"ALL_KEYS","correct_choice":["a"],"trial_duration":2000,"flip_timestamps":[],"response_ends_trial":false,"number_of_apertures":200,"number_of_dots":[1,1,1,1,1,1,1,1,1,1,1,1,1,1,1,1,1,1,1,1,1,1,1,1,1,1,1,1,1,1,1,1,1,1,1,1,1,1,1,1,1,1,1,1,1,1,1,1,1,1,1,1,1,1,1,1,1,1,1,1,1,1,1,1,1,1,1,1,1,1,1,1,1,1,1,1,1,1,1,1,1,1,1,1,1,1,1,1,1,1,1,1,1,1,1,1,1,1,1,1,1,1,1,1,1,1,1,1,1,1,1,1,1,1,1,1,1,1,1,1,1,1,1,1,1,1,1,1,1,1,1,1,1,1,1,1,1,1,1,1,1,1,1,1,1,1,1,1,1,1,1,1,1,1,1,1,1,1,1,1,1,1,1,1,1,1,1,1,1,1,1,1,1,1,1,1,1,1,1,1,1,1,1,1,1,1,1,1,1,1,1,1,1,1,1,1,1,1,1,1],"number_of_sets":1,"coherent_direction":[66,328,66,66,66,328,328,66,328,328,66,328,66,66,328,66,66,328,66,328,66,328,66,328,328,328,66,328,66,328,66,328,66,328,66,328,328,66,66,66,66,66,66,328,328,66,66,328,66,328,66,328,66,328,328,66,328,328,66,328,66,66,66,66,328,66,328,328,66,328,328,328,66,66,328,328,66,66,66,328,66,66,328,328,66,66,328,66,328,328,66,328,328,328,328,328,328,328,328,66,328,66,66,328,66,328,66,328,66,66,328,66,328,66,328,328,66,66,328,66,328,328,328,328,328,328,328,66,328,66,66,66,66,66,66,66,66,328,328,66,328,328,66,66,328,66,66,328,66,66,66,66,328,328,66,328,328,328,66,66,66,328,328,66,328,66,328,328,66,66,328,328,328,328,328,328,66,66,328,328,66,66,66,66,328,66,328,66,328,328,328,66,328,66,66,66,66,66,328,328],"coherence":1,"opposite_coherence":0,"dot_radius":2,"dot_side_length":1,"dot_life":-1,"move_distance":1,"aperture_width":300,"aperture_height":300,"dot_color":["white","black","white","white","white","black","black","white","black","black","white","black","white","white","black","white","white","black","white","black","white","black","white","black","black","black","white","black","white","black","white","black","white","black","white","black","black","white","white","white","white","white","white","black","black","white","white","black","white","black","white","black","white","black","black","white","black","black","white","black","white","white","white","white","black","white","black","black","white","black","black","black","white","white","black","black","white","white","white","black","white","white","black","black","white","white","black","white","black","black","white","black","black","black","black","black","black","black","black","white","black","white","white","black","white","black","white","black","white","white","black","white","black","white","black","black","white","white","black","white","black","black","black","black","black","black","black","white","black","white","white","white","white","white","white","white","white","black","black","white","black","black","white","white","black","white","white","black","white","white","white","white","black","black","white","black","black","black","white","white","white","black","black","white","black","white","black","black","white","white","black","black","black","black","black","black","white","white","black","black","white","white","white","white","black","white","black","white","black","black","black","white","black","white","white","white","white","white","black","black"],"dot_shape":"circle","background_color":"#AAA","RDK_type":3,"aperture_type":2,"reinsert_type":2,"frame_rate":16.725,"frame_rate_array":[12,16,17,17,16,18,17,17,17,17,16,17,16,16,17,17,16,18,16,17,16,17,17,16,17,16,17,17,16,17,17,17,17,16,17,16,17,17,17,17,16,17,17,18,16,16,17,17,17,17,17,17,17,17,17,17,17,17,17,17,17,16,16,17,17,16,17,17,17,16,15,17,18,17,16,17,17,16,17,16,17,16,17,17,17,17,17,17,17,17,17,17,16,18,17,17,16,18,16,17,17,16,17,17,16,18,16,17,17,16,17,17,17,16,17,17,17,17,17,16],"number_of_frames":120,"aperture_center_x":1280,"aperture_center_y":720,"fixation_cross":true,"fixation_cross_width":15,"fixation_cross_height":15,"fixation_cross_color":"#111","fixation_cross_thickness":1,"border":true,"border_thickness":2,"border_color":"transparent","canvas_width":2560,"canvas_height":1440,"trial_type":"rdk","trial_index":68,"plugin_version":"2.0.0","time_elapsed":129753},{"rt":1369,"stimulus":"\n        <div class=\"response-container\">\n          <div class=\"response-instruction\">\n            <p>rotate the bar by using the left and right arrow keys.</p>\n            <p>when you are determined, press the Enter key.</p>\n          </div>\n          <div class=\"response-circle\">\n            <div class=\"response-fixation\"></div>\n            <div id=\"bar\" class=\"rotating-bar\"></div>\n          </div>\n        </div>\n      ","response":"Enter","trial_type":"html-keyboard-response","trial_index":69,"plugin_version":"2.1.0","time_elapsed":131123,"random_initial_angle":49,"response_angle_css":17,"response_angle_rdk":73,"angular_error_target":105,"angular_error_distractor":7,"target_direction":328,"target_group":"black","reward_points":0},{"rt":null,"stimulus":"\n          <p style=\"color: #FF3333;\">Your reward: 0 points</p>\n        ","response":null,"trial_type":"html-keyboard-response","trial_index":70,"plugin_version":"2.1.0","time_elapsed":133126},{"rt":null,"stimulus":"<div class=\"fixation\" style=\"font-size: 60px;\">+</div>","response":null,"trial_type":"html-keyboard-response","trial_index":71,"plugin_version":"2.1.0","time_elapsed":134128},{"phase":"learning-awareness","target_group":"white","condition_label":"W_H_vs_B_L_rep9","target_direction":231,"distractor_direction":124,"session_rotation":214,"rt":-1,"response":"","correct":false,"choices":"ALL_KEYS","correct_choice":["a"],"trial_duration":2000,"flip_timestamps":[],"response_ends_trial":false,"number_of_apertures":200,"number_of_dots":[1,1,1,1,1,1,1,1,1,1,1,1,1,1,1,1,1,1,1,1,1,1,1,1,1,1,1,1,1,1,1,1,1,1,1,1,1,1,1,1,1,1,1,1,1,1,1,1,1,1,1,1,1,1,1,1,1,1,1,1,1,1,1,1,1,1,1,1,1,1,1,1,1,1,1,1,1,1,1,1,1,1,1,1,1,1,1,1,1,1,1,1,1,1,1,1,1,1,1,1,1,1,1,1,1,1,1,1,1,1,1,1,1,1,1,1,1,1,1,1,1,1,1,1,1,1,1,1,1,1,1,1,1,1,1,1,1,1,1,1,1,1,1,1,1,1,1,1,1,1,1,1,1,1,1,1,1,1,1,1,1,1,1,1,1,1,1,1,1,1,1,1,1,1,1,1,1,1,1,1,1,1,1,1,1,1,1,1,1,1,1,1,1,1,1,1,1,1,1,1],"number_of_sets":1,"coherent_direction":[124,124,231,124,124,231,124,231,124,231,231,124,124,124,231,231,231,124,124,231,124,124,231,124,124,124,124,124,124,124,124,231,231,124,231,124,231,124,124,124,231,231,231,231,231,124,124,231,231,124,124,124,124,231,124,124,124,231,231,124,124,231,124,231,231,231,124,231,124,231,231,231,124,231,231,124,124,231,231,231,231,124,231,231,231,124,231,231,124,231,231,124,124,231,124,124,124,231,231,231,124,124,124,124,124,124,124,231,231,124,231,231,124,231,124,231,231,124,231,124,124,231,231,231,124,124,124,231,231,231,124,124,124,231,124,231,124,124,124,124,231,231,231,124,231,231,124,231,231,124,231,231,231,231,231,124,231,124,231,231,124,124,231,231,124,124,231,124,231,124,231,231,124,124,124,231,124,231,231,231,231,124,231,124,231,231,124,124,231,231,124,124,124,124,124,231,231,124,231,231],"coherence":1,"opposite_coherence":0,"dot_radius":2,"dot_side_length":1,"dot_life":-1,"move_distance":1,"aperture_width":300,"aperture_height":300,"dot_color":["black","black","white","black","black","white","black","white","black","white","white","black","black","black","white","white","white","black","black","white","black","black","white","black","black","black","black","black","black","black","black","white","white","black","white","black","white","black","black","black","white","white","white","white","white","black","black","white","white","black","black","black","black","white","black","black","black","white","white","black","black","white","black","white","white","white","black","white","black","white","white","white","black","white","white","black","black","white","white","white","white","black","white","white","white","black","white","white","black","white","white","black","black","white","black","black","black","white","white","white","black","black","black","black","black","black","black","white","white","black","white","white","black","white","black","white","white","black","white","black","black","white","white","white","black","black","black","white","white","white","black","black","black","white","black","white","black","black","black","black","white","white","white","black","white","white","black","white","white","black","white","white","white","white","white","black","white","black","white","white","black","black","white","white","black","black","white","black","white","black","white","white","black","black","black","white","black","white","white","white","white","black","white","black","white","white","black","black","white","white","black","black","black","black","black","white","white","black","white","white"],"dot_shape":"circle","background_color":"#AAA","RDK_type":3,"aperture_type":2,"reinsert_type":2,"frame_rate":16.808333333333334,"frame_rate_array":[15,18,16,16,17,17,18,17,17,17,16,17,17,17,17,16,17,17,17,16,17,17,17,16,17,16,16,18,16,17,17,17,17,17,16,17,17,16,16,18,16,18,17,17,17,17,17,16,17,16,16,16,17,18,15,17,17,18,17,15,17,17,17,18,16,17,17,17,17,16,17,17,17,17,17,17,17,17,17,17,17,17,17,17,17,17,16,17,17,17,16,17,17,17,17,17,17,16,17,17,17,17,17,17,17,16,17,17,16,17,17,16,17,17,17,17,17,16,18,17],"number_of_frames":120,"aperture_center_x":1280,"aperture_center_y":720,"fixation_cross":true,"fixation_cross_width":15,"fixation_cross_height":15,"fixation_cross_color":"#111","fixation_cross_thickness":1,"border":true,"border_thickness":2,"border_color":"transparent","canvas_width":2560,"canvas_height":1440,"trial_type":"rdk","trial_index":72,"plugin_version":"2.0.0","time_elapsed":136133},{"rt":1033,"stimulus":"\n        <div class=\"response-container\">\n          <div class=\"response-instruction\">\n            <p>rotate the bar by using the left and right arrow keys.</p>\n            <p>when you are determined, press the Enter key.</p>\n          </div>\n          <div class=\"response-circle\">\n            <div class=\"response-fixation\"></div>\n            <div id=\"bar\" class=\"rotating-bar\"></div>\n          </div>\n        </div>\n      ","response":"Enter","trial_type":"html-keyboard-response","trial_index":73,"plugin_version":"2.1.0","time_elapsed":137167,"random_initial_angle":1,"response_angle_css":-29,"response_angle_rdk":119,"angular_error_target":-112,"angular_error_distractor":-5,"target_direction":231,"target_group":"white","reward_points":0},{"rt":null,"stimulus":"\n          <p style=\"color: #FF3333;\">Your reward: 0 points</p>\n        ","response":null,"trial_type":"html-keyboard-response","trial_index":74,"plugin_version":"2.1.0","time_elapsed":139170},{"rt":null,"stimulus":"<div class=\"fixation\" style=\"font-size: 60px;\">+</div>","response":null,"trial_type":"html-keyboard-response","trial_index":75,"plugin_version":"2.1.0","time_elapsed":140172},{"phase":"learning-awareness","target_group":"white","condition_label":"W_H_vs_B_L_rep22","target_direction":225,"distractor_direction":132,"session_rotation":214,"rt":-1,"response":"","correct":false,"choices":"ALL_KEYS","correct_choice":["a"],"trial_duration":2000,"flip_timestamps":[],"response_ends_trial":false,"number_of_apertures":200,"number_of_dots":[1,1,1,1,1,1,1,1,1,1,1,1,1,1,1,1,1,1,1,1,1,1,1,1,1,1,1,1,1,1,1,1,1,1,1,1,1,1,1,1,1,1,1,1,1,1,1,1,1,1,1,1,1,1,1,1,1,1,1,1,1,1,1,1,1,1,1,1,1,1,1,1,1,1,1,1,1,1,1,1,1,1,1,1,1,1,1,1,1,1,1,1,1,1,1,1,1,1,1,1,1,1,1,1,1,1,1,1,1,1,1,1,1,1,1,1,1,1,1,1,1,1,1,1,1,1,1,1,1,1,1,1,1,1,1,1,1,1,1,1,1,1,1,1,1,1,1,1,1,1,1,1,1,1,1,1,1,1,1,1,1,1,1,1,1,1,1,1,1,1,1,1,1,1,1,1,1,1,1,1,1,1,1,1,1,1,1,1,1,1,1,1,1,1,1,1,1,1,1,1],"number_of_sets":1,"coherent_direction":[225,225,132,225,225,225,225,225,132,132,225,132,132,225,132,225,225,225,132,132,225,225,132,132,225,132,225,132,225,132,225,132,225,225,132,132,132,132,132,132,132,225,225,225,132,225,225,132,225,225,132,132,225,225,225,132,132,132,132,225,225,225,225,132,225,132,132,225,132,225,132,132,132,225,132,225,225,132,225,225,132,225,132,225,225,225,225,225,225,132,225,132,225,225,225,132,132,132,225,132,225,132,225,132,132,132,225,132,132,225,225,132,225,132,132,132,225,132,225,132,132,225,132,132,132,225,225,225,132,225,132,132,132,225,132,132,225,225,132,225,132,225,132,225,132,132,225,225,132,132,225,132,225,132,225,132,225,132,132,225,225,132,132,132,132,132,132,132,132,225,225,225,225,132,132,225,132,132,132,225,225,225,225,225,225,132,132,132,225,225,225,132,132,132,225,225,225,225,225,132],"coherence":1,"opposite_coherence":0,"dot_radius":2,"dot_side_length":1,"dot_life":-1,"move_distance":1,"aperture_width":300,"aperture_height":300,"dot_color":["white","white","black","white","white","white","white","white","black","black","white","black","black","white","black","white","white","white","black","black","white","white","black","black","white","black","white","black","white","black","white","black","white","white","black","black","black","black","black","black","black","white","white","white","black","white","white","black","white","white","black","black","white","white","white","black","black","black","black","white","white","white","white","black","white","black","black","white","black","white","black","black","black","white","black","white","white","black","white","white","black","white","black","white","white","white","white","white","white","black","white","black","white","white","white","black","black","black","white","black","white","black","white","black","black","black","white","black","black","white","white","black","white","black","black","black","white","black","white","black","black","white","black","black","black","white","white","white","black","white","black","black","black","white","black","black","white","white","black","white","black","white","black","white","black","black","white","white","black","black","white","black","white","black","white","black","white","black","black","white","white","black","black","black","black","black","black","black","black","white","white","white","white","black","black","white","black","black","black","white","white","white","white","white","white","black","black","black","white","white","white","black","black","black","white","white","white","white","white","black"],"dot_shape":"circle","background_color":"#AAA","RDK_type":3,"aperture_type":2,"reinsert_type":2,"frame_rate":16.725,"frame_rate_array":[6,16,17,17,17,17,18,16,17,17,17,16,16,16,18,17,17,16,17,17,17,16,17,17,16,16,18,16,17,17,17,17,16,17,17,17,17,16,17,17,17,17,16,17,17,17,17,16,17,16,18,17,17,17,17,17,16,17,17,17,17,17,17,17,17,17,17,16,17,17,17,17,17,17,17,16,17,16,17,17,17,17,17,17,17,16,17,17,17,17,17,17,16,17,16,17,17,16,17,17,16,16,17,16,17,17,17,17,17,17,17,17,17,17,17,17,17,17,17,17],"number_of_frames":120,"aperture_center_x":1280,"aperture_center_y":720,"fixation_cross":true,"fixation_cross_width":15,"fixation_cross_height":15,"fixation_cross_color":"#111","fixation_cross_thickness":1,"border":true,"border_thickness":2,"border_color":"transparent","canvas_width":2560,"canvas_height":1440,"trial_type":"rdk","trial_index":76,"plugin_version":"2.0.0","time_elapsed":142176},{"rt":2716,"stimulus":"\n        <div class=\"response-container\">\n          <div class=\"response-instruction\">\n            <p>rotate the bar by using the left and right arrow keys.</p>\n            <p>when you are determined, press the Enter key.</p>\n          </div>\n          <div class=\"response-circle\">\n            <div class=\"response-fixation\"></div>\n            <div id=\"bar\" class=\"rotating-bar\"></div>\n          </div>\n        </div>\n      ","response":"Enter","trial_type":"html-keyboard-response","trial_index":77,"plugin_version":"2.1.0","time_elapsed":144893,"random_initial_angle":112,"response_angle_css":-21,"response_angle_rdk":111,"angular_error_target":-114,"angular_error_distractor":-21,"target_direction":225,"target_group":"white","reward_points":0},{"rt":null,"stimulus":"\n          <p style=\"color: #FF3333;\">Your reward: 0 points</p>\n        ","response":null,"trial_type":"html-keyboard-response","trial_index":78,"plugin_version":"2.1.0","time_elapsed":146896},{"rt":null,"stimulus":"<div class=\"fixation\" style=\"font-size: 60px;\">+</div>","response":null,"trial_type":"html-keyboard-response","trial_index":79,"plugin_version":"2.1.0","time_elapsed":147898},{"phase":"learning-awareness","target_group":"black","condition_label":"B_H_vs_W_L_rep1","target_direction":334,"distractor_direction":64,"session_rotation":214,"rt":-1,"response":"","correct":false,"choices":"ALL_KEYS","correct_choice":["a"],"trial_duration":2000,"flip_timestamps":[],"response_ends_trial":false,"number_of_apertures":200,"number_of_dots":[1,1,1,1,1,1,1,1,1,1,1,1,1,1,1,1,1,1,1,1,1,1,1,1,1,1,1,1,1,1,1,1,1,1,1,1,1,1,1,1,1,1,1,1,1,1,1,1,1,1,1,1,1,1,1,1,1,1,1,1,1,1,1,1,1,1,1,1,1,1,1,1,1,1,1,1,1,1,1,1,1,1,1,1,1,1,1,1,1,1,1,1,1,1,1,1,1,1,1,1,1,1,1,1,1,1,1,1,1,1,1,1,1,1,1,1,1,1,1,1,1,1,1,1,1,1,1,1,1,1,1,1,1,1,1,1,1,1,1,1,1,1,1,1,1,1,1,1,1,1,1,1,1,1,1,1,1,1,1,1,1,1,1,1,1,1,1,1,1,1,1,1,1,1,1,1,1,1,1,1,1,1,1,1,1,1,1,1,1,1,1,1,1,1,1,1,1,1,1,1],"number_of_sets":1,"coherent_direction":[64,64,334,64,64,334,64,334,64,334,334,334,64,334,64,334,334,334,64,64,334,64,64,334,64,64,64,64,334,334,64,334,64,334,334,64,64,334,64,334,64,64,334,64,334,334,64,334,64,334,334,334,64,64,64,334,334,334,64,334,64,64,334,334,64,64,64,64,334,64,64,334,334,334,64,334,64,64,334,334,64,334,64,334,334,334,334,334,64,334,64,334,64,64,334,334,64,334,334,334,64,334,334,64,64,64,64,334,64,64,64,64,334,64,334,64,334,64,334,64,334,334,64,64,334,64,334,334,64,334,334,334,64,334,334,334,334,64,334,334,64,64,334,334,64,64,64,64,64,334,64,64,64,64,334,334,334,334,64,334,64,334,64,334,64,334,334,334,334,64,334,334,334,64,334,64,334,64,64,64,334,64,334,64,64,64,64,64,64,64,64,334,334,334,64,334,64,64,334,334],"coherence":1,"opposite_coherence":0,"dot_radius":2,"dot_side_length":1,"dot_life":-1,"move_distance":1,"aperture_width":300,"aperture_height":300,"dot_color":["white","white","black","white","white","black","white","black","white","black","black","black","white","black","white","black","black","black","white","white","black","white","white","black","white","white","white","white","black","black","white","black","white","black","black","white","white","black","white","black","white","white","black","white","black","black","white","black","white","black","black","black","white","white","white","black","black","black","white","black","white","white","black","black","white","white","white","white","black","white","white","black","black","black","white","black","white","white","black","black","white","black","white","black","black","black","black","black","white","black","white","black","white","white","black","black","white","black","black","black","white","black","black","white","white","white","white","black","white","white","white","white","black","white","black","white","black","white","black","white","black","black","white","white","black","white","black","black","white","black","black","black","white","black","black","black","black","white","black","black","white","white","black","black","white","white","white","white","white","black","white","white","white","white","black","black","black","black","white","black","white","black","white","black","white","black","black","black","black","white","black","black","black","white","black","white","black","white","white","white","black","white","black","white","white","white","white","white","white","white","white","black","black","black","white","black","white","white","black","black"],"dot_shape":"circle","background_color":"#AAA","RDK_type":3,"aperture_type":2,"reinsert_type":2,"frame_rate":16.708333333333332,"frame_rate_array":[12,16,17,17,17,17,17,17,17,16,17,16,17,17,17,17,16,17,16,17,17,17,17,16,17,17,17,17,17,17,17,16,17,16,17,16,17,17,17,17,16,17,17,16,17,17,16,17,17,16,17,17,17,16,17,17,17,17,16,16,16,17,18,18,15,17,17,16,17,17,17,17,16,17,17,17,17,16,18,16,17,17,17,16,17,17,16,17,17,16,17,16,17,17,17,17,17,17,16,17,16,17,17,16,17,17,17,17,16,17,16,18,16,17,17,17,17,16,17,17],"number_of_frames":120,"aperture_center_x":1280,"aperture_center_y":720,"fixation_cross":true,"fixation_cross_width":15,"fixation_cross_height":15,"fixation_cross_color":"#111","fixation_cross_thickness":1,"border":true,"border_thickness":2,"border_color":"transparent","canvas_width":2560,"canvas_height":1440,"trial_type":"rdk","trial_index":80,"plugin_version":"2.0.0","time_elapsed":149902},{"rt":1665,"stimulus":"\n        <div class=\"response-container\">\n          <div class=\"response-instruction\">\n            <p>rotate the bar by using the left and right arrow keys.</p>\n            <p>when you are determined, press the Enter key.</p>\n          </div>\n          <div class=\"response-circle\">\n            <div class=\"response-fixation\"></div>\n            <div id=\"bar\" class=\"rotating-bar\"></div>\n          </div>\n        </div>\n      ","response":"Enter","trial_type":"html-keyboard-response","trial_index":81,"plugin_version":"2.1.0","time_elapsed":151568,"random_initial_angle":69,"response_angle_css":123,"response_angle_rdk":327,"angular_error_target":-7,"angular_error_distractor":-97,"target_direction":334,"target_group":"black","reward_points":8},{"rt":null,"stimulus":"\n          <p style=\"color: #00FF00;\">Your reward: 8 points</p>\n        ","response":null,"trial_type":"html-keyboard-response","trial_index":82,"plugin_version":"2.1.0","time_elapsed":153571},{"rt":null,"stimulus":"<div class=\"fixation\" style=\"font-size: 60px;\">+</div>","response":null,"trial_type":"html-keyboard-response","trial_index":83,"plugin_version":"2.1.0","time_elapsed":154574},{"phase":"learning-awareness","target_group":"black","condition_label":"B_H_vs_W_L_rep22","target_direction":334,"distractor_direction":73,"session_rotation":214,"rt":-1,"response":"","correct":false,"choices":"ALL_KEYS","correct_choice":["a"],"trial_duration":2000,"flip_timestamps":[],"response_ends_trial":false,"number_of_apertures":200,"number_of_dots":[1,1,1,1,1,1,1,1,1,1,1,1,1,1,1,1,1,1,1,1,1,1,1,1,1,1,1,1,1,1,1,1,1,1,1,1,1,1,1,1,1,1,1,1,1,1,1,1,1,1,1,1,1,1,1,1,1,1,1,1,1,1,1,1,1,1,1,1,1,1,1,1,1,1,1,1,1,1,1,1,1,1,1,1,1,1,1,1,1,1,1,1,1,1,1,1,1,1,1,1,1,1,1,1,1,1,1,1,1,1,1,1,1,1,1,1,1,1,1,1,1,1,1,1,1,1,1,1,1,1,1,1,1,1,1,1,1,1,1,1,1,1,1,1,1,1,1,1,1,1,1,1,1,1,1,1,1,1,1,1,1,1,1,1,1,1,1,1,1,1,1,1,1,1,1,1,1,1,1,1,1,1,1,1,1,1,1,1,1,1,1,1,1,1,1,1,1,1,1,1],"number_of_sets":1,"coherent_direction":[334,73,334,73,73,73,73,334,73,73,73,334,73,334,334,334,73,73,334,73,334,334,334,73,73,73,334,334,334,334,334,73,73,334,334,73,334,334,334,334,73,73,334,73,73,73,73,73,334,334,73,73,334,334,73,334,334,73,334,334,73,334,334,334,334,334,334,334,334,73,334,73,334,334,334,334,334,334,73,73,73,73,73,334,73,334,334,334,73,73,334,73,73,73,73,73,73,73,334,73,73,334,73,334,73,334,73,73,334,73,73,73,73,334,334,73,334,334,73,73,73,334,334,73,73,73,73,334,334,334,73,73,73,73,73,334,334,73,334,73,73,334,334,334,73,73,334,73,334,334,334,73,73,73,73,334,73,334,73,73,73,73,334,73,73,334,334,334,334,73,73,334,73,334,334,73,73,334,73,73,334,334,73,334,334,73,334,73,334,334,73,334,73,334,73,334,334,334,334,334],"coherence":1,"opposite_coherence":0,"dot_radius":2,"dot_side_length":1,"dot_life":-1,"move_distance":1,"aperture_width":300,"aperture_height":300,"dot_color":["black","white","black","white","white","white","white","black","white","white","white","black","white","black","black","black","white","white","black","white","black","black","black","white","white","white","black","black","black","black","black","white","white","black","black","white","black","black","black","black","white","white","black","white","white","white","white","white","black","black","white","white","black","black","white","black","black","white","black","black","white","black","black","black","black","black","black","black","black","white","black","white","black","black","black","black","black","black","white","white","white","white","white","black","white","black","black","black","white","white","black","white","white","white","white","white","white","white","black","white","white","black","white","black","white","black","white","white","black","white","white","white","white","black","black","white","black","black","white","white","white","black","black","white","white","white","white","black","black","black","white","white","white","white","white","black","black","white","black","white","white","black","black","black","white","white","black","white","black","black","black","white","white","white","white","black","white","black","white","white","white","white","black","white","white","black","black","black","black","white","white","black","white","black","black","white","white","black","white","white","black","black","white","black","black","white","black","white","black","black","white","black","white","black","white","black","black","black","black","black"],"dot_shape":"circle","background_color":"#AAA","RDK_type":3,"aperture_type":2,"reinsert_type":2,"frame_rate":16.80672268907563,"frame_rate_array":[21,16,17,17,17,17,17,17,16,17,17,16,17,17,16,17,16,17,17,16,16,18,17,17,16,17,17,17,17,17,17,15,18,17,17,16,17,17,17,16,17,17,16,17,17,16,17,16,17,17,17,16,17,17,17,17,17,17,17,16,17,17,17,17,17,17,17,17,17,17,17,17,17,17,16,17,17,15,18,17,17,16,18,17,16,18,17,17,17,16,17,17,16,17,17,17,16,17,17,16,16,17,17,17,17,16,17,16,17,17,16,17,16,17,17,16,17,16,18],"number_of_frames":119,"aperture_center_x":1280,"aperture_center_y":720,"fixation_cross":true,"fixation_cross_width":15,"fixation_cross_height":15,"fixation_cross_color":"#111","fixation_cross_thickness":1,"border":true,"border_thickness":2,"border_color":"transparent","canvas_width":2560,"canvas_height":1440,"trial_type":"rdk","trial_index":84,"plugin_version":"2.0.0","time_elapsed":156579},{"rt":3058,"stimulus":"\n        <div class=\"response-container\">\n          <div class=\"response-instruction\">\n            <p>rotate the bar by using the left and right arrow keys.</p>\n            <p>when you are determined, press the Enter key.</p>\n          </div>\n          <div class=\"response-circle\">\n            <div class=\"response-fixation\"></div>\n            <div id=\"bar\" class=\"rotating-bar\"></div>\n          </div>\n        </div>\n      ","response":"Enter","trial_type":"html-keyboard-response","trial_index":85,"plugin_version":"2.1.0","time_elapsed":159638,"random_initial_angle":266,"response_angle_css":126,"response_angle_rdk":324,"angular_error_target":-10,"angular_error_distractor":-109,"target_direction":334,"target_group":"black","reward_points":8},{"rt":null,"stimulus":"\n          <p style=\"color: #00FF00;\">Your reward: 8 points</p>\n        ","response":null,"trial_type":"html-keyboard-response","trial_index":86,"plugin_version":"2.1.0","time_elapsed":161640},{"rt":null,"stimulus":"<div class=\"fixation\" style=\"font-size: 60px;\">+</div>","response":null,"trial_type":"html-keyboard-response","trial_index":87,"plugin_version":"2.1.0","time_elapsed":162643},{"phase":"learning-awareness","target_group":"white","condition_label":"W_H_vs_B_L_rep7","target_direction":258,"distractor_direction":137,"session_rotation":214,"rt":-1,"response":"","correct":false,"choices":"ALL_KEYS","correct_choice":["a"],"trial_duration":2000,"flip_timestamps":[],"response_ends_trial":false,"number_of_apertures":200,"number_of_dots":[1,1,1,1,1,1,1,1,1,1,1,1,1,1,1,1,1,1,1,1,1,1,1,1,1,1,1,1,1,1,1,1,1,1,1,1,1,1,1,1,1,1,1,1,1,1,1,1,1,1,1,1,1,1,1,1,1,1,1,1,1,1,1,1,1,1,1,1,1,1,1,1,1,1,1,1,1,1,1,1,1,1,1,1,1,1,1,1,1,1,1,1,1,1,1,1,1,1,1,1,1,1,1,1,1,1,1,1,1,1,1,1,1,1,1,1,1,1,1,1,1,1,1,1,1,1,1,1,1,1,1,1,1,1,1,1,1,1,1,1,1,1,1,1,1,1,1,1,1,1,1,1,1,1,1,1,1,1,1,1,1,1,1,1,1,1,1,1,1,1,1,1,1,1,1,1,1,1,1,1,1,1,1,1,1,1,1,1,1,1,1,1,1,1,1,1,1,1,1,1],"number_of_sets":1,"coherent_direction":[258,137,258,137,258,258,258,258,137,137,258,258,258,137,258,258,137,137,137,258,137,137,137,258,258,258,137,137,258,137,258,137,137,137,258,137,137,258,258,137,137,258,137,137,258,258,137,258,137,137,258,258,258,137,137,258,258,137,258,258,137,137,137,258,137,137,258,137,258,137,137,258,258,137,137,137,258,137,137,258,137,258,258,258,258,137,137,137,137,258,258,258,258,137,137,258,258,137,258,258,258,137,137,258,258,137,258,137,137,137,258,258,137,258,137,137,258,137,258,137,137,258,258,258,137,137,258,137,258,258,137,137,258,258,137,137,137,258,258,137,258,258,137,137,258,258,258,137,137,258,258,258,137,258,137,258,258,258,258,258,137,137,137,258,258,258,258,137,137,137,137,137,258,258,258,137,258,137,258,137,137,258,137,137,258,137,137,258,258,137,258,137,137,258,137,137,137,258,258,137],"coherence":1,"opposite_coherence":0,"dot_radius":2,"dot_side_length":1,"dot_life":-1,"move_distance":1,"aperture_width":300,"aperture_height":300,"dot_color":["white","black","white","black","white","white","white","white","black","black","white","white","white","black","white","white","black","black","black","white","black","black","black","white","white","white","black","black","white","black","white","black","black","black","white","black","black","white","white","black","black","white","black","black","white","white","black","white","black","black","white","white","white","black","black","white","white","black","white","white","black","black","black","white","black","black","white","black","white","black","black","white","white","black","black","black","white","black","black","white","black","white","white","white","white","black","black","black","black","white","white","white","white","black","black","white","white","black","white","white","white","black","black","white","white","black","white","black","black","black","white","white","black","white","black","black","white","black","white","black","black","white","white","white","black","black","white","black","white","white","black","black","white","white","black","black","black","white","white","black","white","white","black","black","white","white","white","black","black","white","white","white","black","white","black","white","white","white","white","white","black","black","black","white","white","white","white","black","black","black","black","black","white","white","white","black","white","black","white","black","black","white","black","black","white","black","black","white","white","black","white","black","black","white","black","black","black","white","white","black"],"dot_shape":"circle","background_color":"#AAA","RDK_type":3,"aperture_type":2,"reinsert_type":2,"frame_rate":16.77310924369748,"frame_rate_array":[18,16,18,17,17,17,17,17,17,17,17,16,17,15,18,16,17,17,17,16,17,16,18,17,16,17,16,17,17,17,17,16,17,17,18,15,17,17,18,17,15,18,16,17,16,17,17,17,16,17,17,17,17,16,17,17,17,17,16,18,16,17,17,16,17,17,17,16,17,16,16,17,17,17,17,17,16,17,16,17,16,17,17,16,18,16,17,16,17,17,17,17,16,17,17,17,16,17,17,16,17,17,17,17,17,17,17,16,17,17,17,17,16,17,17,16,17,17,17],"number_of_frames":119,"aperture_center_x":1280,"aperture_center_y":720,"fixation_cross":true,"fixation_cross_width":15,"fixation_cross_height":15,"fixation_cross_color":"#111","fixation_cross_thickness":1,"border":true,"border_thickness":2,"border_color":"transparent","canvas_width":2560,"canvas_height":1440,"trial_type":"rdk","trial_index":88,"plugin_version":"2.0.0","time_elapsed":164647},{"rt":3508,"stimulus":"\n        <div class=\"response-container\">\n          <div class=\"response-instruction\">\n            <p>rotate the bar by using the left and right arrow keys.</p>\n            <p>when you are determined, press the Enter key.</p>\n          </div>\n          <div class=\"response-circle\">\n            <div class=\"response-fixation\"></div>\n            <div id=\"bar\" class=\"rotating-bar\"></div>\n          </div>\n        </div>\n      ","response":"Enter","trial_type":"html-keyboard-response","trial_index":89,"plugin_version":"2.1.0","time_elapsed":168156,"random_initial_angle":358,"response_angle_css":177,"response_angle_rdk":273,"angular_error_target":15,"angular_error_distractor":136,"target_direction":258,"target_group":"white","reward_points":7},{"rt":null,"stimulus":"\n          <p style=\"color: #00FF00;\">Your reward: 7 points</p>\n        ","response":null,"trial_type":"html-keyboard-response","trial_index":90,"plugin_version":"2.1.0","time_elapsed":170158},{"rt":null,"stimulus":"<div class=\"fixation\" style=\"font-size: 60px;\">+</div>","response":null,"trial_type":"html-keyboard-response","trial_index":91,"plugin_version":"2.1.0","time_elapsed":171161},{"phase":"learning-awareness","target_group":"white","condition_label":"W_H_vs_B_L_rep3","target_direction":240,"distractor_direction":132,"session_rotation":214,"rt":-1,"response":"","correct":false,"choices":"ALL_KEYS","correct_choice":["a"],"trial_duration":2000,"flip_timestamps":[],"response_ends_trial":false,"number_of_apertures":200,"number_of_dots":[1,1,1,1,1,1,1,1,1,1,1,1,1,1,1,1,1,1,1,1,1,1,1,1,1,1,1,1,1,1,1,1,1,1,1,1,1,1,1,1,1,1,1,1,1,1,1,1,1,1,1,1,1,1,1,1,1,1,1,1,1,1,1,1,1,1,1,1,1,1,1,1,1,1,1,1,1,1,1,1,1,1,1,1,1,1,1,1,1,1,1,1,1,1,1,1,1,1,1,1,1,1,1,1,1,1,1,1,1,1,1,1,1,1,1,1,1,1,1,1,1,1,1,1,1,1,1,1,1,1,1,1,1,1,1,1,1,1,1,1,1,1,1,1,1,1,1,1,1,1,1,1,1,1,1,1,1,1,1,1,1,1,1,1,1,1,1,1,1,1,1,1,1,1,1,1,1,1,1,1,1,1,1,1,1,1,1,1,1,1,1,1,1,1,1,1,1,1,1,1],"number_of_sets":1,"coherent_direction":[240,132,132,132,132,240,240,240,132,240,132,240,240,132,132,132,240,132,132,240,240,240,240,240,132,132,240,132,132,132,240,132,132,240,132,132,240,132,132,132,132,240,240,240,132,132,132,132,240,240,240,240,132,132,240,132,132,132,240,132,240,240,240,132,132,132,240,132,240,132,132,132,240,240,132,132,240,132,132,240,240,132,240,240,132,240,240,240,132,240,240,132,132,240,240,240,240,240,240,240,240,132,132,132,240,132,132,240,240,240,240,240,240,132,132,132,132,132,132,132,240,240,132,132,240,132,132,132,240,240,132,132,132,240,132,132,132,240,240,240,132,132,240,132,132,240,240,240,132,240,240,240,132,240,240,132,132,132,132,132,240,240,240,240,240,132,132,132,240,240,132,240,132,132,240,132,132,240,240,240,240,240,132,132,240,132,240,240,240,240,240,132,132,240,132,240,132,132,240,240],"coherence":1,"opposite_coherence":0,"dot_radius":2,"dot_side_length":1,"dot_life":-1,"move_distance":1,"aperture_width":300,"aperture_height":300,"dot_color":["white","black","black","black","black","white","white","white","black","white","black","white","white","black","black","black","white","black","black","white","white","white","white","white","black","black","white","black","black","black","white","black","black","white","black","black","white","black","black","black","black","white","white","white","black","black","black","black","white","white","white","white","black","black","white","black","black","black","white","black","white","white","white","black","black","black","white","black","white","black","black","black","white","white","black","black","white","black","black","white","white","black","white","white","black","white","white","white","black","white","white","black","black","white","white","white","white","white","white","white","white","black","black","black","white","black","black","white","white","white","white","white","white","black","black","black","black","black","black","black","white","white","black","black","white","black","black","black","white","white","black","black","black","white","black","black","black","white","white","white","black","black","white","black","black","white","white","white","black","white","white","white","black","white","white","black","black","black","black","black","white","white","white","white","white","black","black","black","white","white","black","white","black","black","white","black","black","white","white","white","white","white","black","black","white","black","white","white","white","white","white","black","black","white","black","white","black","black","white","white"],"dot_shape":"circle","background_color":"#AAA","RDK_type":3,"aperture_type":2,"reinsert_type":2,"frame_rate":16.58677685950413,"frame_rate_array":[1,16,17,17,17,17,17,17,17,17,16,17,17,17,17,16,17,18,16,17,17,17,17,17,16,16,17,16,18,17,16,17,17,16,17,16,17,17,16,18,16,15,18,17,17,17,16,16,17,17,16,17,17,16,18,17,16,17,17,17,17,16,17,17,17,16,17,17,17,17,17,16,17,17,16,17,17,16,16,17,16,18,16,16,17,17,17,17,17,17,17,17,16,17,17,16,16,17,17,16,17,16,17,16,17,16,18,16,17,16,17,17,17,17,16,17,16,17,17,16,16],"number_of_frames":121,"aperture_center_x":1280,"aperture_center_y":720,"fixation_cross":true,"fixation_cross_width":15,"fixation_cross_height":15,"fixation_cross_color":"#111","fixation_cross_thickness":1,"border":true,"border_thickness":2,"border_color":"transparent","canvas_width":2560,"canvas_height":1440,"trial_type":"rdk","trial_index":92,"plugin_version":"2.0.0","time_elapsed":173166},{"rt":2713,"stimulus":"\n        <div class=\"response-container\">\n          <div class=\"response-instruction\">\n            <p>rotate the bar by using the left and right arrow keys.</p>\n            <p>when you are determined, press the Enter key.</p>\n          </div>\n          <div class=\"response-circle\">\n            <div class=\"response-fixation\"></div>\n            <div id=\"bar\" class=\"rotating-bar\"></div>\n          </div>\n        </div>\n      ","response":"Enter","trial_type":"html-keyboard-response","trial_index":93,"plugin_version":"2.1.0","time_elapsed":175880,"random_initial_angle":255,"response_angle_css":332,"response_angle_rdk":118,"angular_error_target":-122,"angular_error_distractor":-14,"target_direction":240,"target_group":"white","reward_points":0},{"rt":null,"stimulus":"\n          <p style=\"color: #FF3333;\">Your reward: 0 points</p>\n        ","response":null,"trial_type":"html-keyboard-response","trial_index":94,"plugin_version":"2.1.0","time_elapsed":177883},{"rt":null,"stimulus":"<div class=\"fixation\" style=\"font-size: 60px;\">+</div>","response":null,"trial_type":"html-keyboard-response","trial_index":95,"plugin_version":"2.1.0","time_elapsed":178886},{"phase":"learning-awareness","target_group":"black","condition_label":"B_H_vs_W_L_rep3","target_direction":320,"distractor_direction":50,"session_rotation":214,"rt":-1,"response":"","correct":false,"choices":"ALL_KEYS","correct_choice":["a"],"trial_duration":2000,"flip_timestamps":[],"response_ends_trial":false,"number_of_apertures":200,"number_of_dots":[1,1,1,1,1,1,1,1,1,1,1,1,1,1,1,1,1,1,1,1,1,1,1,1,1,1,1,1,1,1,1,1,1,1,1,1,1,1,1,1,1,1,1,1,1,1,1,1,1,1,1,1,1,1,1,1,1,1,1,1,1,1,1,1,1,1,1,1,1,1,1,1,1,1,1,1,1,1,1,1,1,1,1,1,1,1,1,1,1,1,1,1,1,1,1,1,1,1,1,1,1,1,1,1,1,1,1,1,1,1,1,1,1,1,1,1,1,1,1,1,1,1,1,1,1,1,1,1,1,1,1,1,1,1,1,1,1,1,1,1,1,1,1,1,1,1,1,1,1,1,1,1,1,1,1,1,1,1,1,1,1,1,1,1,1,1,1,1,1,1,1,1,1,1,1,1,1,1,1,1,1,1,1,1,1,1,1,1,1,1,1,1,1,1,1,1,1,1,1,1],"number_of_sets":1,"coherent_direction":[320,50,320,320,320,320,50,50,320,320,320,320,50,320,320,320,50,50,50,320,320,320,50,320,50,50,320,320,320,320,320,50,320,50,320,50,320,320,320,320,320,320,320,50,50,50,320,320,320,50,320,320,320,50,320,50,50,50,50,320,50,50,320,50,50,50,50,320,320,50,50,320,50,50,50,320,320,50,50,50,320,320,320,320,50,320,50,50,50,320,50,50,50,50,50,320,320,320,320,50,320,320,50,320,320,50,50,50,320,320,320,320,320,320,50,50,50,50,320,320,50,50,50,320,50,50,320,320,50,320,50,320,320,50,320,50,320,320,320,50,50,320,50,50,50,320,50,320,50,50,50,320,50,50,320,320,50,50,320,320,320,50,50,320,320,50,320,50,50,50,320,50,320,50,320,50,50,50,50,50,50,320,50,50,50,320,50,50,320,50,320,50,320,320,50,320,50,320,50,320],"coherence":1,"opposite_coherence":0,"dot_radius":2,"dot_side_length":1,"dot_life":-1,"move_distance":1,"aperture_width":300,"aperture_height":300,"dot_color":["black","white","black","black","black","black","white","white","black","black","black","black","white","black","black","black","white","white","white","black","black","black","white","black","white","white","black","black","black","black","black","white","black","white","black","white","black","black","black","black","black","black","black","white","white","white","black","black","black","white","black","black","black","white","black","white","white","white","white","black","white","white","black","white","white","white","white","black","black","white","white","black","white","white","white","black","black","white","white","white","black","black","black","black","white","black","white","white","white","black","white","white","white","white","white","black","black","black","black","white","black","black","white","black","black","white","white","white","black","black","black","black","black","black","white","white","white","white","black","black","white","white","white","black","white","white","black","black","white","black","white","black","black","white","black","white","black","black","black","white","white","black","white","white","white","black","white","black","white","white","white","black","white","white","black","black","white","white","black","black","black","white","white","black","black","white","black","white","white","white","black","white","black","white","black","white","white","white","white","white","white","black","white","white","white","black","white","white","black","white","black","white","black","black","white","black","white","black","white","black"],"dot_shape":"circle","background_color":"#AAA","RDK_type":3,"aperture_type":2,"reinsert_type":2,"frame_rate":16.716666666666665,"frame_rate_array":[6,17,17,17,17,17,16,16,19,15,17,17,17,17,17,17,17,17,17,16,18,17,17,17,17,17,17,17,17,17,17,17,17,17,16,17,17,18,17,17,16,17,17,17,16,17,17,17,16,17,17,17,17,17,17,17,16,17,17,17,16,17,16,17,16,17,16,17,17,17,16,17,17,17,16,17,17,17,16,17,17,16,17,17,17,16,17,18,16,17,16,17,17,16,17,17,17,16,16,18,17,16,17,17,17,16,17,17,16,17,17,16,17,17,16,17,17,18,16,17],"number_of_frames":120,"aperture_center_x":1280,"aperture_center_y":720,"fixation_cross":true,"fixation_cross_width":15,"fixation_cross_height":15,"fixation_cross_color":"#111","fixation_cross_thickness":1,"border":true,"border_thickness":2,"border_color":"transparent","canvas_width":2560,"canvas_height":1440,"trial_type":"rdk","trial_index":96,"plugin_version":"2.0.0","time_elapsed":180892},{"rt":2776,"stimulus":"\n        <div class=\"response-container\">\n          <div class=\"response-instruction\">\n            <p>rotate the bar by using the left and right arrow keys.</p>\n            <p>when you are determined, press the Enter key.</p>\n          </div>\n          <div class=\"response-circle\">\n            <div class=\"response-fixation\"></div>\n            <div id=\"bar\" class=\"rotating-bar\"></div>\n          </div>\n        </div>\n      ","response":"Enter","trial_type":"html-keyboard-response","trial_index":97,"plugin_version":"2.1.0","time_elapsed":183669,"random_initial_angle":322,"response_angle_css":156,"response_angle_rdk":294,"angular_error_target":-26,"angular_error_distractor":-116,"target_direction":320,"target_group":"black","reward_points":4},{"rt":null,"stimulus":"\n          <p style=\"color: #00FF00;\">Your reward: 4 points</p>\n        ","response":null,"trial_type":"html-keyboard-response","trial_index":98,"plugin_version":"2.1.0","time_elapsed":185672},{"rt":null,"stimulus":"<div class=\"fixation\" style=\"font-size: 60px;\">+</div>","response":null,"trial_type":"html-keyboard-response","trial_index":99,"plugin_version":"2.1.0","time_elapsed":186674},{"phase":"learning-awareness","target_group":"black","condition_label":"B_H_vs_W_L_rep14","target_direction":335,"distractor_direction":66,"session_rotation":214,"rt":-1,"response":"","correct":false,"choices":"ALL_KEYS","correct_choice":["a"],"trial_duration":2000,"flip_timestamps":[],"response_ends_trial":false,"number_of_apertures":200,"number_of_dots":[1,1,1,1,1,1,1,1,1,1,1,1,1,1,1,1,1,1,1,1,1,1,1,1,1,1,1,1,1,1,1,1,1,1,1,1,1,1,1,1,1,1,1,1,1,1,1,1,1,1,1,1,1,1,1,1,1,1,1,1,1,1,1,1,1,1,1,1,1,1,1,1,1,1,1,1,1,1,1,1,1,1,1,1,1,1,1,1,1,1,1,1,1,1,1,1,1,1,1,1,1,1,1,1,1,1,1,1,1,1,1,1,1,1,1,1,1,1,1,1,1,1,1,1,1,1,1,1,1,1,1,1,1,1,1,1,1,1,1,1,1,1,1,1,1,1,1,1,1,1,1,1,1,1,1,1,1,1,1,1,1,1,1,1,1,1,1,1,1,1,1,1,1,1,1,1,1,1,1,1,1,1,1,1,1,1,1,1,1,1,1,1,1,1,1,1,1,1,1,1],"number_of_sets":1,"coherent_direction":[66,335,66,335,66,335,66,335,66,335,66,66,66,66,335,335,335,66,66,66,335,66,66,66,66,335,335,66,66,66,335,335,335,335,335,66,335,66,66,66,335,66,335,66,335,66,335,66,66,335,66,335,66,335,335,335,66,66,335,66,66,66,335,66,66,66,66,66,66,335,66,335,66,66,66,335,335,66,66,335,335,66,335,335,335,335,66,335,335,66,335,66,66,335,66,335,66,66,66,335,335,66,66,335,335,66,335,66,335,335,335,66,66,335,66,335,335,66,335,335,66,66,66,66,335,66,335,66,335,335,335,66,335,66,335,335,335,66,335,335,66,335,66,335,66,66,66,335,335,335,335,66,66,66,335,335,335,66,335,66,66,335,66,335,66,66,335,66,335,66,335,66,335,335,335,335,335,335,66,66,335,66,335,66,335,66,335,335,335,66,66,335,335,66,335,66,66,335,335,335],"coherence":1,"opposite_coherence":0,"dot_radius":2,"dot_side_length":1,"dot_life":-1,"move_distance":1,"aperture_width":300,"aperture_height":300,"dot_color":["white","black","white","black","white","black","white","black","white","black","white","white","white","white","black","black","black","white","white","white","black","white","white","white","white","black","black","white","white","white","black","black","black","black","black","white","black","white","white","white","black","white","black","white","black","white","black","white","white","black","white","black","white","black","black","black","white","white","black","white","white","white","black","white","white","white","white","white","white","black","white","black","white","white","white","black","black","white","white","black","black","white","black","black","black","black","white","black","black","white","black","white","white","black","white","black","white","white","white","black","black","white","white","black","black","white","black","white","black","black","black","white","white","black","white","black","black","white","black","black","white","white","white","white","black","white","black","white","black","black","black","white","black","white","black","black","black","white","black","black","white","black","white","black","white","white","white","black","black","black","black","white","white","white","black","black","black","white","black","white","white","black","white","black","white","white","black","white","black","white","black","white","black","black","black","black","black","black","white","white","black","white","black","white","black","white","black","black","black","white","white","black","black","white","black","white","white","black","black","black"],"dot_shape":"circle","background_color":"#AAA","RDK_type":3,"aperture_type":2,"reinsert_type":2,"frame_rate":16.781512605042018,"frame_rate_array":[19,17,17,17,17,17,17,17,15,17,18,17,15,18,16,17,17,17,16,17,16,18,17,17,17,17,16,17,16,17,16,17,16,17,17,17,16,17,17,16,17,17,15,18,17,16,17,17,17,17,17,16,17,16,17,17,17,16,17,16,17,17,17,17,16,16,17,17,16,18,17,17,16,17,16,18,17,17,16,17,17,17,17,17,17,17,17,17,17,16,17,17,16,17,16,17,16,17,17,17,17,17,17,17,16,17,17,17,17,16,17,17,17,16,17,17,17,16,17],"number_of_frames":119,"aperture_center_x":1280,"aperture_center_y":720,"fixation_cross":true,"fixation_cross_width":15,"fixation_cross_height":15,"fixation_cross_color":"#111","fixation_cross_thickness":1,"border":true,"border_thickness":2,"border_color":"transparent","canvas_width":2560,"canvas_height":1440,"trial_type":"rdk","trial_index":100,"plugin_version":"2.0.0","time_elapsed":188679},{"rt":1753,"stimulus":"\n        <div class=\"response-container\">\n          <div class=\"response-instruction\">\n            <p>rotate the bar by using the left and right arrow keys.</p>\n            <p>when you are determined, press the Enter key.</p>\n          </div>\n          <div class=\"response-circle\">\n            <div class=\"response-fixation\"></div>\n            <div id=\"bar\" class=\"rotating-bar\"></div>\n          </div>\n        </div>\n      ","response":"Enter","trial_type":"html-keyboard-response","trial_index":101,"plugin_version":"2.1.0","time_elapsed":190433,"random_initial_angle":162,"response_angle_css":118,"response_angle_rdk":332,"angular_error_target":-3,"angular_error_distractor":-94,"target_direction":335,"target_group":"black","reward_points":9},{"rt":null,"stimulus":"\n          <p style=\"color: #00FF00;\">Your reward: 9 points</p>\n        ","response":null,"trial_type":"html-keyboard-response","trial_index":102,"plugin_version":"2.1.0","time_elapsed":192434},{"rt":null,"stimulus":"<div class=\"fixation\" style=\"font-size: 60px;\">+</div>","response":null,"trial_type":"html-keyboard-response","trial_index":103,"plugin_version":"2.1.0","time_elapsed":193437},{"phase":"learning-awareness","target_group":"white","condition_label":"W_H_vs_B_L_rep21","target_direction":225,"distractor_direction":134,"session_rotation":214,"rt":-1,"response":"","correct":false,"choices":"ALL_KEYS","correct_choice":["a"],"trial_duration":2000,"flip_timestamps":[],"response_ends_trial":false,"number_of_apertures":200,"number_of_dots":[1,1,1,1,1,1,1,1,1,1,1,1,1,1,1,1,1,1,1,1,1,1,1,1,1,1,1,1,1,1,1,1,1,1,1,1,1,1,1,1,1,1,1,1,1,1,1,1,1,1,1,1,1,1,1,1,1,1,1,1,1,1,1,1,1,1,1,1,1,1,1,1,1,1,1,1,1,1,1,1,1,1,1,1,1,1,1,1,1,1,1,1,1,1,1,1,1,1,1,1,1,1,1,1,1,1,1,1,1,1,1,1,1,1,1,1,1,1,1,1,1,1,1,1,1,1,1,1,1,1,1,1,1,1,1,1,1,1,1,1,1,1,1,1,1,1,1,1,1,1,1,1,1,1,1,1,1,1,1,1,1,1,1,1,1,1,1,1,1,1,1,1,1,1,1,1,1,1,1,1,1,1,1,1,1,1,1,1,1,1,1,1,1,1,1,1,1,1,1,1],"number_of_sets":1,"coherent_direction":[134,225,225,134,134,225,134,134,134,134,134,134,134,225,225,225,225,225,225,225,134,225,134,225,134,134,134,225,225,134,225,225,225,134,225,225,134,225,225,225,225,134,134,225,225,134,225,225,134,134,225,134,225,134,134,225,225,134,134,225,134,225,225,134,134,134,134,134,134,134,225,225,225,134,134,225,225,225,225,134,225,134,225,225,134,134,134,134,225,134,225,134,134,134,225,225,134,225,134,225,134,134,225,134,134,225,134,225,225,134,225,225,134,134,225,134,134,134,134,134,134,225,225,225,134,225,225,225,134,225,134,225,225,225,225,134,225,134,225,134,225,225,134,134,134,225,225,225,134,134,134,134,134,225,225,134,225,134,225,225,225,134,225,134,225,134,225,134,225,134,225,225,225,225,134,225,134,225,225,134,225,134,134,225,134,225,134,134,134,225,134,225,134,225,134,134,134,134,225,225],"coherence":1,"opposite_coherence":0,"dot_radius":2,"dot_side_length":1,"dot_life":-1,"move_distance":1,"aperture_width":300,"aperture_height":300,"dot_color":["black","white","white","black","black","white","black","black","black","black","black","black","black","white","white","white","white","white","white","white","black","white","black","white","black","black","black","white","white","black","white","white","white","black","white","white","black","white","white","white","white","black","black","white","white","black","white","white","black","black","white","black","white","black","black","white","white","black","black","white","black","white","white","black","black","black","black","black","black","black","white","white","white","black","black","white","white","white","white","black","white","black","white","white","black","black","black","black","white","black","white","black","black","black","white","white","black","white","black","white","black","black","white","black","black","white","black","white","white","black","white","white","black","black","white","black","black","black","black","black","black","white","white","white","black","white","white","white","black","white","black","white","white","white","white","black","white","black","white","black","white","white","black","black","black","white","white","white","black","black","black","black","black","white","white","black","white","black","white","white","white","black","white","black","white","black","white","black","white","black","white","white","white","white","black","white","black","white","white","black","white","black","black","white","black","white","black","black","black","white","black","white","black","white","black","black","black","black","white","white"],"dot_shape":"circle","background_color":"#AAA","RDK_type":3,"aperture_type":2,"reinsert_type":2,"frame_rate":16.7,"frame_rate_array":[7,18,17,17,17,17,17,17,17,17,17,17,16,17,17,16,17,16,17,17,16,18,16,16,17,17,16,17,17,17,17,17,16,16,16,17,17,16,17,17,18,16,16,17,18,16,17,17,17,16,17,16,17,17,16,17,17,16,17,17,17,17,17,17,16,17,17,17,15,17,17,17,17,17,16,17,17,17,16,17,17,16,17,17,17,17,17,16,17,17,16,18,16,17,17,17,17,17,17,17,17,17,16,16,18,16,17,17,17,16,17,17,16,17,17,17,17,17,17,17],"number_of_frames":120,"aperture_center_x":1280,"aperture_center_y":720,"fixation_cross":true,"fixation_cross_width":15,"fixation_cross_height":15,"fixation_cross_color":"#111","fixation_cross_thickness":1,"border":true,"border_thickness":2,"border_color":"transparent","canvas_width":2560,"canvas_height":1440,"trial_type":"rdk","trial_index":104,"plugin_version":"2.0.0","time_elapsed":195440},{"rt":3163,"stimulus":"\n        <div class=\"response-container\">\n          <div class=\"response-instruction\">\n            <p>rotate the bar by using the left and right arrow keys.</p>\n            <p>when you are determined, press the Enter key.</p>\n          </div>\n          <div class=\"response-circle\">\n            <div class=\"response-fixation\"></div>\n            <div id=\"bar\" class=\"rotating-bar\"></div>\n          </div>\n        </div>\n      ","response":"Enter","trial_type":"html-keyboard-response","trial_index":105,"plugin_version":"2.1.0","time_elapsed":198604,"random_initial_angle":180,"response_angle_css":-29,"response_angle_rdk":119,"angular_error_target":-106,"angular_error_distractor":-15,"target_direction":225,"target_group":"white","reward_points":0},{"rt":null,"stimulus":"\n          <p style=\"color: #FF3333;\">Your reward: 0 points</p>\n        ","response":null,"trial_type":"html-keyboard-response","trial_index":106,"plugin_version":"2.1.0","time_elapsed":200606},{"rt":null,"stimulus":"<div class=\"fixation\" style=\"font-size: