"rt","stimulus","response","trial_type","trial_index","plugin_version","time_elapsed","target_group","target_index","condition_label","correct","choices","correct_choice","trial_duration","flip_timestamps","response_ends_trial","number_of_apertures","number_of_dots","number_of_sets","coherent_direction","coherence","opposite_coherence","dot_radius","dot_side_length","dot_life","move_distance","aperture_width","aperture_height","dot_color","dot_shape","background_color","RDK_type","aperture_type","reinsert_type","frame_rate","frame_rate_array","number_of_frames","aperture_center_x","aperture_center_y","fixation_cross","fixation_cross_width","fixation_cross_height","fixation_cross_color","fixation_cross_thickness","border","border_thickness","border_color","canvas_width","canvas_height","target_direction","distractor_direction","response_angle_css","response_angle_rdk","angular_error","reward_points","rotation_angle","key_press"
"10476","Welcome to the experiment. Press any key to begin.","ArrowRight","html-keyboard-response","0","2.1.0","10477","","","","","","","","","","","","","","","","","","","","","","","","","","","","","","","","","","","","","","","","","","","","","","","","","",""
"46615","
        <div class=""instructions-container"">
          <h2>Instructions</h2>
          <p>In this experiment, you will see <strong>two random dot kinematograms (RDKs)</strong> simultaneously.</p>
          <p>RDK consists of white dots or black dots moving in a specific direction.</p>
          <p>Your task is to determine the direction of the <strong>target RDK</strong> based on the <strong>number of dots</strong>.</p>
          <p>For instance, if the white RDK has more dots than the black RDK, the white RDK is the target so you should respond to the direction of the white RDK.</p>
          <p>After viewing the RDKs, you will rotate a bar to indicate the perceived direction of the target RDK using the <strong>left and right arrow keys</strong>. <strong>Press Enter</strong> when you are ready to submit your response.</p>
          <p>You will receive points based on the <strong>accuracy of your response</strong>. Try to be as accurate as possible!</p>
          <p>You will have three practice trials. Press <strong>Enter</strong> key to start the practice phase.</p>
        </div>
      ","Enter","html-keyboard-response","1","2.1.0","57093","","","","","","","","","","","","","","","","","","","","","","","","","","","","","","","","","","","","","","","","","","","","","","","","","",""
"null","<div class=""fixation"" style=""font-size: 60px;"">+</div>","null","html-keyboard-response","2","2.1.0","58097","","","","","","","","","","","","","","","","","","","","","","","","","","","","","","","","","","","","","","","","","","","","","","","","","",""
"-1","","","rdk","3","2.0.0","60105","black","1","B_H_vs_W_L","false","ALL_KEYS","[""a""]","2000","[]","false","2","[50,100]","1","[10,100]","1","0","2","1","-1","1","300","300","[""white"",""black""]","circle","#AAA","3","2","2","16.866666666666667","[5,17,17,17,17,17,17,17,17,16,18,17,17,17,17,17,17,17,17,17,17,17,17,17,17,17,17,17,17,17,17,18,15,17,16,17,17,17,17,17,17,17,17,17,17,17,16,18,17,17,17,17,17,17,17,17,17,17,17,17,17,17,17,17,17,17,17,17,17,16,18,17,17,17,17,16,17,17,17,17,17,17,17,16,17,17,17,17,17,17,17,17,17,17,17,17,17,17,17,17,17,17,17,17,17,17,17,17,17,17,17,17,17,17,17,17,17,16,18,17]","120","735","461.5","true","15","15","#111","1","true","2","transparent","1470","923","100","10","","","","","",""
"7709","
        <div class=""response-container"">
          <div class=""response-instruction"">
            <p>rotate the bar by using the left and right arrow keys.</p>
            <p>when you are determined, press the Enter key.</p>
          </div>
          <div class=""response-circle"">
            <div class=""response-fixation""></div>
            <div id=""bar"" class=""rotating-bar""></div>
          </div>
        </div>
      ","Enter","html-keyboard-response","4","2.1.0","67815","black","","","","","","","","","","","","","","","","","","","","","","","","","","","","","","","","","","","","","","","","","","100","","-47","137","37","1","338",""
"null","
          <p style=""color: #FF3333;"">Your reward: 1 points</p>
        ","null","html-keyboard-response","5","2.1.0","69819","","","","","","","","","","","","","","","","","","","","","","","","","","","","","","","","","","","","","","","","","","","","","","","","","",""
"null","<div class=""fixation"" style=""font-size: 60px;"">+</div>","null","html-keyboard-response","6","2.1.0","70822","","","","","","","","","","","","","","","","","","","","","","","","","","","","","","","","","","","","","","","","","","","","","","","","","",""
"-1","","","rdk","7","2.0.0","72828","white","0","W_H_vs_B_L","false","ALL_KEYS","[""a""]","2000","[]","false","2","[100,50]","1","[150,30]","1","0","2","1","-1","1","300","300","[""white"",""black""]","circle","#AAA","3","2","2","16.95","[17,17,17,17,17,17,17,17,17,17,17,17,17,16,17,17,17,17,17,17,17,17,17,17,17,16,17,17,17,17,17,17,17,17,17,17,17,17,17,17,17,17,17,16,17,17,17,17,17,17,17,16,17,17,17,16,18,17,17,17,17,16,18,17,17,17,17,17,17,17,17,17,17,17,17,17,17,17,17,17,17,16,18,17,17,17,17,17,17,17,17,17,17,17,17,17,17,17,17,17,17,17,16,17,17,17,17,17,17,17,17,16,17,17,17,17,17,17,17,17]","120","735","461.5","true","15","15","#111","1","true","2","transparent","1470","923","150","30","","","","","",""
"4129","
        <div class=""response-container"">
          <div class=""response-instruction"">
            <p>rotate the bar by using the left and right arrow keys.</p>
            <p>when you are determined, press the Enter key.</p>
          </div>
          <div class=""response-circle"">
            <div class=""response-fixation""></div>
            <div id=""bar"" class=""rotating-bar""></div>
          </div>
        </div>
      ","Enter","html-keyboard-response","8","2.1.0","76958","white","","","","","","","","","","","","","","","","","","","","","","","","","","","","","","","","","","","","","","","","","","150","","-73","163","13","7","338",""
"null","
          <p style=""color: #00FF00;"">Your reward: 7 points</p>
        ","null","html-keyboard-response","9","2.1.0","78961","","","","","","","","","","","","","","","","","","","","","","","","","","","","","","","","","","","","","","","","","","","","","","","","","",""
"null","<div class=""fixation"" style=""font-size: 60px;"">+</div>","null","html-keyboard-response","10","2.1.0","79964","","","","","","","","","","","","","","","","","","","","","","","","","","","","","","","","","","","","","","","","","","","","","","","","","",""
"-1","","","rdk","11","2.0.0","81968","black","1","B_H_vs_W_L","false","ALL_KEYS","[""a""]","2000","[]","false","2","[50,100]","1","[270,180]","1","0","2","1","-1","1","300","300","[""white"",""black""]","circle","#AAA","3","2","2","16.875","[9,17,17,17,17,17,17,17,17,17,17,17,17,17,17,17,17,16,17,17,17,17,17,17,17,17,17,17,17,17,17,17,17,17,17,16,17,17,17,16,18,17,17,17,17,17,17,17,17,17,17,17,17,16,17,17,17,17,17,17,17,17,17,17,17,17,17,17,17,16,18,17,17,17,17,17,17,17,17,17,17,17,17,17,17,17,17,17,17,17,17,17,17,17,17,16,17,17,17,17,16,17,17,17,17,17,17,17,17,17,16,17,17,17,17,17,17,17,17,16]","120","735","461.5","true","15","15","#111","1","true","2","transparent","1470","923","180","270","","","","","",""
"3828","
        <div class=""response-container"">
          <div class=""response-instruction"">
            <p>rotate the bar by using the left and right arrow keys.</p>
            <p>when you are determined, press the Enter key.</p>
          </div>
          <div class=""response-circle"">
            <div class=""response-fixation""></div>
            <div id=""bar"" class=""rotating-bar""></div>
          </div>
        </div>
      ","Enter","html-keyboard-response","12","2.1.0","85798","black","","","","","","","","","","","","","","","","","","","","","","","","","","","","","","","","","","","","","","","","","","180","","270","180","0","10","338",""
"null","
          <p style=""color: #00FF00;"">Your reward: 10 points</p>
        ","null","html-keyboard-response","13","2.1.0","87800","","","","","","","","","","","","","","","","","","","","","","","","","","","","","","","","","","","","","","","","","","","","","","","","","",""
"5578","
        <div class=""instructions-container"">
          <h2>End of Practice</h2>
          <p>You have completed the practice trials.</p>
          <p>Press <strong>Enter</strong> key to begin the main experiment.</p>
        </div>
      ","Enter","html-keyboard-response","14","2.1.0","93379","","","","","","","","","","","","","","","","","","","","","","","","","","","","","","","","","","","","","","","","","","","","","","","","","",""
"null","<div class=""fixation"" style=""font-size: 60px;"">+</div>","null","html-keyboard-response","15","2.1.0","94383","","","","","","","","","","","","","","","","","","","","","","","","","","","","","","","","","","","","","","","","","","","","","","","","","",""
"-1","","","rdk","16","2.0.0","96396","white","1","W_H_vs_B_L_rep13","false","ALL_KEYS","[""a""]","2000","[]","false","2","[100,100]","1","[31,113]","1","0","2","1","-1","1","300","300","[""black"",""white""]","circle","#AAA","3","2","2","16.991596638655462","[22,17,17,17,17,17,17,17,17,17,17,17,17,17,17,17,17,17,17,17,17,17,17,17,17,17,17,17,17,17,17,17,16,17,17,17,17,17,17,17,17,17,17,17,17,17,17,17,17,17,17,16,17,17,17,17,17,17,17,16,17,17,17,17,17,17,17,17,17,17,17,17,17,17,17,17,17,17,17,17,16,17,17,17,17,17,17,17,16,17,17,17,17,17,17,17,17,17,17,17,17,17,17,17,17,17,17,17,17,17,17,16,17,17,17,17,17,17,17]","119","735","461.5","true","15","15","#111","1","true","2","transparent","1470","923","113","31","","","","","",""
"3811","
        <div class=""response-container"">
          <div class=""response-instruction"">
            <p>rotate the bar by using the left and right arrow keys.</p>
            <p>when you are determined, press the Enter key.</p>
          </div>
          <div class=""response-circle"">
            <div class=""response-fixation""></div>
            <div id=""bar"" class=""rotating-bar""></div>
          </div>
        </div>
      ","Enter","html-keyboard-response","17","2.1.0","100208","white","","","","","","","","","","","","","","","","","","","","","","","","","","","","","","","","","","","","","","","","","","113","","-43","133","20","5","338",""
"null","
          <p style=""color: #00FF00;"">Your reward: 5 points</p>
        ","null","html-keyboard-response","18","2.1.0","102210","","","","","","","","","","","","","","","","","","","","","","","","","","","","","","","","","","","","","","","","","","","","","","","","","",""
"null","<div class=""fixation"" style=""font-size: 60px;"">+</div>","null","html-keyboard-response","19","2.1.0","103213","","","","","","","","","","","","","","","","","","","","","","","","","","","","","","","","","","","","","","","","","","","","","","","","","",""
"-1","","","rdk","20","2.0.0","105218","white","0","W_H_vs_B_L_rep16","false","ALL_KEYS","[""a""]","2000","[]","false","2","[100,100]","1","[126,52]","1","0","2","1","-1","1","300","300","[""white"",""black""]","circle","#AAA","3","2","2","16.891666666666666","[9,17,17,16,17,17,17,17,17,17,17,17,17,17,17,17,17,17,17,17,17,17,17,17,17,17,17,17,17,17,17,17,17,17,17,17,17,17,17,17,17,17,17,17,17,17,17,17,17,17,17,17,17,16,16,17,17,17,17,17,17,17,17,17,17,17,17,17,17,17,17,17,17,17,17,17,17,17,17,17,17,17,17,17,17,17,17,17,17,17,17,17,17,17,17,17,17,17,17,17,17,17,17,17,17,17,17,17,17,17,16,17,17,17,17,16,17,17,17,17]","120","735","461.5","true","15","15","#111","1","true","2","transparent","1470","923","126","52","","","","","",""
"4003","
        <div class=""response-container"">
          <div class=""response-instruction"">
            <p>rotate the bar by using the left and right arrow keys.</p>
            <p>when you are determined, press the Enter key.</p>
          </div>
          <div class=""response-circle"">
            <div class=""response-fixation""></div>
            <div id=""bar"" class=""rotating-bar""></div>
          </div>
        </div>
      ","Enter","html-keyboard-response","21","2.1.0","109222","white","","","","","","","","","","","","","","","","","","","","","","","","","","","","","","","","","","","","","","","","","","126","","-80","170","44","0","338",""
"null","
          <p style=""color: #FF3333;"">Your reward: 0 points</p>
        ","null","html-keyboard-response","22","2.1.0","111225","","","","","","","","","","","","","","","","","","","","","","","","","","","","","","","","","","","","","","","","","","","","","","","","","",""
"null","<div class=""fixation"" style=""font-size: 60px;"">+</div>","null","html-keyboard-response","23","2.1.0","112228","","","","","","","","","","","","","","","","","","","","","","","","","","","","","","","","","","","","","","","","","","","","","","","","","",""
"-1","","","rdk","24","2.0.0","114231","black","0","B_H_vs_W_L_rep4","false","ALL_KEYS","[""a""]","2000","[]","false","2","[100,100]","1","[214,282]","1","0","2","1","-1","1","300","300","[""black"",""white""]","circle","#AAA","3","2","2","16.85","[12,16,17,16,18,16,18,16,17,17,17,17,17,16,17,17,17,17,16,17,17,17,17,17,17,17,16,16,17,17,17,17,17,16,18,17,17,17,17,17,16,17,16,17,17,17,16,17,17,17,16,18,17,17,17,17,17,17,17,17,17,16,17,17,17,17,17,17,17,17,17,17,17,17,17,16,18,17,15,18,16,18,16,17,18,16,17,17,16,18,17,17,17,17,17,17,16,18,17,17,17,17,16,17,17,17,16,18,17,17,17,17,17,17,17,16,18,17,17,17]","120","735","461.5","true","15","15","#111","1","true","2","transparent","1470","923","214","282","","","","","",""
"2093","
        <div class=""response-container"">
          <div class=""response-instruction"">
            <p>rotate the bar by using the left and right arrow keys.</p>
            <p>when you are determined, press the Enter key.</p>
          </div>
          <div class=""response-circle"">
            <div class=""response-fixation""></div>
            <div id=""bar"" class=""rotating-bar""></div>
          </div>
        </div>
      ","Enter","html-keyboard-response","25","2.1.0","116326","black","","","","","","","","","","","","","","","","","","","","","","","","","","","","","","","","","","","","","","","","","","214","","235","215","1","9","338",""
"null","
          <p style=""color: #00FF00;"">Your reward: 9 points</p>
        ","null","html-keyboard-response","26","2.1.0","118329","","","","","","","","","","","","","","","","","","","","","","","","","","","","","","","","","","","","","","","","","","","","","","","","","",""
"null","<div class=""fixation"" style=""font-size: 60px;"">+</div>","null","html-keyboard-response","27","2.1.0","119331","","","","","","","","","","","","","","","","","","","","","","","","","","","","","","","","","","","","","","","","","","","","","","","","","",""
"-1","","","rdk","28","2.0.0","121335","black","0","B_H_vs_W_L_rep5","false","ALL_KEYS","[""a""]","2000","[]","false","2","[100,100]","1","[200,285]","1","0","2","1","-1","1","300","300","[""black"",""white""]","circle","#AAA","3","2","2","16.825","[7,18,17,17,17,17,17,17,17,16,18,17,17,17,17,16,16,18,17,17,17,16,17,17,17,17,17,17,17,17,17,17,17,17,17,17,17,17,17,17,17,17,17,17,17,17,17,16,17,17,17,16,16,18,17,17,17,17,17,16,17,17,17,17,17,17,17,17,17,16,18,17,16,17,17,17,17,17,17,17,17,16,17,17,17,17,17,16,17,16,17,17,17,17,17,17,16,17,17,17,17,17,17,16,17,17,16,17,17,17,17,17,17,17,17,17,17,17,17,17]","120","735","461.5","true","15","15","#111","1","true","2","transparent","1470","923","200","285","","","","","",""
"2739","
        <div class=""response-container"">
          <div class=""response-instruction"">
            <p>rotate the bar by using the left and right arrow keys.</p>
            <p>when you are determined, press the Enter key.</p>
          </div>
          <div class=""response-circle"">
            <div class=""response-fixation""></div>
            <div id=""bar"" class=""rotating-bar""></div>
          </div>
        </div>
      ","Enter","html-keyboard-response","29","2.1.0","124075","black","","","","","","","","","","","","","","","","","","","","","","","","","","","","","","","","","","","","","","","","","","200","","245","205","5","8","338",""
"null","
          <p style=""color: #00FF00;"">Your reward: 8 points</p>
        ","null","html-keyboard-response","30","2.1.0","126078","","","","","","","","","","","","","","","","","","","","","","","","","","","","","","","","","","","","","","","","","","","","","","","","","",""
"null","<div class=""fixation"" style=""font-size: 60px;"">+</div>","null","html-keyboard-response","31","2.1.0","127081","","","","","","","","","","","","","","","","","","","","","","","","","","","","","","","","","","","","","","","","","","","","","","","","","",""
"-1","","","rdk","32","2.0.0","129086","black","1","B_H_vs_W_L_rep11","false","ALL_KEYS","[""a""]","2000","[]","false","2","[100,100]","1","[280,232]","1","0","2","1","-1","1","300","300","[""white"",""black""]","circle","#AAA","3","2","2","16.841666666666665","[9,17,17,17,17,17,17,16,17,16,17,17,17,17,16,18,17,16,16,17,17,17,17,17,17,17,17,17,16,16,18,17,17,17,17,17,16,17,17,17,17,17,17,17,17,17,17,17,17,17,17,16,17,17,17,17,17,17,17,16,18,17,17,17,17,17,17,17,17,16,17,17,17,17,17,17,17,17,17,17,17,17,17,17,17,17,17,17,16,17,17,17,17,17,17,17,17,17,17,17,17,17,17,17,17,17,17,17,16,16,18,17,17,17,17,17,17,17,17,16]","120","735","461.5","true","15","15","#111","1","true","2","transparent","1470","923","232","280","","","","","",""
"2506","
        <div class=""response-container"">
          <div class=""response-instruction"">
            <p>rotate the bar by using the left and right arrow keys.</p>
            <p>when you are determined, press the Enter key.</p>
          </div>
          <div class=""response-circle"">
            <div class=""response-fixation""></div>
            <div id=""bar"" class=""rotating-bar""></div>
          </div>
        </div>
      ","Enter","html-keyboard-response","33","2.1.0","131593","black","","","","","","","","","","","","","","","","","","","","","","","","","","","","","","","","","","","","","","","","","","232","","239","211","-21","5","338",""
"null","
          <p style=""color: #00FF00;"">Your reward: 5 points</p>
        ","null","html-keyboard-response","34","2.1.0","133595","","","","","","","","","","","","","","","","","","","","","","","","","","","","","","","","","","","","","","","","","","","","","","","","","",""
"null","<div class=""fixation"" style=""font-size: 60px;"">+</div>","null","html-keyboard-response","35","2.1.0","134598","","","","","","","","","","","","","","","","","","","","","","","","","","","","","","","","","","","","","","","","","","","","","","","","","",""
"-1","","","rdk","36","2.0.0","136603","white","1","W_H_vs_B_L_rep5","false","ALL_KEYS","[""a""]","2000","[]","false","2","[100,100]","1","[38,118]","1","0","2","1","-1","1","300","300","[""black"",""white""]","circle","#AAA","3","2","2","16.825","[8,17,17,17,16,17,17,17,17,17,17,16,17,16,17,17,17,16,17,17,17,17,17,17,17,17,17,17,16,17,17,16,17,17,17,17,17,17,17,16,17,17,17,17,17,17,17,17,17,17,17,17,17,17,17,17,17,16,17,17,17,17,17,17,16,17,17,17,17,17,17,17,17,17,17,17,17,17,17,17,17,17,17,17,17,17,17,17,16,18,17,17,17,17,17,17,17,17,17,16,17,17,17,17,17,17,17,17,17,16,17,16,17,17,17,17,17,16,18,17]","120","735","461.5","true","15","15","#111","1","true","2","transparent","1470","923","118","38","","","","","",""
"3048","
        <div class=""response-container"">
          <div class=""response-instruction"">
            <p>rotate the bar by using the left and right arrow keys.</p>
            <p>when you are determined, press the Enter key.</p>
          </div>
          <div class=""response-circle"">
            <div class=""response-fixation""></div>
            <div id=""bar"" class=""rotating-bar""></div>
          </div>
        </div>
      ","Enter","html-keyboard-response","37","2.1.0","139652","white","","","","","","","","","","","","","","","","","","","","","","","","","","","","","","","","","","","","","","","","","","118","","-40","130","12","7","338",""
"null","
          <p style=""color: #00FF00;"">Your reward: 7 points</p>
        ","null","html-keyboard-response","38","2.1.0","141655","","","","","","","","","","","","","","","","","","","","","","","","","","","","","","","","","","","","","","","","","","","","","","","","","",""
"null","<div class=""fixation"" style=""font-size: 60px;"">+</div>","null","html-keyboard-response","39","2.1.0","142658","","","","","","","","","","","","","","","","","","","","","","","","","","","","","","","","","","","","","","","","","","","","","","","","","",""
"-1","","","rdk","40","2.0.0","144661","white","1","W_H_vs_B_L_rep2","false","ALL_KEYS","[""a""]","2000","[]","false","2","[100,100]","1","[31,116]","1","0","2","1","-1","1","300","300","[""black"",""white""]","circle","#AAA","3","2","2","16.916666666666668","[15,17,17,17,17,17,17,16,17,17,17,17,17,17,17,17,17,17,16,18,17,16,17,17,16,18,17,16,16,18,16,18,17,17,17,16,17,17,17,17,17,17,17,17,17,17,17,17,17,17,17,17,17,16,16,18,17,16,17,17,17,17,17,17,17,17,17,17,17,16,18,17,17,17,17,17,16,17,17,17,17,17,17,17,17,17,17,17,17,16,17,17,17,17,17,17,17,17,17,17,17,17,17,17,17,17,17,17,17,17,17,17,17,17,16,18,17,17,17,17]","120","735","461.5","true","15","15","#111","1","true","2","transparent","1470","923","116","31","","","","","",""
"3097","
        <div class=""response-container"">
          <div class=""response-instruction"">
            <p>rotate the bar by using the left and right arrow keys.</p>
            <p>when you are determined, press the Enter key.</p>
          </div>
          <div class=""response-circle"">
            <div class=""response-fixation""></div>
            <div id=""bar"" class=""rotating-bar""></div>
          </div>
        </div>
      ","Enter","html-keyboard-response","41","2.1.0","147760","white","","","","","","","","","","","","","","","","","","","","","","","","","","","","","","","","","","","","","","","","","","116","","445","5","-26","0","338",""
"null","
          <p style=""color: #FF3333;"">Your reward: 0 points</p>
        ","null","html-keyboard-response","42","2.1.0","149762","","","","","","","","","","","","","","","","","","","","","","","","","","","","","","","","","","","","","","","","","","","","","","","","","",""
"null","<div class=""fixation"" style=""font-size: 60px;"">+</div>","null","html-keyboard-response","43","2.1.0","150765","","","","","","","","","","","","","","","","","","","","","","","","","","","","","","","","","","","","","","","","","","","","","","","","","",""
"-1","","","rdk","44","2.0.0","152770","black","0","B_H_vs_W_L_rep15","false","ALL_KEYS","[""a""]","2000","[]","false","2","[100,100]","1","[226,304]","1","0","2","1","-1","1","300","300","[""black"",""white""]","circle","#AAA","3","2","2","16.858333333333334","[7,16,18,16,18,17,17,17,17,17,16,17,17,17,17,17,17,17,17,17,17,17,17,16,18,17,17,17,17,16,17,17,17,17,17,17,17,17,17,17,17,17,17,17,17,17,17,16,17,17,17,17,17,17,17,16,17,17,17,17,17,17,17,17,17,17,17,17,17,17,17,17,17,16,17,17,16,18,16,18,17,17,17,17,17,17,17,17,17,16,16,18,17,17,17,17,17,17,17,17,17,17,17,17,17,17,17,16,18,17,17,17,17,17,17,16,17,17,17,17]","120","735","461.5","true","15","15","#111","1","true","2","transparent","1470","923","226","304","","","","","",""
"2677","
        <div class=""response-container"">
          <div class=""response-instruction"">
            <p>rotate the bar by using the left and right arrow keys.</p>
            <p>when you are determined, press the Enter key.</p>
          </div>
          <div class=""response-circle"">
            <div class=""response-fixation""></div>
            <div id=""bar"" class=""rotating-bar""></div>
          </div>
        </div>
      ","Enter","html-keyboard-response","45","2.1.0","155447","black","","","","","","","","","","","","","","","","","","","","","","","","","","","","","","","","","","","","","","","","","","226","","232","218","-8","8","338",""
"null","
          <p style=""color: #00FF00;"">Your reward: 8 points</p>
        ","null","html-keyboard-response","46","2.1.0","157450","","","","","","","","","","","","","","","","","","","","","","","","","","","","","","","","","","","","","","","","","","","","","","","","","",""
"null","<div class=""fixation"" style=""font-size: 60px;"">+</div>","null","html-keyboard-response","47","2.1.0","158453","","","","","","","","","","","","","","","","","","","","","","","","","","","","","","","","","","","","","","","","","","","","","","","","","",""
"-1","","","rdk","48","2.0.0","160458","black","1","B_H_vs_W_L_rep9","false","ALL_KEYS","[""a""]","2000","[]","false","2","[100,100]","1","[294,208]","1","0","2","1","-1","1","300","300","[""white"",""black""]","circle","#AAA","3","2","2","16.907563025210084","[20,17,16,17,16,16,17,18,17,17,17,17,17,17,16,17,17,17,17,17,17,17,16,17,17,17,16,17,16,17,17,17,17,17,17,17,17,17,16,17,17,17,17,17,17,17,17,16,17,17,17,17,17,17,17,17,17,17,17,17,17,16,17,16,17,17,16,18,17,17,17,17,17,16,17,17,17,16,17,17,17,17,17,17,17,17,17,16,17,17,17,17,17,17,17,17,16,17,17,17,17,17,17,17,17,17,17,16,18,17,16,18,17,16,18,17,17,17,17]","119","735","461.5","true","15","15","#111","1","true","2","transparent","1470","923","208","294","","","","","",""
"4203","
        <div class=""response-container"">
          <div class=""response-instruction"">
            <p>rotate the bar by using the left and right arrow keys.</p>
            <p>when you are determined, press the Enter key.</p>
          </div>
          <div class=""response-circle"">
            <div class=""response-fixation""></div>
            <div id=""bar"" class=""rotating-bar""></div>
          </div>
        </div>
      ","Enter","html-keyboard-response","49","2.1.0","164663","black","","","","","","","","","","","","","","","","","","","","","","","","","","","","","","","","","","","","","","","","","","208","","-120","210","2","9","338",""
"null","
          <p style=""color: #00FF00;"">Your reward: 9 points</p>
        ","null","html-keyboard-response","50","2.1.0","166665","","","","","","","","","","","","","","","","","","","","","","","","","","","","","","","","","","","","","","","","","","","","","","","","","",""
"null","<div class=""fixation"" style=""font-size: 60px;"">+</div>","null","html-keyboard-response","51","2.1.0","167668","","","","","","","","","","","","","","","","","","","","","","","","","","","","","","","","","","","","","","","","","","","","","","","","","",""
"-1","","","rdk","52","2.0.0","169678","black","0","B_H_vs_W_L_rep1","false","ALL_KEYS","[""a""]","2000","[]","false","2","[100,100]","1","[202,284]","1","0","2","1","-1","1","300","300","[""black"",""white""]","circle","#AAA","3","2","2","16.891666666666666","[15,17,17,17,17,17,17,17,16,17,17,16,18,17,17,17,17,17,16,17,17,17,17,16,17,17,17,17,16,17,17,17,17,17,16,17,17,16,17,17,17,17,17,17,17,17,17,17,17,17,17,17,17,17,17,17,17,17,17,16,17,16,17,17,17,17,17,17,17,17,17,17,17,17,17,16,17,17,16,17,17,17,17,17,17,17,17,17,17,17,17,17,17,17,16,17,17,17,17,17,17,17,17,17,17,17,17,17,16,18,17,17,17,17,17,17,17,17,17,17]","120","735","461.5","true","15","15","#111","1","true","2","transparent","1470","923","202","284","","","","","",""
"2536","
        <div class=""response-container"">
          <div class=""response-instruction"">
            <p>rotate the bar by using the left and right arrow keys.</p>
            <p>when you are determined, press the Enter key.</p>
          </div>
          <div class=""response-circle"">
            <div class=""response-fixation""></div>
            <div id=""bar"" class=""rotating-bar""></div>
          </div>
        </div>
      ","Enter","html-keyboard-response","53","2.1.0","172215","black","","","","","","","","","","","","","","","","","","","","","","","","","","","","","","","","","","","","","","","","","","202","","260","190","-12","7","338",""
"null","
          <p style=""color: #00FF00;"">Your reward: 7 points</p>
        ","null","html-keyboard-response","54","2.1.0","174217","","","","","","","","","","","","","","","","","","","","","","","","","","","","","","","","","","","","","","","","","","","","","","","","","",""
"null","<div class=""fixation"" style=""font-size: 60px;"">+</div>","null","html-keyboard-response","55","2.1.0","175219","","","","","","","","","","","","","","","","","","","","","","","","","","","","","","","","","","","","","","","","","","","","","","","","","",""
"-1","","","rdk","56","2.0.0","177224","white","0","W_H_vs_B_L_rep10","false","ALL_KEYS","[""a""]","2000","[]","false","2","[100,100]","1","[136,46]","1","0","2","1","-1","1","300","300","[""white"",""black""]","circle","#AAA","3","2","2","16.949579831932773","[20,17,17,17,17,17,17,17,17,17,17,16,16,17,17,16,17,17,17,17,17,17,17,17,17,17,17,16,16,18,17,17,17,17,17,16,17,16,17,17,17,17,16,17,17,17,17,17,17,17,17,17,17,17,17,17,17,17,17,16,18,17,17,17,17,17,17,17,17,17,17,17,17,17,17,17,17,17,17,17,16,17,17,17,16,18,17,17,17,17,16,17,17,17,17,17,17,17,17,17,17,17,17,17,17,17,17,17,17,17,17,17,17,17,17,17,17,17,17]","119","735","461.5","true","15","15","#111","1","true","2","transparent","1470","923","136","46","","","","","",""
"4959","
        <div class=""response-container"">
          <div class=""response-instruction"">
            <p>rotate the bar by using the left and right arrow keys.</p>
            <p>when you are determined, press the Enter key.</p>
          </div>
          <div class=""response-circle"">
            <div class=""response-fixation""></div>
            <div id=""bar"" class=""rotating-bar""></div>
          </div>
        </div>
      ","Enter","html-keyboard-response","57","2.1.0","182185","white","","","","","","","","","","","","","","","","","","","","","","","","","","","","","","","","","","","","","","","","","","136","","275","175","39","1","338",""
"null","
          <p style=""color: #FF3333;"">Your reward: 1 points</p>
        ","null","html-keyboard-response","58","2.1.0","184187","","","","","","","","","","","","","","","","","","","","","","","","","","","","","","","","","","","","","","","","","","","","","","","","","",""
"null","<div class=""fixation"" style=""font-size: 60px;"">+</div>","null","html-keyboard-response","59","2.1.0","185190","","","","","","","","","","","","","","","","","","","","","","","","","","","","","","","","","","","","","","","","","","","","","","","","","",""
"-1","","","rdk","60","2.0.0","187194","white","0","W_H_vs_B_L_rep11","false","ALL_KEYS","[""a""]","2000","[]","false","2","[100,100]","1","[141,52]","1","0","2","1","-1","1","300","300","[""white"",""black""]","circle","#AAA","3","2","2","16.891666666666666","[17,17,17,16,17,17,17,17,17,17,17,17,16,17,17,17,16,18,17,17,17,16,17,17,17,17,17,17,17,17,17,17,17,17,17,16,17,16,17,17,17,17,17,17,17,17,17,17,17,17,17,17,17,17,17,17,17,17,17,17,17,17,16,17,17,16,18,17,17,17,17,16,18,17,17,17,17,17,17,17,17,17,17,17,16,17,17,16,17,16,17,17,16,17,17,17,17,17,17,17,17,17,16,18,16,17,17,17,16,17,17,16,17,17,17,17,17,17,17,17]","120","735","461.5","true","15","15","#111","1","true","2","transparent","1470","923","141","52","","","","","",""
"2291","
        <div class=""response-container"">
          <div class=""response-instruction"">
            <p>rotate the bar by using the left and right arrow keys.</p>
            <p>when you are determined, press the Enter key.</p>
          </div>
          <div class=""response-circle"">
            <div class=""response-fixation""></div>
            <div id=""bar"" class=""rotating-bar""></div>
          </div>
        </div>
      ","Enter","html-keyboard-response","61","2.1.0","189486","white","","","","","","","","","","","","","","","","","","","","","","","","","","","","","","","","","","","","","","","","","","141","","80","10","-42","0","338",""
"null","
          <p style=""color: #FF3333;"">Your reward: 0 points</p>
        ","null","html-keyboard-response","62","2.1.0","191489","","","","","","","","","","","","","","","","","","","","","","","","","","","","","","","","","","","","","","","","","","","","","","","","","",""
"null","<div class=""fixation"" style=""font-size: 60px;"">+</div>","null","html-keyboard-response","63","2.1.0","192491","","","","","","","","","","","","","","","","","","","","","","","","","","","","","","","","","","","","","","","","","","","","","","","","","",""
"-1","","","rdk","64","2.0.0","194495","white","0","W_H_vs_B_L_rep8","false","ALL_KEYS","[""a""]","2000","[]","false","2","[100,100]","1","[102,39]","1","0","2","1","-1","1","300","300","[""white"",""black""]","circle","#AAA","3","2","2","16.875","[14,17,17,16,16,17,17,16,17,17,17,16,18,17,17,17,17,17,17,17,17,17,17,17,17,17,16,17,17,17,17,17,17,17,17,17,17,17,16,17,17,17,17,17,16,17,17,17,17,16,17,17,17,17,17,17,17,17,17,17,17,17,17,17,17,17,16,18,17,17,17,16,17,17,17,17,17,16,17,16,17,17,17,17,17,17,17,17,17,17,17,17,17,17,17,17,17,17,17,17,17,17,17,17,16,17,16,17,17,17,17,17,17,17,17,17,17,17,17,17]","120","735","461.5","true","15","15","#111","1","true","2","transparent","1470","923","102","39","","","","","",""
"3366","
        <div class=""response-container"">
          <div class=""response-instruction"">
            <p>rotate the bar by using the left and right arrow keys.</p>
            <p>when you are determined, press the Enter key.</p>
          </div>
          <div class=""response-circle"">
            <div class=""response-fixation""></div>
            <div id=""bar"" class=""rotating-bar""></div>
          </div>
        </div>
      ","Enter","html-keyboard-response","65","2.1.0","197862","white","","","","","","","","","","","","","","","","","","","","","","","","","","","","","","","","","","","","","","","","","","102","","-28","118","16","6","338",""
"null","
          <p style=""color: #00FF00;"">Your reward: 6 points</p>
        ","null","html-keyboard-response","66","2.1.0","199864","","","","","","","","","","","","","","","","","","","","","","","","","","","","","","","","","","","","","","","","","","","","","","","","","",""
"null","<div class=""fixation"" style=""font-size: 60px;"">+</div>","null","html-keyboard-response","67","2.1.0","200867","","","","","","","","","","","","","","","","","","","","","","","","","","","","","","","","","","","","","","","","","","","","","","","","","",""
"-1","","","rdk","68","2.0.0","202873","white","1","W_H_vs_B_L_rep6","false","ALL_KEYS","[""a""]","2000","[]","false","2","[100,100]","1","[47,123]","1","0","2","1","-1","1","300","300","[""black"",""white""]","circle","#AAA","3","2","2","16.932773109243698","[21,17,17,17,17,17,17,17,17,17,17,16,17,17,17,17,17,17,17,17,17,17,16,17,17,17,17,17,17,17,17,17,17,17,17,17,17,17,17,17,16,17,17,17,17,17,17,17,16,17,17,17,17,17,17,17,17,17,17,17,17,17,17,17,17,17,17,17,17,17,17,17,17,17,17,17,16,17,16,17,17,17,16,17,17,17,17,17,17,16,17,17,17,17,17,17,17,17,17,17,17,16,17,17,17,17,17,17,16,17,17,17,16,17,17,17,16,17,17]","119","735","461.5","true","15","15","#111","1","true","2","transparent","1470","923","123","47","","","","","",""
"3746","
        <div class=""response-container"">
          <div class=""response-instruction"">
            <p>rotate the bar by using the left and right arrow keys.</p>
            <p>when you are determined, press the Enter key.</p>
          </div>
          <div class=""response-circle"">
            <div class=""response-fixation""></div>
            <div id=""bar"" class=""rotating-bar""></div>
          </div>
        </div>
      ","Enter","html-keyboard-response","69","2.1.0","206620","white","","","","","","","","","","","","","","","","","","","","","","","","","","","","","","","","","","","","","","","","","","123","","80","10","-37","0","338",""
"null","
          <p style=""color: #FF3333;"">Your reward: 0 points</p>
        ","null","html-keyboard-response","70","2.1.0","208622","","","","","","","","","","","","","","","","","","","","","","","","","","","","","","","","","","","","","","","","","","","","","","","","","",""
"null","<div class=""fixation"" style=""font-size: 60px;"">+</div>","null","html-keyboard-response","71","2.1.0","209625","","","","","","","","","","","","","","","","","","","","","","","","","","","","","","","","","","","","","","","","","","","","","","","","","",""
"-1","","","rdk","72","2.0.0","211628","white","0","W_H_vs_B_L_rep7","false","ALL_KEYS","[""a""]","2000","[]","false","2","[100,100]","1","[134,50]","1","0","2","1","-1","1","300","300","[""white"",""black""]","circle","#AAA","3","2","2","16.883333333333333","[14,17,17,17,17,17,17,17,17,17,17,17,16,17,17,16,17,17,17,17,17,17,17,16,18,16,17,17,16,17,17,17,17,17,17,17,17,17,17,17,17,17,17,17,17,17,17,17,17,17,16,17,17,17,17,17,17,17,17,17,17,16,17,16,16,17,17,17,17,17,17,17,17,17,17,17,17,17,17,17,17,17,17,17,17,17,17,17,17,17,17,17,17,17,17,17,17,16,17,17,17,17,17,17,17,17,17,16,17,17,17,17,17,17,17,17,17,17,16,17]","120","735","461.5","true","15","15","#111","1","true","2","transparent","1470","923","134","50","","","","","",""
"4718","
        <div class=""response-container"">
          <div class=""response-instruction"">
            <p>rotate the bar by using the left and right arrow keys.</p>
            <p>when you are determined, press the Enter key.</p>
          </div>
          <div class=""response-circle"">
            <div class=""response-fixation""></div>
            <div id=""bar"" class=""rotating-bar""></div>
          </div>
        </div>
      ","Enter","html-keyboard-response","73","2.1.0","216348","white","","","","","","","","","","","","","","","","","","","","","","","","","","","","","","","","","","","","","","","","","","134","","447","3","-47","0","338",""
"null","
          <p style=""color: #FF3333;"">Your reward: 0 points</p>
        ","null","html-keyboard-response","74","2.1.0","218350","","","","","","","","","","","","","","","","","","","","","","","","","","","","","","","","","","","","","","","","","","","","","","","","","",""
"null","<div class=""fixation"" style=""font-size: 60px;"">+</div>","null","html-keyboard-response","75","2.1.0","219353","","","","","","","","","","","","","","","","","","","","","","","","","","","","","","","","","","","","","","","","","","","","","","","","","",""
"-1","","","rdk","76","2.0.0","221358","black","0","B_H_vs_W_L_rep12","false","ALL_KEYS","[""a""]","2000","[]","false","2","[100,100]","1","[196,281]","1","0","2","1","-1","1","300","300","[""black"",""white""]","circle","#AAA","3","2","2","16.96638655462185","[20,17,17,17,17,16,17,17,17,17,17,17,17,17,17,17,17,17,17,16,17,17,17,17,16,17,17,17,17,17,17,17,17,17,17,17,17,17,17,17,17,17,17,17,16,18,17,17,17,17,17,17,17,17,17,17,17,17,17,17,17,17,17,17,17,17,17,17,17,17,17,17,16,17,17,17,17,17,17,16,18,17,17,17,17,17,17,16,17,17,17,17,17,17,17,17,17,17,17,17,17,17,16,17,17,17,17,17,17,17,17,17,17,17,17,17,17,16,17]","119","735","461.5","true","15","15","#111","1","true","2","transparent","1470","923","196","281","","","","","",""
"3554","
        <div class=""response-container"">
          <div class=""response-instruction"">
            <p>rotate the bar by using the left and right arrow keys.</p>
            <p>when you are determined, press the Enter key.</p>
          </div>
          <div class=""response-circle"">
            <div class=""response-fixation""></div>
            <div id=""bar"" class=""rotating-bar""></div>
          </div>
        </div>
      ","Enter","html-keyboard-response","77","2.1.0","224912","black","","","","","","","","","","","","","","","","","","","","","","","","","","","","","","","","","","","","","","","","","","196","","262","188","-8","8","338",""
"null","
          <p style=""color: #00FF00;"">Your reward: 8 points</p>
        ","null","html-keyboard-response","78","2.1.0","226915","","","","","","","","","","","","","","","","","","","","","","","","","","","","","","","","","","","","","","","","","","","","","","","","","",""
"null","<div class=""fixation"" style=""font-size: 60px;"">+</div>","null","html-keyboard-response","79","2.1.0","227917","","","","","","","","","","","","","","","","","","","","","","","","","","","","","","","","","","","","","","","","","","","","","","","","","",""
"-1","","","rdk","80","2.0.0","229922","black","0","B_H_vs_W_L_rep6","false","ALL_KEYS","[""a""]","2000","[]","false","2","[100,100]","1","[208,284]","1","0","2","1","-1","1","300","300","[""black"",""white""]","circle","#AAA","3","2","2","16.932773109243698","[22,17,17,17,17,17,17,17,17,17,17,17,17,17,17,17,17,17,17,17,17,17,17,17,17,17,17,16,16,17,17,16,17,17,17,17,17,16,17,17,17,17,17,17,17,16,17,17,17,17,17,16,18,17,17,16,18,17,17,17,17,17,17,16,17,17,16,17,17,17,17,17,16,17,17,17,16,17,17,17,17,17,17,17,17,17,17,17,16,18,17,17,17,16,17,17,17,17,17,17,17,17,17,17,17,16,16,17,17,17,17,16,17,17,17,17,17,17,17]","119","735","461.5","true","15","15","#111","1","true","2","transparent","1470","923","208","284","","","","","",""
"3637","
        <div class=""response-container"">
          <div class=""response-instruction"">
            <p>rotate the bar by using the left and right arrow keys.</p>
            <p>when you are determined, press the Enter key.</p>
          </div>
          <div class=""response-circle"">
            <div class=""response-fixation""></div>
            <div id=""bar"" class=""rotating-bar""></div>
          </div>
        </div>
      ","Enter","html-keyboard-response","81","2.1.0","233559","black","","","","","","","","","","","","","","","","","","","","","","","","","","","","","","","","","","","","","","","","","","208","","-111","201","-7","8","338",""
"null","
          <p style=""color: #00FF00;"">Your reward: 8 points</p>
        ","null","html-keyboard-response","82","2.1.0","235562","","","","","","","","","","","","","","","","","","","","","","","","","","","","","","","","","","","","","","","","","","","","","","","","","",""
"null","<div class=""fixation"" style=""font-size: 60px;"">+</div>","null","html-keyboard-response","83","2.1.0","236564","","","","","","","","","","","","","","","","","","","","","","","","","","","","","","","","","","","","","","","","","","","","","","","","","",""
"-1","","","rdk","84","2.0.0","238566","white","1","W_H_vs_B_L_rep14","false","ALL_KEYS","[""a""]","2000","[]","false","2","[100,100]","1","[40,122]","1","0","2","1","-1","1","300","300","[""black"",""white""]","circle","#AAA","3","2","2","16.875","[9,17,17,17,17,17,17,17,17,17,17,17,17,17,17,17,16,17,17,17,17,17,17,17,16,17,17,17,16,17,16,17,17,17,17,17,17,17,17,17,17,17,17,17,17,17,17,17,17,17,17,17,17,17,17,17,17,17,17,16,18,17,17,17,17,17,17,15,18,17,17,17,17,17,17,17,17,17,17,17,17,17,17,17,17,17,17,17,17,17,17,17,17,17,17,17,17,17,17,17,17,16,17,17,17,17,17,17,16,18,17,17,17,17,17,17,17,17,17,16]","120","735","461.5","true","15","15","#111","1","true","2","transparent","1470","923","122","40","","","","","",""
"8898","
        <div class=""response-container"">
          <div class=""response-instruction"">
            <p>rotate the bar by using the left and right arrow keys.</p>
            <p>when you are determined, press the Enter key.</p>
          </div>
          <div class=""response-circle"">
            <div class=""response-fixation""></div>
            <div id=""bar"" class=""rotating-bar""></div>
          </div>
        </div>
      ","Enter","html-keyboard-response","85","2.1.0","247466","white","","","","","","","","","","","","","","","","","","","","","","","","","","","","","","","","","","","","","","","","","","122","","92","358","-42","0","338",""
"null","
          <p style=""color: #FF3333;"">Your reward: 0 points</p>
        ","null","html-keyboard-response","86","2.1.0","249467","","","","","","","","","","","","","","","","","","","","","","","","","","","","","","","","","","","","","","","","","","","","","","","","","",""
"null","<div class=""fixation"" style=""font-size: 60px;"">+</div>","null","html-keyboard-response","87","2.1.0","250469","","","","","","","","","","","","","","","","","","","","","","","","","","","","","","","","","","","","","","","","","","","","","","","","","",""
"-1","","","rdk","88","2.0.0","252474","black","0","B_H_vs_W_L_rep3","false","ALL_KEYS","[""a""]","2000","[]","false","2","[100,100]","1","[216,292]","1","0","2","1","-1","1","300","300","[""black"",""white""]","circle","#AAA","3","2","2","16.95798319327731","[20,17,17,17,17,17,17,17,17,17,17,17,16,17,17,16,17,16,17,17,17,16,17,17,17,17,17,17,17,17,17,17,17,17,17,17,17,17,17,17,17,17,17,17,17,17,17,17,17,17,17,17,17,17,17,17,17,17,17,17,17,17,17,17,17,17,17,17,17,17,17,17,17,17,17,17,17,16,17,17,17,17,17,17,17,17,17,17,17,17,17,17,17,17,17,16,17,16,17,17,17,17,16,17,17,17,17,17,17,17,17,17,17,17,17,17,17,17,17]","119","735","461.5","true","15","15","#111","1","true","2","transparent","1470","923","216","292","","","","","",""
"1549","
        <div class=""response-container"">
          <div class=""response-instruction"">
            <p>rotate the bar by using the left and right arrow keys.</p>
            <p>when you are determined, press the Enter key.</p>
          </div>
          <div class=""response-circle"">
            <div class=""response-fixation""></div>
            <div id=""bar"" class=""rotating-bar""></div>
          </div>
        </div>
      ","Enter","html-keyboard-response","89","2.1.0","254024","black","","","","","","","","","","","","","","","","","","","","","","","","","","","","","","","","","","","","","","","","","","216","","237","213","-3","9","338",""
"null","
          <p style=""color: #00FF00;"">Your reward: 9 points</p>
        ","null","html-keyboard-response","90","2.1.0","256027","","","","","","","","","","","","","","","","","","","","","","","","","","","","","","","","","","","","","","","","","","","","","","","","","",""
"null","<div class=""fixation"" style=""font-size: 60px;"">+</div>","null","html-keyboard-response","91","2.1.0","257029","","","","","","","","","","","","","","","","","","","","","","","","","","","","","","","","","","","","","","","","","","","","","","","","","",""
"-1","","","rdk","92","2.0.0","259033","black","0","B_H_vs_W_L_rep16","false","ALL_KEYS","[""a""]","2000","[]","false","2","[100,100]","1","[225,289]","1","0","2","1","-1","1","300","300","[""black"",""white""]","circle","#AAA","3","2","2","16.875","[9,17,17,17,17,17,17,17,17,17,17,17,17,16,17,17,17,17,17,17,17,17,17,17,17,17,17,17,17,16,18,17,17,17,17,17,17,17,17,16,17,17,17,17,17,17,17,17,17,17,17,17,17,17,17,17,17,17,17,16,17,17,17,17,17,17,17,17,17,17,17,17,17,16,17,17,17,16,17,17,17,16,17,17,17,17,17,17,17,17,17,17,17,17,17,17,17,17,17,16,17,17,17,17,17,17,17,17,17,17,17,17,17,17,17,17,17,17,17,17]","120","735","461.5","true","15","15","#111","1","true","2","transparent","1470","923","225","289","","","","","",""
"1243","
        <div class=""response-container"">
          <div class=""response-instruction"">
            <p>rotate the bar by using the left and right arrow keys.</p>
            <p>when you are determined, press the Enter key.</p>
          </div>
          <div class=""response-circle"">
            <div class=""response-fixation""></div>
            <div id=""bar"" class=""rotating-bar""></div>
          </div>
        </div>
      ","Enter","html-keyboard-response","93","2.1.0","260276","black","","","","","","","","","","","","","","","","","","","","","","","","","","","","","","","","","","","","","","","","","","225","","243","207","-18","6","338",""
"null","
          <p style=""color: #00FF00;"">Your reward: 6 points</p>
        ","null","html-keyboard-response","94","2.1.0","262278","","","","","","","","","","","","","","","","","","","","","","","","","","","","","","","","","","","","","","","","","","","","","","","","","",""
"null","<div class=""fixation"" style=""font-size: 60px;"">+</div>","null","html-keyboard-response","95","2.1.0","263281","","","","","","","","","","","","","","","","","","","","","","","","","","","","","","","","","","","","","","","","","","","","","","","","","",""
"-1","","","rdk","96","2.0.0","265286","black","0","B_H_vs_W_L_rep7","false","ALL_KEYS","[""a""]","2000","[]","false","2","[100,100]","1","[216,302]","1","0","2","1","-1","1","300","300","[""black"",""white""]","circle","#AAA","3","2","2","16.825","[7,17,17,17,17,17,17,17,17,17,17,17,17,17,17,17,17,17,17,17,17,17,17,17,16,17,17,17,17,17,17,17,17,17,17,17,17,17,17,17,17,17,17,16,17,17,16,17,17,16,17,16,17,17,17,17,16,17,17,17,17,17,16,17,17,17,16,17,17,17,17,17,17,17,17,17,17,17,16,18,17,16,18,17,16,17,17,17,17,17,17,17,17,17,17,16,17,17,17,17,17,17,17,17,17,17,16,17,17,17,17,17,17,17,17,17,17,17,17,17]","120","735","461.5","true","15","15","#111","1","true","2","transparent","1470","923","216","302","","","","","",""
"3440","
        <div class=""response-container"">
          <div class=""response-instruction"">
            <p>rotate the bar by using the left and right arrow keys.</p>
            <p>when you are determined, press the Enter key.</p>
          </div>
          <div class=""response-circle"">
            <div class=""response-fixation""></div>
            <div id=""bar"" class=""rotating-bar""></div>
          </div>
        </div>
      ","Enter","html-keyboard-response","97","2.1.0","268727","black","","","","","","","","","","","","","","","","","","","","","","","","","","","","","","","","","","","","","","","","","","216","","248","202","-14","6","338",""
"null","
          <p style=""color: #00FF00;"">Your reward: 6 points</p>
        ","null","html-keyboard-response","98","2.1.0","270730","","","","","","","","","","","","","","","","","","","","","","","","","","","","","","","","","","","","","","","","","","","","","","","","","",""
"null","<div class=""fixation"" style=""font-size: 60px;"">+</div>","null","html-keyboard-response","99","2.1.0","271733","","","","","","","","","","","","","","","","","","","","","","","","","","","","","","","","","","","","","","","","","","","","","","","","","",""
"-1","","","rdk","100","2.0.0","273738","white","1","W_H_vs_B_L_rep9","false","ALL_KEYS","[""a""]","2000","[]","false","2","[100,100]","1","[47,117]","1","0","2","1","-1","1","300","300","[""black"",""white""]","circle","#AAA","3","2","2","16.96638655462185","[22,17,17,17,17,17,17,17,17,17,17,17,17,17,17,17,17,17,16,17,17,17,17,17,17,17,17,17,16,17,17,16,17,17,17,17,17,17,17,17,17,17,17,17,17,17,17,17,16,17,17,16,17,17,17,17,17,17,17,17,17,16,17,17,17,17,17,17,17,17,17,17,17,17,17,17,17,17,17,17,17,17,17,17,16,17,17,17,17,17,17,17,17,17,17,17,17,17,17,17,17,16,17,17,17,17,17,17,17,17,17,17,17,17,17,17,16,17,17]","119","735","461.5","true","15","15","#111","1","true","2","transparent","1470","923","117","47","","","","","",""
"2598","
        <div class=""response-container"">
          <div class=""response-instruction"">
            <p>rotate the bar by using the left and right arrow keys.</p>
            <p>when you are determined, press the Enter key.</p>
          </div>
          <div class=""response-circle"">
            <div class=""response-fixation""></div>
            <div id=""bar"" class=""rotating-bar""></div>
          </div>
        </div>
      ","Enter","html-keyboard-response","101","2.1.0","276337","white","","","","","","","","","","","","","","","","","","","","","","","","","","","","","","","","","","","","","","","","","","117","","-44","134","17","6","338",""
"null","
          <p style=""color: #00FF00;"">Your reward: 6 points</p>
        ","null","html-keyboard-response","102","2.1.0","278339","","","","","","","","","","","","","","","","","","","","","","","","","","","","","","","","","","","","","","","","","","","","","","","","","",""
"null","<div class=""fixation"" style=""font-size: 60px;"">+</div>","null","html-keyboard-response","103","2.1.0","279341","","","","","","","","","","","","","","","","","","","","","","","","","","","","","","","","","","","","","","","","","","","","","","","","","",""
"-1","","","rdk","104","2.0.0","281345","white","0","W_H_vs_B_L_rep3","false","ALL_KEYS","[""a""]","2000","[]","false","2","[100,100]","1","[111,33]","1","0","2","1","-1","1","300","300","[""white"",""black""]","circle","#AAA","3","2","2","16.916666666666668","[14,17,17,17,17,17,17,17,17,17,17,17,17,17,17,17,17,17,17,17,16,17,17,17,17,17,17,17,17,17,17,17,17,17,17,17,17,17,17,17,17,17,17,17,17,17,16,17,17,17,17,17,17,17,16,17,17,17,17,17,16,17,17,17,17,17,17,17,17,17,16,17,17,17,17,17,16,17,17,17,17,17,17,17,17,17,17,17,17,17,17,17,17,17,17,17,17,17,17,17,17,17,17,17,17,17,17,17,17,17,17,17,17,16,17,17,17,17,17,17]","120","735","461.5","true","15","15","#111","1","true","2","transparent","1470","923","111","33","","","","","",""
"3422","
        <div class=""response-container"">
          <div class=""response-instruction"">
            <p>rotate the bar by using the left and right arrow keys.</p>
            <p>when you are determined, press the Enter key.</p>
          </div>
          <div class=""response-circle"">
            <div class=""response-fixation""></div>
            <div id=""bar"" class=""rotating-bar""></div>
          </div>
        </div>
      ","Enter","html-keyboard-response","105","2.1.0","284768","white","","","","","","","","","","","","","","","","","","","","","","","","","","","","","","","","","","","","","","","","","","111","","447","3","-30","0","338",""
"null","
          <p style=""color: #FF3333;"">Your reward: 0 points</p>
        ","null","html-keyboard-response","106","2.1.0","286770","","","","","","","","","","","","","","","","","","","","","","","","","","","","","","","","","","","","","","","","","","","","","","","","","",""
"null","<div class=""fixation"" style=""font-size: 60px;"">+</div>","null","html-keyboard-response","107","2.1.0","287772","","","","","","","","","","","","","","","","","","","","","","","","","","","","","","","","","","","","","","","","","","","","","","","","","",""
"-1","","","rdk","108","2.0.0","289775","white","1","W_H_vs_B_L_rep15","false","ALL_KEYS","[""a""]","2000","[]","false","2","[100,100]","1","[35,106]","1","0","2","1","-1","1","300","300","[""black"",""white""]","circle","#AAA","3","2","2","16.916666666666668","[16,16,17,17,17,17,17,17,17,17,17,17,17,17,17,17,17,17,17,17,17,17,17,16,17,17,17,17,17,17,17,17,17,17,17,17,17,17,17,17,17,17,17,17,17,17,17,17,17,17,17,17,17,17,16,17,17,17,17,17,17,17,17,16,17,17,17,17,17,17,17,17,16,17,17,16,18,17,17,17,17,17,17,17,17,17,17,17,17,17,16,17,17,17,17,17,17,17,17,17,17,17,17,17,17,17,17,16,17,17,17,17,17,17,16,16,17,17,17,17]","120","735","461.5","true","15","15","#111","1","true","2","transparent","1470","923","106","35","","","","","",""
"986","
        <div class=""response-container"">
          <div class=""response-instruction"">
            <p>rotate the bar by using the left and right arrow keys.</p>
            <p>when you are determined, press the Enter key.</p>
          </div>
          <div class=""response-circle"">
            <div class=""response-fixation""></div>
            <div id=""bar"" class=""rotating-bar""></div>
          </div>
        </div>
      ","Enter","html-keyboard-response","109","2.1.0","290762","white","","","","","","","","","","","","","","","","","","","","","","","","","","","","","","","","","","","","","","","","","","106","","325","125","19","5","338",""
"null","
          <p style=""color: #00FF00;"">Your reward: 5 points</p>
        ","null","html-keyboard-response","110","2.1.0","292765","","","","","","","","","","","","","","","","","","","","","","","","","","","","","","","","","","","","","","","","","","","","","","","","","",""
"null","<div class=""fixation"" style=""font-size: 60px;"">+</div>","null","html-keyboard-response","111","2.1.0","293768","","","","","","","","","","","","","","","","","","","","","","","","","","","","","","","","","","","","","","","","","","","","","","","","","",""
"-1","","","rdk","112","2.0.0","295773","white","0","W_H_vs_B_L_rep4","false","ALL_KEYS","[""a""]","2000","[]","false","2","[100,100]","1","[127,40]","1","0","2","1","-1","1","300","300","[""white"",""black""]","circle","#AAA","3","2","2","16.941176470588236","[20,17,17,17,16,17,17,17,17,17,17,17,17,17,16,17,17,17,17,17,17,17,17,17,17,17,16,18,17,17,17,17,17,17,17,17,17,17,17,17,17,17,17,17,17,17,17,17,17,17,17,17,17,17,16,17,17,17,16,17,17,17,17,17,17,17,17,17,17,17,17,17,17,17,17,17,17,17,17,16,18,17,17,17,17,17,16,18,16,18,16,17,18,17,17,16,18,17,17,17,17,15,17,18,16,17,17,16,17,16,17,16,18,17,15,18,17,17,16]","119","735","461.5","true","15","15","#111","1","true","2","transparent","1470","923","127","40","","","","","",""
"4894","
        <div class=""response-container"">
          <div class=""response-instruction"">
            <p>rotate the bar by using the left and right arrow keys.</p>
            <p>when you are determined, press the Enter key.</p>
          </div>
          <div class=""response-circle"">
            <div class=""response-fixation""></div>
            <div id=""bar"" class=""rotating-bar""></div>
          </div>
        </div>
      ","Enter","html-keyboard-response","113","2.1.0","300669","white","","","","","","","","","","","","","","","","","","","","","","","","","","","","","","","","","","","","","","","","","","127","","-37","127","0","10","338",""
"null","
          <p style=""color: #00FF00;"">Your reward: 10 points</p>
        ","null","html-keyboard-response","114","2.1.0","302671","","","","","","","","","","","","","","","","","","","","","","","","","","","","","","","","","","","","","","","","","","","","","","","","","",""
"null","<div class=""fixation"" style=""font-size: 60px;"">+</div>","null","html-keyboard-response","115","2.1.0","303674","","","","","","","","","","","","","","","","","","","","","","","","","","","","","","","","","","","","","","","","","","","","","","","","","",""
"-1","","","rdk","116","2.0.0","305679","black","1","B_H_vs_W_L_rep10","false","ALL_KEYS","[""a""]","2000","[]","false","2","[100,100]","1","[306,230]","1","0","2","1","-1","1","300","300","[""white"",""black""]","circle","#AAA","3","2","2","16.933333333333334","[14,17,17,17,17,17,17,17,17,17,17,17,17,16,18,17,17,17,17,17,17,17,17,17,17,17,17,16,17,17,17,17,17,17,17,17,17,16,18,17,17,17,17,16,17,17,17,17,17,17,17,17,16,17,17,17,17,17,17,16,17,17,17,17,17,17,16,18,17,17,17,17,17,17,17,17,17,17,17,17,17,17,16,18,17,17,17,17,17,17,17,17,17,17,17,17,17,17,17,17,17,17,17,17,17,17,17,17,17,17,17,17,17,17,17,17,16,18,17,16]","120","735","461.5","true","15","15","#111","1","true","2","transparent","1470","923","230","306","","","","","",""
"1073","
        <div class=""response-container"">
          <div class=""response-instruction"">
            <p>rotate the bar by using the left and right arrow keys.</p>
            <p>when you are determined, press the Enter key.</p>
          </div>
          <div class=""response-circle"">
            <div class=""response-fixation""></div>
            <div id=""bar"" class=""rotating-bar""></div>
          </div>
        </div>
      ","Enter","html-keyboard-response","117","2.1.0","306753","black","","","","","","","","","","","","","","","","","","","","","","","","","","","","","","","","","","","","","","","","","","230","","233","217","-13","7","338",""
"null","
          <p style=""color: #00FF00;"">Your reward: 7 points</p>
        ","null","html-keyboard-response","118","2.1.0","308756","","","","","","","","","","","","","","","","","","","","","","","","","","","","","","","","","","","","","","","","","","","","","","","","","",""
"null","<div class=""fixation"" style=""font-size: 60px;"">+</div>","null","html-keyboard-response","119","2.1.0","309758","","","","","","","","","","","","","","","","","","","","","","","","","","","","","","","","","","","","","","","","","","","","","","","","","",""
"-1","","","rdk","120","2.0.0","311760","black","0","B_H_vs_W_L_rep14","false","ALL_KEYS","[""a""]","2000","[]","false","2","[100,100]","1","[225,287]","1","0","2","1","-1","1","300","300","[""black"",""white""]","circle","#AAA","3","2","2","16.933333333333334","[16,17,16,17,18,17,17,16,17,17,17,16,17,17,17,17,17,17,17,17,17,17,17,17,17,17,17,17,17,17,16,18,17,17,17,17,17,17,17,16,18,17,17,17,17,17,17,17,17,17,17,17,17,17,17,16,17,17,17,17,16,17,17,17,17,17,17,16,17,17,17,17,17,17,17,16,17,17,17,17,17,17,17,17,17,17,17,17,17,16,17,17,17,17,17,17,17,17,17,17,17,17,17,17,17,17,17,17,17,17,17,17,17,17,17,17,17,17,17,17]","120","735","461.5","true","15","15","#111","1","true","2","transparent","1470","923","225","287","","","","","",""
"2834","
        <div class=""response-container"">
          <div class=""response-instruction"">
            <p>rotate the bar by using the left and right arrow keys.</p>
            <p>when you are determined, press the Enter key.</p>
          </div>
          <div class=""response-circle"">
            <div class=""response-fixation""></div>
            <div id=""bar"" class=""rotating-bar""></div>
          </div>
        </div>
      ","Enter","html-keyboard-response","121","2.1.0","314595","black","","","","","","","","","","","","","","","","","","","","","","","","","","","","","","","","","","","","","","","","","","225","","239","211","-14","6","338",""
"null","
          <p style=""color: #00FF00;"">Your reward: 6 points</p>
        ","null","html-keyboard-response","122","2.1.0","316597","","","","","","","","","","","","","","","","","","","","","","","","","","","","","","","","","","","","","","","","","","","","","","","","","",""
"null","<div class=""fixation"" style=""font-size: 60px;"">+</div>","null","html-keyboard-response","123","2.1.0","317599","","","","","","","","","","","","","","","","","","","","","","","","","","","","","","","","","","","","","","","","","","","","","","","","","",""
"-1","","","rdk","124","2.0.0","319602","black","1","B_H_vs_W_L_rep8","false","ALL_KEYS","[""a""]","2000","[]","false","2","[100,100]","1","[305,233]","1","0","2","1","-1","1","300","300","[""white"",""black""]","circle","#AAA","3","2","2","17.016806722689076","[24,17,17,16,18,17,17,17,17,17,17,17,17,17,17,17,17,17,17,17,17,17,17,17,17,17,16,18,17,17,17,17,17,17,17,17,17,16,17,17,17,17,17,17,17,17,16,18,17,17,17,17,17,17,17,17,17,17,17,17,17,16,17,17,16,17,17,17,17,17,17,16,18,16,17,17,17,17,17,17,17,17,17,17,17,17,17,17,17,17,17,17,17,17,17,17,17,17,17,17,17,16,17,17,17,17,17,17,17,17,17,17,17,17,17,17,17,17,17]","119","735","461.5","true","15","15","#111","1","true","2","transparent","1470","923","233","305","","","","","",""
"1007","
        <div class=""response-container"">
          <div class=""response-instruction"">
            <p>rotate the bar by using the left and right arrow keys.</p>
            <p>when you are determined, press the Enter key.</p>
          </div>
          <div class=""response-circle"">
            <div class=""response-fixation""></div>
            <div id=""bar"" class=""rotating-bar""></div>
          </div>
        </div>
      ","Enter","html-keyboard-response","125","2.1.0","320610","black","","","","","","","","","","","","","","","","","","","","","","","","","","","","","","","","","","","","","","","","","","233","","230","220","-13","7","338",""
"null","
          <p style=""color: #00FF00;"">Your reward: 7 points</p>
        ","null","html-keyboard-response","126","2.1.0","322613","","","","","","","","","","","","","","","","","","","","","","","","","","","","","","","","","","","","","","","","","","","","","","","","","",""
"null","<div class=""fixation"" style=""font-size: 60px;"">+</div>","null","html-keyboard-response","127","2.1.0","323615","","","","","","","","","","","","","","","","","","","","","","","","","","","","","","","","","","","","","","","","","","","","","","","","","",""
"-1","","","rdk","128","2.0.0","325620","black","1","B_H_vs_W_L_rep2","false","ALL_KEYS","[""a""]","2000","[]","false","2","[100,100]","1","[295,232]","1","0","2","1","-1","1","300","300","[""white"",""black""]","circle","#AAA","3","2","2","16.95798319327731","[24,17,17,17,17,16,17,17,16,17,17,17,17,17,17,17,17,17,17,17,17,17,17,17,17,16,17,17,17,17,17,16,17,17,17,17,17,17,17,16,17,17,17,17,17,17,17,17,17,17,17,16,17,17,17,17,17,17,17,17,17,16,17,15,18,17,17,17,17,17,17,17,17,17,17,17,17,17,17,17,16,17,17,17,17,17,17,17,17,17,17,16,17,17,17,17,17,17,17,17,17,17,17,17,17,17,17,17,17,17,17,17,17,17,17,17,17,17,15]","119","735","461.5","true","15","15","#111","1","true","2","transparent","1470","923","232","295","","","","","",""
"2126","
        <div class=""response-container"">
          <div class=""response-instruction"">
            <p>rotate the bar by using the left and right arrow keys.</p>
            <p>when you are determined, press the Enter key.</p>
          </div>
          <div class=""response-circle"">
            <div class=""response-fixation""></div>
            <div id=""bar"" class=""rotating-bar""></div>
          </div>
        </div>
      ","Enter","html-keyboard-response","129","2.1.0","327747","black","","","","","","","","","","","","","","","","","","","","","","","","","","","","","","","","","","","","","","","","","","232","","247","203","-29","3","338",""
"null","
          <p style=""color: #00FF00;"">Your reward: 3 points</p>
        ","null","html-keyboard-response","130","2.1.0","329749","","","","","","","","","","","","","","","","","","","","","","","","","","","","","","","","","","","","","","","","","","","","","","","","","",""
"null","<div class=""fixation"" style=""font-size: 60px;"">+</div>","null","html-keyboard-response","131","2.1.0","330751","","","","","","","","","","","","","","","","","","","","","","","","","","","","","","","","","","","","","","","","","","","","","","","","","",""
"-1","","","rdk","132","2.0.0","332756","black","0","B_H_vs_W_L_rep13","false","ALL_KEYS","[""a""]","2000","[]","false","2","[100,100]","1","[216,301]","1","0","2","1","-1","1","300","300","[""black"",""white""]","circle","#AAA","3","2","2","16.932773109243698","[21,16,17,17,17,17,17,17,17,16,17,17,17,17,17,17,17,17,16,17,17,16,17,17,17,17,17,17,17,17,17,17,17,17,17,17,17,17,17,17,16,18,17,17,17,17,17,16,17,17,17,17,17,17,17,16,17,17,17,17,17,17,17,17,17,17,17,17,17,17,17,17,17,16,18,17,17,17,16,17,17,17,17,17,17,17,16,17,17,17,17,17,16,17,16,17,17,17,17,16,17,17,17,17,17,17,17,17,17,17,17,17,17,17,16,17,17,17,17]","119","735","461.5","true","15","15","#111","1","true","2","transparent","1470","923","216","301","","","","","",""
"608","
        <div class=""response-container"">
          <div class=""response-instruction"">
            <p>rotate the bar by using the left and right arrow keys.</p>
            <p>when you are determined, press the Enter key.</p>
          </div>
          <div class=""response-circle"">
            <div class=""response-fixation""></div>
            <div id=""bar"" class=""rotating-bar""></div>
          </div>
        </div>
      ","Enter","html-keyboard-response","133","2.1.0","333365","black","","","","","","","","","","","","","","","","","","","","","","","","","","","","","","","","","","","","","","","","","","216","","222","228","12","7","338",""
"null","
          <p style=""color: #00FF00;"">Your reward: 7 points</p>
        ","null","html-keyboard-response","134","2.1.0","335367","","","","","","","","","","","","","","","","","","","","","","","","","","","","","","","","","","","","","","","","","","","","","","","","","",""
"null","<div class=""fixation"" style=""font-size: 60px;"">+</div>","null","html-keyboard-response","135","2.1.0","336370","","","","","","","","","","","","","","","","","","","","","","","","","","","","","","","","","","","","","","","","","","","","","","","","","",""
"-1","","","rdk","136","2.0.0","338375","white","0","W_H_vs_B_L_rep12","false","ALL_KEYS","[""a""]","2000","[]","false","2","[100,100]","1","[107,40]","1","0","2","1","-1","1","300","300","[""white"",""black""]","circle","#AAA","3","2","2","16.983193277310924","[18,17,17,18,17,17,17,17,17,16,18,16,17,17,17,17,17,17,16,17,17,17,17,17,17,17,17,17,17,17,16,18,17,17,17,17,17,17,16,17,17,17,17,17,17,17,17,17,17,17,16,18,17,17,17,17,17,17,17,17,17,17,17,17,17,17,17,17,17,17,17,17,17,17,17,17,17,17,16,17,17,17,17,17,17,17,17,17,17,17,17,17,17,17,17,17,17,16,18,17,17,17,17,17,17,16,18,17,17,17,17,17,17,17,17,17,17,17,17]","119","735","461.5","true","15","15","#111","1","true","2","transparent","1470","923","107","40","","","","","",""
"6080","
        <div class=""response-container"">
          <div class=""response-instruction"">
            <p>rotate the bar by using the left and right arrow keys.</p>
            <p>when you are determined, press the Enter key.</p>
          </div>
          <div class=""response-circle"">
            <div class=""response-fixation""></div>
            <div id=""bar"" class=""rotating-bar""></div>
          </div>
        </div>
      ","Enter","html-keyboard-response","137","2.1.0","344456","white","","","","","","","","","","","","","","","","","","","","","","","","","","","","","","","","","","","","","","","","","","107","","97","353","-47","0","338",""
"null","
          <p style=""color: #FF3333;"">Your reward: 0 points</p>
        ","null","html-keyboard-response","138","2.1.0","346459","","","","","","","","","","","","","","","","","","","","","","","","","","","","","","","","","","","","","","","","","","","","","","","","","",""
"null","<div class=""fixation"" style=""font-size: 60px;"">+</div>","null","html-keyboard-response","139","2.1.0","347462","","","","","","","","","","","","","","","","","","","","","","","","","","","","","","","","","","","","","","","","","","","","","","","","","",""
"-1","","","rdk","140","2.0.0","349466","white","0","W_H_vs_B_L_rep1","false","ALL_KEYS","[""a""]","2000","[]","false","2","[100,100]","1","[122,40]","1","0","2","1","-1","1","300","300","[""white"",""black""]","circle","#AAA","3","2","2","16.85","[10,17,17,17,17,17,17,17,17,17,17,17,17,16,17,17,17,17,17,17,17,17,17,17,16,17,17,16,17,17,16,17,17,17,17,17,17,17,17,17,17,17,17,17,17,17,17,17,17,17,17,17,17,17,17,16,16,18,17,17,17,17,17,16,17,16,17,17,16,17,17,17,17,17,17,17,17,17,17,17,17,17,17,17,17,17,17,17,17,17,17,18,15,17,17,16,17,17,16,17,17,17,17,17,16,18,17,17,17,17,17,17,17,17,17,17,17,17,17,17]","120","735","461.5","true","15","15","#111","1","true","2","transparent","1470","923","122","40","","","","","",""
"3838","
        <div class=""response-container"">
          <div class=""response-instruction"">
            <p>rotate the bar by using the left and right arrow keys.</p>
            <p>when you are determined, press the Enter key.</p>
          </div>
          <div class=""response-circle"">
            <div class=""response-fixation""></div>
            <div id=""bar"" class=""rotating-bar""></div>
          </div>
        </div>
      ","Enter","html-keyboard-response","141","2.1.0","353305","white","","","","","","","","","","","","","","","","","","","","","","","","","","","","","","","","","","","","","","","","","","122","","-60","150","28","3","338",""
"null","
          <p style=""color: #00FF00;"">Your reward: 3 points</p>
        ","null","html-keyboard-response","142","2.1.0","355307","","","","","","","","","","","","","","","","","","","","","","","","","","","","","","","","","","","","","","","","","","","","","","","","","",""
"1815","","","html-keyboard-response","143","2.1.0","387126","","","","","","","","","","","","","","","","","","","","","","","","","","","","","","","","","","","","","","","","","","","","","","","","","","ArrowRight"
"null","<div class=""fixation"" style=""font-size: 60px;"">+</div>","null","html-keyboard-response","144","2.1.0","388129","","","","","","","","","","","","","","","","","","","","","","","","","","","","","","","","","","","","","","","","","","","","","","","","","",""
"-1","","","rdk","145","2.0.0","390133","white","0","W_H_vs_B_L_rep8","false","ALL_KEYS","[""a""]","2000","[]","false","2","[100,100]","1","[17,315]","1","0","2","1","-1","1","300","300","[""white"",""black""]","circle","#AAA","3","2","2","16.85","[10,17,17,17,16,17,16,18,17,17,17,16,17,17,17,17,17,17,17,17,17,17,17,17,16,17,17,17,17,17,17,16,17,16,17,17,16,17,17,17,17,17,17,16,17,16,18,17,17,17,17,17,17,17,17,17,17,16,17,17,17,17,17,17,17,17,17,17,17,17,17,17,17,17,17,17,17,17,16,17,17,17,17,17,17,17,17,17,17,17,17,17,17,16,17,17,17,17,17,17,17,17,17,17,17,17,17,17,17,17,17,17,16,18,16,17,17,17,17,17]","120","735","461.5","true","15","15","#111","1","true","2","transparent","1470","923","17","315","","","","","",""
"2826","
        <div class=""response-container"">
          <div class=""response-instruction"">
            <p>rotate the bar by using the left and right arrow keys.</p>
            <p>when you are determined, press the Enter key.</p>
          </div>
          <div class=""response-circle"">
            <div class=""response-fixation""></div>
            <div id=""bar"" class=""rotating-bar""></div>
          </div>
        </div>
      ","Enter","html-keyboard-response","146","2.1.0","392960","white","","","","","","","","","","","","","","","","","","","","","","","","","","","","","","","","","","","","","","","","","","17","","163","287","-28","0","338",""
"null","
          <p style=""color: #FF3333;"">Your reward: 0 points</p>
        ","null","html-keyboard-response","147","2.1.0","394962","","","","","","","","","","","","","","","","","","","","","","","","","","","","","","","","","","","","","","","","","","","","","","","","","",""
"null","<div class=""fixation"" style=""font-size: 60px;"">+</div>","null","html-keyboard-response","148","2.1.0","395965","","","","","","","","","","","","","","","","","","","","","","","","","","","","","","","","","","","","","","","","","","","","","","","","","",""
"-1","","","rdk","149","2.0.0","397969","white","1","W_H_vs_B_L_rep16","false","ALL_KEYS","[""a""]","2000","[]","false","2","[100,100]","1","[317,15]","1","0","2","1","-1","1","300","300","[""black"",""white""]","circle","#AAA","3","2","2","16.983193277310924","[24,17,17,17,16,17,17,17,17,17,16,18,17,17,17,17,16,16,17,17,17,17,17,17,17,17,16,17,17,17,17,17,16,17,17,17,17,17,17,17,17,17,16,17,17,17,17,17,17,17,17,17,17,17,17,17,17,17,17,16,17,17,17,17,16,17,17,17,17,17,17,17,17,17,17,17,17,17,17,17,17,17,17,17,17,17,17,17,17,17,17,17,17,17,17,17,17,17,17,17,17,17,16,17,17,17,17,17,17,17,17,17,17,17,17,17,17,17,17]","119","735","461.5","true","15","15","#111","1","true","2","transparent","1470","923","15","317","","","","","",""
"1718","
        <div class=""response-container"">
          <div class=""response-instruction"">
            <p>rotate the bar by using the left and right arrow keys.</p>
            <p>when you are determined, press the Enter key.</p>
          </div>
          <div class=""response-circle"">
            <div class=""response-fixation""></div>
            <div id=""bar"" class=""rotating-bar""></div>
          </div>
        </div>
      ","Enter","html-keyboard-response","150","2.1.0","399687","white","","","","","","","","","","","","","","","","","","","","","","","","","","","","","","","","","","","","","","","","","","15","","174","276","-41","0","338",""
"null","
          <p style=""color: #FF3333;"">Your reward: 0 points</p>
        ","null","html-keyboard-response","151","2.1.0","401690","","","","","","","","","","","","","","","","","","","","","","","","","","","","","","","","","","","","","","","","","","","","","","","","","",""
"null","<div class=""fixation"" style=""font-size: 60px;"">+</div>","null","html-keyboard-response","152","2.1.0","402692","","","","","","","","","","","","","","","","","","","","","","","","","","","","","","","","","","","","","","","","","","","","","","","","","",""
"-1","","","rdk","153","2.0.0","404703","black","1","B_H_vs_W_L_rep5","false","ALL_KEYS","[""a""]","2000","[]","false","2","[100,100]","1","[199,124]","1","0","2","1","-1","1","300","300","[""white"",""black""]","circle","#AAA","3","2","2","16.833333333333332","[7,17,17,17,17,17,17,17,17,17,17,17,16,17,17,17,17,17,17,17,17,17,17,16,17,17,17,16,17,16,17,17,17,17,16,17,17,17,17,17,17,17,17,17,17,17,17,17,17,17,17,17,17,17,17,16,16,18,17,16,17,17,17,17,17,17,17,17,17,17,17,17,17,17,17,17,17,17,17,17,17,17,17,17,17,17,17,17,17,17,17,17,17,17,17,17,17,16,17,17,17,17,17,17,17,17,17,16,17,17,17,17,16,18,16,17,17,17,17,17]","120","735","461.5","true","15","15","#111","1","true","2","transparent","1470","923","124","199","","","","","",""
"1664","
        <div class=""response-container"">
          <div class=""response-instruction"">
            <p>rotate the bar by using the left and right arrow keys.</p>
            <p>when you are determined, press the Enter key.</p>
          </div>
          <div class=""response-circle"">
            <div class=""response-fixation""></div>
            <div id=""bar"" class=""rotating-bar""></div>
          </div>
        </div>
      ","Enter","html-keyboard-response","154","2.1.0","406368","black","","","","","","","","","","","","","","","","","","","","","","","","","","","","","","","","","","","","","","","","","","124","","5","85","-39","1","338",""
"null","
          <p style=""color: #FF3333;"">Your reward: 1 points</p>
        ","null","html-keyboard-response","155","2.1.0","408370","","","","","","","","","","","","","","","","","","","","","","","","","","","","","","","","","","","","","","","","","","","","","","","","","",""
"null","<div class=""fixation"" style=""font-size: 60px;"">+</div>","null","html-keyboard-response","156","2.1.0","409373","","","","","","","","","","","","","","","","","","","","","","","","","","","","","","","","","","","","","","","","","","","","","","","","","",""
"-1","","","rdk","157","2.0.0","411377","white","0","W_H_vs_B_L_rep13","false","ALL_KEYS","[""a""]","2000","[]","false","2","[100,100]","1","[26,301]","1","0","2","1","-1","1","300","300","[""white"",""black""]","circle","#AAA","3","2","2","16.925","[15,17,17,17,17,17,17,17,17,17,17,17,17,17,17,16,17,17,15,17,17,17,17,17,17,17,17,17,17,17,17,17,17,17,17,17,17,17,17,17,17,17,16,17,17,17,17,17,17,17,17,17,17,17,17,17,17,17,17,16,17,17,17,17,17,17,17,17,17,17,17,17,17,17,17,17,17,17,16,17,17,17,17,17,17,17,17,17,17,17,17,17,17,17,17,17,17,17,17,16,17,17,17,17,17,17,17,17,17,17,17,17,17,17,17,17,17,16,18,17]","120","735","461.5","true","15","15","#111","1","true","2","transparent","1470","923","26","301","","","","","",""
"2782","
        <div class=""response-container"">
          <div class=""response-instruction"">
            <p>rotate the bar by using the left and right arrow keys.</p>
            <p>when you are determined, press the Enter key.</p>
          </div>
          <div class=""response-circle"">
            <div class=""response-fixation""></div>
            <div id=""bar"" class=""rotating-bar""></div>
          </div>
        </div>
      ","Enter","html-keyboard-response","158","2.1.0","414160","white","","","","","","","","","","","","","","","","","","","","","","","","","","","","","","","","","","","","","","","","","","26","","88","2","-24","4","338",""
"null","
          <p style=""color: #00FF00;"">Your reward: 4 points</p>
        ","null","html-keyboard-response","159","2.1.0","416162","","","","","","","","","","","","","","","","","","","","","","","","","","","","","","","","","","","","","","","","","","","","","","","","","",""
"null","<div class=""fixation"" style=""font-size: 60px;"">+</div>","null","html-keyboard-response","160","2.1.0","417164","","","","","","","","","","","","","","","","","","","","","","","","","","","","","","","","","","","","","","","","","","","","","","","","","",""
"-1","","","rdk","161","2.0.0","419166","black","0","B_H_vs_W_L_rep11","false","ALL_KEYS","[""a""]","2000","[]","false","2","[100,100]","1","[125,202]","1","0","2","1","-1","1","300","300","[""black"",""white""]","circle","#AAA","3","2","2","16.891666666666666","[9,17,17,17,17,17,17,17,17,17,17,17,17,17,17,17,17,17,16,18,17,17,17,17,17,17,16,17,17,17,17,16,17,17,17,17,17,17,17,17,17,17,17,17,17,17,17,17,17,17,17,17,17,17,17,17,17,17,16,18,16,17,17,17,17,17,17,17,17,17,17,17,17,17,17,17,17,17,17,17,17,17,17,17,17,17,17,17,17,17,17,17,17,17,17,17,17,17,17,17,17,17,17,17,17,17,17,17,16,17,17,17,17,16,17,17,17,17,17,17]","120","735","461.5","true","15","15","#111","1","true","2","transparent","1470","923","125","202","","","","","",""
"2811","
        <div class=""response-container"">
          <div class=""response-instruction"">
            <p>rotate the bar by using the left and right arrow keys.</p>
            <p>when you are determined, press the Enter key.</p>
          </div>
          <div class=""response-circle"">
            <div class=""response-fixation""></div>
            <div id=""bar"" class=""rotating-bar""></div>
          </div>
        </div>
      ","Enter","html-keyboard-response","162","2.1.0","421979","black","","","","","","","","","","","","","","","","","","","","","","","","","","","","","","","","","","","","","","","","","","125","","-25","115","-10","7","338",""
"null","
          <p style=""color: #00FF00;"">Your reward: 7 points</p>
        ","null","html-keyboard-response","163","2.1.0","423981","","","","","","","","","","","","","","","","","","","","","","","","","","","","","","","","","","","","","","","","","","","","","","","","","",""
"null","<div class=""fixation"" style=""font-size: 60px;"">+</div>","null","html-keyboard-response","164","2.1.0","424983","","","","","","","","","","","","","","","","","","","","","","","","","","","","","","","","","","","","","","","","","","","","","","","","","",""
"-1","","","rdk","165","2.0.0","426988","white","1","W_H_vs_B_L_rep12","false","ALL_KEYS","[""a""]","2000","[]","false","2","[100,100]","1","[302,28]","1","0","2","1","-1","1","300","300","[""black"",""white""]","circle","#AAA","3","2","2","16.991596638655462","[22,16,17,17,17,17,17,17,17,17,17,17,17,17,16,17,17,17,17,17,17,17,17,16,18,17,17,17,17,17,17,17,17,17,16,17,17,17,17,17,17,17,17,17,17,17,17,17,17,17,17,17,17,17,17,17,17,17,17,16,17,17,17,17,17,17,17,17,17,17,17,17,17,17,16,18,17,17,17,17,17,17,17,17,17,17,17,17,17,17,17,17,17,16,17,17,16,17,17,17,17,17,17,17,17,17,17,17,17,17,17,17,17,17,17,17,17,17,17]","119","735","461.5","true","15","15","#111","1","true","2","transparent","1470","923","28","302","","","","","",""
"1945","
        <div class=""response-container"">
          <div class=""response-instruction"">
            <p>rotate the bar by using the left and right arrow keys.</p>
            <p>when you are determined, press the Enter key.</p>
          </div>
          <div class=""response-circle"">
            <div class=""response-fixation""></div>
            <div id=""bar"" class=""rotating-bar""></div>
          </div>
        </div>
      ","Enter","html-keyboard-response","166","2.1.0","428935","white","","","","","","","","","","","","","","","","","","","","","","","","","","","","","","","","","","","","","","","","","","28","","38","52","24","4","338",""
"null","
          <p style=""color: #00FF00;"">Your reward: 4 points</p>
        ","null","html-keyboard-response","167","2.1.0","430937","","","","","","","","","","","","","","","","","","","","","","","","","","","","","","","","","","","","","","","","","","","","","","","","","",""
"null","<div class=""fixation"" style=""font-size: 60px;"">+</div>","null","html-keyboard-response","168","2.1.0","431940","","","","","","","","","","","","","","","","","","","","","","","","","","","","","","","","","","","","","","","","","","","","","","","","","",""
"-1","","","rdk","169","2.0.0","433960","white","1","W_H_vs_B_L_rep4","false","ALL_KEYS","[""a""]","2000","[]","false","2","[100,100]","1","[302,21]","1","0","2","1","-1","1","300","300","[""black"",""white""]","circle","#AAA","3","2","2","16.933333333333334","[14,17,17,17,17,17,17,17,17,17,17,17,17,17,17,17,17,17,17,17,17,17,17,17,17,17,17,17,17,17,17,17,17,17,17,17,17,17,17,17,17,17,17,16,17,17,17,17,17,17,17,17,17,17,17,17,17,17,17,17,17,17,17,16,17,17,17,17,17,17,17,16,17,17,17,17,17,17,17,17,17,17,17,17,17,17,17,17,17,17,17,17,17,17,17,17,17,17,17,17,17,17,17,16,17,17,16,17,17,17,17,17,17,17,17,17,17,17,17,17]","120","735","461.5","true","15","15","#111","1","true","2","transparent","1470","923","21","302","","","","","",""
"2886","
        <div class=""response-container"">
          <div class=""response-instruction"">
            <p>rotate the bar by using the left and right arrow keys.</p>
            <p>when you are determined, press the Enter key.</p>
          </div>
          <div class=""response-circle"">
            <div class=""response-fixation""></div>
            <div id=""bar"" class=""rotating-bar""></div>
          </div>
        </div>
      ","Enter","html-keyboard-response","170","2.1.0","436848","white","","","","","","","","","","","","","","","","","","","","","","","","","","","","","","","","","","","","","","","","","","21","","159","291","-11","0","338",""
"null","
          <p style=""color: #FF3333;"">Your reward: 0 points</p>
        ","null","html-keyboard-response","171","2.1.0","438850","","","","","","","","","","","","","","","","","","","","","","","","","","","","","","","","","","","","","","","","","","","","","","","","","",""
"null","<div class=""fixation"" style=""font-size: 60px;"">+</div>","null","html-keyboard-response","172","2.1.0","439852","","","","","","","","","","","","","","","","","","","","","","","","","","","","","","","","","","","","","","","","","","","","","","","","","",""
"-1","","","rdk","173","2.0.0","441857","black","1","B_H_vs_W_L_rep10","false","ALL_KEYS","[""a""]","2000","[]","false","2","[100,100]","1","[222,142]","1","0","2","1","-1","1","300","300","[""white"",""black""]","circle","#AAA","3","2","2","17.008403361344538","[20,17,17,17,16,18,17,17,17,17,17,17,17,17,17,16,17,17,17,17,17,16,17,16,18,17,17,17,17,17,17,17,17,17,17,17,17,17,17,17,17,17,17,17,17,17,17,17,17,17,17,17,17,17,17,17,17,17,17,17,17,17,17,17,17,17,17,17,17,17,17,17,17,17,17,17,17,17,17,17,17,17,17,17,17,17,17,17,17,17,17,17,17,17,17,17,17,17,17,17,17,17,17,17,17,17,17,17,17,17,17,17,16,18,17,17,17,17,17]","119","735","461.5","true","15","15","#111","1","true","2","transparent","1470","923","142","222","","","","","",""
"3751","
        <div class=""response-container"">
          <div class=""response-instruction"">
            <p>rotate the bar by using the left and right arrow keys.</p>
            <p>when you are determined, press the Enter key.</p>
          </div>
          <div class=""response-circle"">
            <div class=""response-fixation""></div>
            <div id=""bar"" class=""rotating-bar""></div>
          </div>
        </div>
      ","Enter","html-keyboard-response","174","2.1.0","445609","black","","","","","","","","","","","","","","","","","","","","","","","","","","","","","","","","","","","","","","","","","","142","","-34","124","-18","6","338",""
"null","
          <p style=""color: #00FF00;"">Your reward: 6 points</p>
        ","null","html-keyboard-response","175","2.1.0","447611","","","","","","","","","","","","","","","","","","","","","","","","","","","","","","","","","","","","","","","","","","","","","","","","","",""
"null","<div class=""fixation"" style=""font-size: 60px;"">+</div>","null","html-keyboard-response","176","2.1.0","448615","","","","","","","","","","","","","","","","","","","","","","","","","","","","","","","","","","","","","","","","","","","","","","","","","",""
"-1","","","rdk","177","2.0.0","450619","black","0","B_H_vs_W_L_rep1","false","ALL_KEYS","[""a""]","2000","[]","false","2","[100,100]","1","[139,196]","1","0","2","1","-1","1","300","300","[""black"",""white""]","circle","#AAA","3","2","2","16.983193277310924","[24,17,17,17,17,17,17,17,17,17,17,17,17,17,17,17,17,17,17,17,17,17,17,17,17,17,17,17,17,17,17,17,17,17,17,17,17,17,17,16,16,17,17,17,17,16,17,17,17,16,17,17,17,17,17,16,17,17,17,17,17,17,17,17,17,17,17,17,17,17,17,17,17,17,17,17,17,17,17,17,17,16,17,17,17,17,17,17,17,17,17,17,17,17,17,16,17,17,17,17,17,17,17,17,16,18,17,17,16,18,17,16,17,16,17,17,17,17,17]","119","735","461.5","true","15","15","#111","1","true","2","transparent","1470","923","139","196","","","","","",""
"1474","
        <div class=""response-container"">
          <div class=""response-instruction"">
            <p>rotate the bar by using the left and right arrow keys.</p>
            <p>when you are determined, press the Enter key.</p>
          </div>
          <div class=""response-circle"">
            <div class=""response-fixation""></div>
            <div id=""bar"" class=""rotating-bar""></div>
          </div>
        </div>
      ","Enter","html-keyboard-response","178","2.1.0","452094","black","","","","","","","","","","","","","","","","","","","","","","","","","","","","","","","","","","","","","","","","","","139","","-38","128","-11","7","338",""
"null","
          <p style=""color: #00FF00;"">Your reward: 7 points</p>
        ","null","html-keyboard-response","179","2.1.0","454097","","","","","","","","","","","","","","","","","","","","","","","","","","","","","","","","","","","","","","","","","","","","","","","","","",""
"null","<div class=""fixation"" style=""font-size: 60px;"">+</div>","null","html-keyboard-response","180","2.1.0","455100","","","","","","","","","","","","","","","","","","","","","","","","","","","","","","","","","","","","","","","","","","","","","","","","","",""
"-1","","","rdk","181","2.0.0","457105","black","0","B_H_vs_W_L_rep2","false","ALL_KEYS","[""a""]","2000","[]","false","2","[100,100]","1","[122,196]","1","0","2","1","-1","1","300","300","[""black"",""white""]","circle","#AAA","3","2","2","16.991596638655462","[21,17,17,17,17,17,17,17,16,17,17,17,17,17,17,17,17,17,17,17,17,17,17,17,17,17,17,17,17,17,17,17,17,17,16,17,17,17,17,17,17,17,17,17,17,17,17,17,17,17,17,17,17,17,17,17,17,17,17,17,17,17,17,17,17,17,16,17,17,17,17,17,17,17,17,17,17,17,17,17,16,17,17,17,17,17,17,17,17,17,17,17,17,17,16,17,17,17,17,17,17,17,17,17,17,17,17,17,17,17,17,17,17,17,17,17,17,17,17]","119","735","461.5","true","15","15","#111","1","true","2","transparent","1470","923","122","196","","","","","",""
"1190","
        <div class=""response-container"">
          <div class=""response-instruction"">
            <p>rotate the bar by using the left and right arrow keys.</p>
            <p>when you are determined, press the Enter key.</p>
          </div>
          <div class=""response-circle"">
            <div class=""response-fixation""></div>
            <div id=""bar"" class=""rotating-bar""></div>
          </div>
        </div>
      ","Enter","html-keyboard-response","182","2.1.0","458297","black","","","","","","","","","","","","","","","","","","","","","","","","","","","","","","","","","","","","","","","","","","122","","340","110","-12","7","338",""
"null","
          <p style=""color: #00FF00;"">Your reward: 7 points</p>
        ","null","html-keyboard-response","183","2.1.0","460299","","","","","","","","","","","","","","","","","","","","","","","","","","","","","","","","","","","","","","","","","","","","","","","","","",""
"null","<div class=""fixation"" style=""font-size: 60px;"">+</div>","null","html-keyboard-response","184","2.1.0","461302","","","","","","","","","","","","","","","","","","","","","","","","","","","","","","","","","","","","","","","","","","","","","","","","","",""
"-1","","","rdk","185","2.0.0","463307","black","1","B_H_vs_W_L_rep14","false","ALL_KEYS","[""a""]","2000","[]","false","2","[100,100]","1","[198,139]","1","0","2","1","-1","1","300","300","[""white"",""black""]","circle","#AAA","3","2","2","16.96638655462185","[19,16,17,17,17,17,17,17,17,17,17,17,17,17,17,17,17,17,17,17,17,16,17,18,17,17,16,17,17,17,17,17,17,17,17,17,17,17,17,16,17,17,17,16,17,17,17,17,17,17,17,17,17,17,17,17,17,17,17,17,17,17,17,17,16,17,17,17,17,17,17,17,17,17,17,17,17,17,17,17,17,17,17,17,17,17,17,17,17,17,17,17,17,17,17,17,17,17,17,17,17,17,17,17,17,17,17,17,17,17,17,17,17,17,17,17,16,17,17]","119","735","461.5","true","15","15","#111","1","true","2","transparent","1470","923","139","198","","","","","",""
"1159","
        <div class=""response-container"">
          <div class=""response-instruction"">
            <p>rotate the bar by using the left and right arrow keys.</p>
            <p>when you are determined, press the Enter key.</p>
          </div>
          <div class=""response-circle"">
            <div class=""response-fixation""></div>
            <div id=""bar"" class=""rotating-bar""></div>
          </div>
        </div>
      ","Enter","html-keyboard-response","186","2.1.0","464468","black","","","","","","","","","","","","","","","","","","","","","","","","","","","","","","","","","","","","","","","","","","139","","318","132","-7","8","338",""
"null","
          <p style=""color: #00FF00;"">Your reward: 8 points</p>
        ","null","html-keyboard-response","187","2.1.0","466471","","","","","","","","","","","","","","","","","","","","","","","","","","","","","","","","","","","","","","","","","","","","","","","","","",""
"null","<div class=""fixation"" style=""font-size: 60px;"">+</div>","null","html-keyboard-response","188","2.1.0","467473","","","","","","","","","","","","","","","","","","","","","","","","","","","","","","","","","","","","","","","","","","","","","","","","","",""
"-1","","","rdk","189","2.0.0","469477","black","0","B_H_vs_W_L_rep16","false","ALL_KEYS","[""a""]","2000","[]","false","2","[100,100]","1","[131,221]","1","0","2","1","-1","1","300","300","[""black"",""white""]","circle","#AAA","3","2","2","16.95","[14,17,17,16,17,17,18,16,18,17,17,17,17,17,17,17,17,16,18,17,17,17,16,17,17,17,17,17,17,17,17,17,17,17,17,17,17,17,17,17,17,17,17,17,17,17,17,17,17,17,17,16,18,17,17,17,17,17,17,17,17,17,17,16,18,17,17,17,17,17,17,17,17,17,17,17,17,16,18,17,16,18,17,17,17,16,18,17,17,16,17,16,18,17,17,16,18,17,17,17,17,17,16,18,17,17,17,16,17,17,17,16,17,18,17,17,16,18,17,17]","120","735","461.5","true","15","15","#111","1","true","2","transparent","1470","923","131","221","","","","","",""
"3741","
        <div class=""response-container"">
          <div class=""response-instruction"">
            <p>rotate the bar by using the left and right arrow keys.</p>
            <p>when you are determined, press the Enter key.</p>
          </div>
          <div class=""response-circle"">
            <div class=""response-fixation""></div>
            <div id=""bar"" class=""rotating-bar""></div>
          </div>
        </div>
      ","Enter","html-keyboard-response","190","2.1.0","473219","black","","","","","","","","","","","","","","","","","","","","","","","","","","","","","","","","","","","","","","","","","","131","","204","246","25","0","338",""
"null","
          <p style=""color: #FF3333;"">Your reward: 0 points</p>
        ","null","html-keyboard-response","191","2.1.0","475221","","","","","","","","","","","","","","","","","","","","","","","","","","","","","","","","","","","","","","","","","","","","","","","","","",""
"null","<div class=""fixation"" style=""font-size: 60px;"">+</div>","null","html-keyboard-response","192","2.1.0","476224","","","","","","","","","","","","","","","","","","","","","","","","","","","","","","","","","","","","","","","","","","","","","","","","","",""
"-1","","","rdk","193","2.0.0","478228","black","0","B_H_vs_W_L_rep4","false","ALL_KEYS","[""a""]","2000","[]","false","2","[100,100]","1","[128,196]","1","0","2","1","-1","1","300","300","[""black"",""white""]","circle","#AAA","3","2","2","16.916666666666668","[14,17,17,17,17,17,17,17,17,17,17,17,17,17,17,17,17,17,17,17,17,17,17,17,17,17,16,17,17,17,17,16,18,17,17,17,17,17,17,17,17,17,17,17,16,17,17,17,17,17,17,17,17,17,17,17,17,17,17,16,18,17,17,17,17,17,17,17,16,17,17,17,17,17,17,17,17,17,17,16,17,17,17,17,17,17,17,17,17,17,16,17,16,18,17,17,17,17,17,17,17,17,17,17,17,17,16,18,17,16,18,16,17,17,17,16,17,17,17,17]","120","735","461.5","true","15","15","#111","1","true","2","transparent","1470","923","128","196","","","","","",""
"1291","
        <div class=""response-container"">
          <div class=""response-instruction"">
            <p>rotate the bar by using the left and right arrow keys.</p>
            <p>when you are determined, press the Enter key.</p>
          </div>
          <div class=""response-circle"">
            <div class=""response-fixation""></div>
            <div id=""bar"" class=""rotating-bar""></div>
          </div>
        </div>
      ","Enter","html-keyboard-response","194","2.1.0","479520","black","","","","","","","","","","","","","","","","","","","","","","","","","","","","","","","","","","","","","","","","","","128","","331","119","-9","8","338",""
"null","
          <p style=""color: #00FF00;"">Your reward: 8 points</p>
        ","null","html-keyboard-response","195","2.1.0","481523","","","","","","","","","","","","","","","","","","","","","","","","","","","","","","","","","","","","","","","","","","","","","","","","","",""
"null","<div class=""fixation"" style=""font-size: 60px;"">+</div>","null","html-keyboard-response","196","2.1.0","482526","","","","","","","","","","","","","","","","","","","","","","","","","","","","","","","","","","","","","","","","","","","","","","","","","",""
"-1","","","rdk","197","2.0.0","484529","black","0","B_H_vs_W_L_rep13","false","ALL_KEYS","[""a""]","2000","[]","false","2","[100,100]","1","[135,220]","1","0","2","1","-1","1","300","300","[""black"",""white""]","circle","#AAA","3","2","2","16.925","[12,16,18,17,17,17,17,17,17,17,17,17,17,17,17,16,17,17,17,17,17,17,16,17,17,17,17,17,17,17,16,18,17,17,17,17,17,17,17,17,17,17,17,17,17,17,17,17,17,17,17,17,17,17,17,17,17,16,18,17,17,17,17,17,17,17,17,17,17,17,17,17,17,17,17,17,16,17,17,17,17,17,16,18,17,17,16,18,17,17,17,17,17,17,17,17,17,17,17,17,17,17,17,17,17,17,16,17,17,17,17,17,17,17,17,17,17,17,17,17]","120","735","461.5","true","15","15","#111","1","true","2","transparent","1470","923","135","220","","","","","",""
"2242","
        <div class=""response-container"">
          <div class=""response-instruction"">
            <p>rotate the bar by using the left and right arrow keys.</p>
            <p>when you are determined, press the Enter key.</p>
          </div>
          <div class=""response-circle"">
            <div class=""response-fixation""></div>
            <div id=""bar"" class=""rotating-bar""></div>
          </div>
        </div>
      ","Enter","html-keyboard-response","198","2.1.0","486772","black","","","","","","","","","","","","","","","","","","","","","","","","","","","","","","","","","","","","","","","","","","135","","331","119","-16","6","338",""
"null","
          <p style=""color: #00FF00;"">Your reward: 6 points</p>
        ","null","html-keyboard-response","199","2.1.0","488775","","","","","","","","","","","","","","","","","","","","","","","","","","","","","","","","","","","","","","","","","","","","","","","","","",""
