[{"rt":3637,"stimulus":"Welcome to the experiment. Press any key to begin.","response":"d","trial_type":"html-keyboard-response","trial_index":0,"plugin_version":"2.1.0","time_elapsed":3644},{"rt":30929,"stimulus":"\n        <div class=\"instructions-container\">\n          <h2>Instructions</h2>\n\n          <p>\n          In this experiment, you will see <strong>two Random Dot Kinematograms (RDKs)</strong> displayed simultaneously.\n          </p>\n\n          <p>\n          An RDK is a visual stimulus consisting of many small dots that move coherently in a single direction. \n          In this experiment, the dots will be either <strong>white</strong> or <strong>black</strong> \n          (see the short demo below for an example of an RDK stimulus).\n          </p>\n\n          <p>\n          On each trial, the two RDKs will move in different directions. \n          Your task is to decide <strong>which RDK appears to contain more dots</strong>.\n          </p>\n\n          <p>\n          The RDK that you judge to have more dots is called the <strong>target RDK</strong>. \n          For example, if the white RDK appears to have more dots than the black RDK, \n          you should report the motion direction of the white RDK.\n          </p>\n\n          <p>\n          After viewing the RDKs, you will rotate a bar to indicate the perceived direction of the target RDK \n          using the <strong>left</strong> and <strong>right arrow keys</strong>. \n          Press <strong>Enter</strong> when you are satisfied with your response.\n          </p>\n\n          <p>\n          You will receive points based on the <strong>accuracy of your response</strong>, \n          and your final <strong>bonus reward</strong> may depend on your overall performance. \n          Please try to respond as accurately as possible.\n          </p>\n\n          <p>\n          You will first complete <strong>three practice trials</strong>. \n          Press the <strong>Enter</strong> key to start the practice phase.\n          </p>\n\n          <canvas id=\"instruction-demo-rdk\" width=\"300\" height=\"300\"style=\"display:block;margin:12px auto; border-radius: 50%;\"></canvas>\n        </div>\n      ","response":"Enter","trial_type":"html-keyboard-response","trial_index":1,"plugin_version":"2.1.0","time_elapsed":34576},{"rt":null,"stimulus":"<div class=\"fixation\" style=\"font-size: 60px;\">+</div>","response":null,"trial_type":"html-keyboard-response","trial_index":2,"plugin_version":"2.1.0","time_elapsed":35578},{"target_group":"black","target_index":1,"condition_label":"B_H_vs_W_L","rt":-1,"response":"","correct":false,"choices":"ALL_KEYS","correct_choice":["a"],"trial_duration":2000,"flip_timestamps":[],"response_ends_trial":false,"number_of_apertures":2,"number_of_dots":[50,100],"number_of_sets":1,"coherent_direction":[10,100],"coherence":1,"opposite_coherence":0,"dot_radius":2,"dot_side_length":1,"dot_life":-1,"move_distance":1,"aperture_width":300,"aperture_height":300,"dot_color":["white","black"],"dot_shape":"circle","background_color":"#AAA","RDK_type":3,"aperture_type":2,"reinsert_type":2,"frame_rate":45.40909090909091,"frame_rate_array":[5,74,11,32,2,50,42,46,43,53,49,52,47,42,58,43,41,43,53,45,54,49,37,52,54,52,46,50,45,45,42,54,47,52,49,40,60,42,52,46,54,46,53,46],"number_of_frames":44,"aperture_center_x":960,"aperture_center_y":540,"fixation_cross":true,"fixation_cross_width":15,"fixation_cross_height":15,"fixation_cross_color":"#111","fixation_cross_thickness":1,"border":true,"border_thickness":2,"border_color":"transparent","canvas_width":1920,"canvas_height":1080,"trial_type":"rdk","trial_index":3,"plugin_version":"2.0.0","time_elapsed":37586,"target_direction":100,"distractor_direction":10},{"rt":10422,"stimulus":"\n        <div class=\"response-container\">\n          <div class=\"response-instruction\">\n            <p>rotate the bar by using the left and right arrow keys.</p>\n            <p>when you are determined, press the Enter key.</p>\n          </div>\n          <div class=\"response-circle\">\n            <div class=\"response-fixation\"></div>\n            <div id=\"bar\" class=\"rotating-bar\"></div>\n          </div>\n        </div>\n      ","response":"Enter","trial_type":"html-keyboard-response","trial_index":4,"plugin_version":"2.1.0","time_elapsed":48009,"response_angle_css":48,"response_angle_rdk":42,"angular_error_target":-58,"angular_error_distractor":32,"target_direction":100,"target_group":"black","reward_points":0},{"rt":null,"stimulus":"\n          <p style=\"color: #FF3333;\">Your reward: 0 points</p>\n        ","response":null,"trial_type":"html-keyboard-response","trial_index":5,"plugin_version":"2.1.0","time_elapsed":50011},{"rt":null,"stimulus":"<div class=\"fixation\" style=\"font-size: 60px;\">+</div>","response":null,"trial_type":"html-keyboard-response","trial_index":6,"plugin_version":"2.1.0","time_elapsed":51013},{"target_group":"white","target_index":0,"condition_label":"W_H_vs_B_L","rt":1704,"response":"ArrowLeft","correct":false,"choices":"ALL_KEYS","correct_choice":["a"],"trial_duration":2000,"flip_timestamps":[],"response_ends_trial":false,"number_of_apertures":2,"number_of_dots":[100,50],"number_of_sets":1,"coherent_direction":[150,30],"coherence":1,"opposite_coherence":0,"dot_radius":2,"dot_side_length":1,"dot_life":-1,"move_distance":1,"aperture_width":300,"aperture_height":300,"dot_color":["white","black"],"dot_shape":"circle","background_color":"#AAA","RDK_type":3,"aperture_type":2,"reinsert_type":2,"frame_rate":45.27272727272727,"frame_rate_array":[1,17,16,17,48,46,54,45,54,46,53,46,40,54,50,41,54,46,54,45,54,46,40,52,51,43,53,46,54,45,54,45,40,52,51,53,46,39,54,48,54,48,52,45],"number_of_frames":44,"aperture_center_x":960,"aperture_center_y":540,"fixation_cross":true,"fixation_cross_width":15,"fixation_cross_height":15,"fixation_cross_color":"#111","fixation_cross_thickness":1,"border":true,"border_thickness":2,"border_color":"transparent","canvas_width":1920,"canvas_height":1080,"trial_type":"rdk","trial_index":7,"plugin_version":"2.0.0","time_elapsed":53018,"target_direction":150,"distractor_direction":30},{"rt":8645,"stimulus":"\n        <div class=\"response-container\">\n          <div class=\"response-instruction\">\n            <p>rotate the bar by using the left and right arrow keys.</p>\n            <p>when you are determined, press the Enter key.</p>\n          </div>\n          <div class=\"response-circle\">\n            <div class=\"response-fixation\"></div>\n            <div id=\"bar\" class=\"rotating-bar\"></div>\n          </div>\n        </div>\n      ","response":"Enter","trial_type":"html-keyboard-response","trial_index":8,"plugin_version":"2.1.0","time_elapsed":61665,"response_angle_css":448,"response_angle_rdk":2,"angular_error_target":-148,"angular_error_distractor":-28,"target_direction":150,"target_group":"white","reward_points":0},{"rt":null,"stimulus":"\n          <p style=\"color: #FF3333;\">Your reward: 0 points</p>\n        ","response":null,"trial_type":"html-keyboard-response","trial_index":9,"plugin_version":"2.1.0","time_elapsed":63667},{"rt":null,"stimulus":"<div class=\"fixation\" style=\"font-size: 60px;\">+</div>","response":null,"trial_type":"html-keyboard-response","trial_index":10,"plugin_version":"2.1.0","time_elapsed":64668},{"target_group":"black","target_index":1,"condition_label":"B_H_vs_W_L","rt":-1,"response":"","correct":false,"choices":"ALL_KEYS","correct_choice":["a"],"trial_duration":2000,"flip_timestamps":[],"response_ends_trial":false,"number_of_apertures":2,"number_of_dots":[50,100],"number_of_sets":1,"coherent_direction":[270,180],"coherence":1,"opposite_coherence":0,"dot_radius":2,"dot_side_length":1,"dot_life":-1,"move_distance":1,"aperture_width":300,"aperture_height":300,"dot_color":["white","black"],"dot_shape":"circle","background_color":"#AAA","RDK_type":3,"aperture_type":2,"reinsert_type":2,"frame_rate":44.70454545454545,"frame_rate_array":[2,17,27,54,45,56,44,41,43,53,46,55,45,40,52,1,53,52,46,50,46,45,43,53,47,52,50,50,45,45,43,53,46,53,47,39,57,46,54,46,40,54,50,41],"number_of_frames":44,"aperture_center_x":960,"aperture_center_y":540,"fixation_cross":true,"fixation_cross_width":15,"fixation_cross_height":15,"fixation_cross_color":"#111","fixation_cross_thickness":1,"border":true,"border_thickness":2,"border_color":"transparent","canvas_width":1920,"canvas_height":1080,"trial_type":"rdk","trial_index":11,"plugin_version":"2.0.0","time_elapsed":66672,"target_direction":180,"distractor_direction":270},{"rt":1905,"stimulus":"\n        <div class=\"response-container\">\n          <div class=\"response-instruction\">\n            <p>rotate the bar by using the left and right arrow keys.</p>\n            <p>when you are determined, press the Enter key.</p>\n          </div>\n          <div class=\"response-circle\">\n            <div class=\"response-fixation\"></div>\n            <div id=\"bar\" class=\"rotating-bar\"></div>\n          </div>\n        </div>\n      ","response":"Enter","trial_type":"html-keyboard-response","trial_index":12,"plugin_version":"2.1.0","time_elapsed":68578,"response_angle_css":280,"response_angle_rdk":170,"angular_error_target":-10,"angular_error_distractor":-100,"target_direction":180,"target_group":"black","reward_points":8},{"rt":null,"stimulus":"\n          <p style=\"color: #00FF00;\">Your reward: 8 points</p>\n        ","response":null,"trial_type":"html-keyboard-response","trial_index":13,"plugin_version":"2.1.0","time_elapsed":70579},{"rt":3502,"stimulus":"\n        <div class=\"instructions-container\">\n          <h2>End of Practice</h2>\n          <p>You have completed the practice trials.</p>\n          <p>Press <strong>Enter</strong> key to begin the main experiment.</p>\n        </div>\n      ","response":"Enter","trial_type":"html-keyboard-response","trial_index":14,"plugin_version":"2.1.0","time_elapsed":74082},{"rt":null,"stimulus":"<div class=\"fixation\" style=\"font-size: 60px;\">+</div>","response":null,"trial_type":"html-keyboard-response","trial_index":15,"plugin_version":"2.1.0","time_elapsed":75084},{"target_group":"black","condition_label":"B_H_vs_W_L_rep24","target_direction":127,"distractor_direction":221,"session_rotation":35,"rt":-1,"response":"","correct":false,"choices":"ALL_KEYS","correct_choice":["a"],"trial_duration":2000,"flip_timestamps":[],"response_ends_trial":false,"number_of_apertures":200,"number_of_dots":[1,1,1,1,1,1,1,1,1,1,1,1,1,1,1,1,1,1,1,1,1,1,1,1,1,1,1,1,1,1,1,1,1,1,1,1,1,1,1,1,1,1,1,1,1,1,1,1,1,1,1,1,1,1,1,1,1,1,1,1,1,1,1,1,1,1,1,1,1,1,1,1,1,1,1,1,1,1,1,1,1,1,1,1,1,1,1,1,1,1,1,1,1,1,1,1,1,1,1,1,1,1,1,1,1,1,1,1,1,1,1,1,1,1,1,1,1,1,1,1,1,1,1,1,1,1,1,1,1,1,1,1,1,1,1,1,1,1,1,1,1,1,1,1,1,1,1,1,1,1,1,1,1,1,1,1,1,1,1,1,1,1,1,1,1,1,1,1,1,1,1,1,1,1,1,1,1,1,1,1,1,1,1,1,1,1,1,1,1,1,1,1,1,1,1,1,1,1,1,1],"number_of_sets":1,"coherent_direction":[127,127,221,127,221,221,127,127,221,127,221,127,127,127,221,221,221,221,127,221,221,127,221,221,127,221,221,221,221,127,221,127,127,221,127,127,127,221,221,127,221,221,127,127,127,127,221,127,221,221,221,127,127,127,221,221,127,221,127,221,221,127,127,127,221,221,127,221,221,221,221,221,127,127,221,221,221,127,221,127,221,127,127,127,221,221,221,127,127,127,221,221,127,127,221,127,221,127,127,221,127,221,221,221,221,127,221,221,221,221,221,127,127,221,127,127,221,127,221,221,221,221,221,127,127,127,127,221,127,127,127,221,127,127,221,221,127,127,127,221,127,221,127,221,127,221,221,221,221,127,221,221,127,221,221,127,127,221,127,127,127,221,127,127,221,127,127,221,127,221,127,221,127,127,127,127,127,127,221,221,127,127,221,127,221,127,127,127,127,221,221,127,221,127,221,221,127,221,127,221],"coherence":1,"opposite_coherence":0,"dot_radius":2,"dot_side_length":1,"dot_life":-1,"move_distance":1,"aperture_width":300,"aperture_height":300,"dot_color":["black","black","white","black","white","white","black","black","white","black","white","black","black","black","white","white","white","white","black","white","white","black","white","white","black","white","white","white","white","black","white","black","black","white","black","black","black","white","white","black","white","white","black","black","black","black","white","black","white","white","white","black","black","black","white","white","black","white","black","white","white","black","black","black","white","white","black","white","white","white","white","white","black","black","white","white","white","black","white","black","white","black","black","black","white","white","white","black","black","black","white","white","black","black","white","black","white","black","black","white","black","white","white","white","white","black","white","white","white","white","white","black","black","white","black","black","white","black","white","white","white","white","white","black","black","black","black","white","black","black","black","white","black","black","white","white","black","black","black","white","black","white","black","white","black","white","white","white","white","black","white","white","black","white","white","black","black","white","black","black","black","white","black","black","white","black","black","white","black","white","black","white","black","black","black","black","black","black","white","white","black","black","white","black","white","black","black","black","black","white","white","black","white","black","white","white","black","white","black","white"],"dot_shape":"circle","background_color":"#AAA","RDK_type":3,"aperture_type":2,"reinsert_type":2,"frame_rate":45.20454545454545,"frame_rate_array":[2,14,17,16,51,46,41,55,44,40,51,51,54,46,41,53,53,54,45,49,45,44,59,43,50,49,50,45,54,45,40,51,52,53,46,46,52,47,49,46,53,50,51,46],"number_of_frames":44,"aperture_center_x":960,"aperture_center_y":540,"fixation_cross":true,"fixation_cross_width":15,"fixation_cross_height":15,"fixation_cross_color":"#111","fixation_cross_thickness":1,"border":true,"border_thickness":2,"border_color":"transparent","canvas_width":1920,"canvas_height":1080,"trial_type":"rdk","trial_index":16,"plugin_version":"2.0.0","time_elapsed":77087},{"rt":1074,"stimulus":"\n        <div class=\"response-container\">\n          <div class=\"response-instruction\">\n            <p>rotate the bar by using the left and right arrow keys.</p>\n            <p>when you are determined, press the Enter key.</p>\n          </div>\n          <div class=\"response-circle\">\n            <div class=\"response-fixation\"></div>\n            <div id=\"bar\" class=\"rotating-bar\"></div>\n          </div>\n        </div>\n      ","response":"Enter","trial_type":"html-keyboard-response","trial_index":17,"plugin_version":"2.1.0","time_elapsed":78162,"response_angle_css":304,"response_angle_rdk":146,"angular_error_target":19,"angular_error_distractor":-75,"target_direction":127,"target_group":"black","reward_points":6},{"rt":null,"stimulus":"\n          <p style=\"color: #00FF00;\">Your reward: 6 points</p>\n        ","response":null,"trial_type":"html-keyboard-response","trial_index":18,"plugin_version":"2.1.0","time_elapsed":80164},{"rt":null,"stimulus":"<div class=\"fixation\" style=\"font-size: 60px;\">+</div>","response":null,"trial_type":"html-keyboard-response","trial_index":19,"plugin_version":"2.1.0","time_elapsed":81165},{"target_group":"white","condition_label":"W_H_vs_B_L_rep3","target_direction":59,"distractor_direction":326,"session_rotation":35,"rt":-1,"response":"","correct":false,"choices":"ALL_KEYS","correct_choice":["a"],"trial_duration":2000,"flip_timestamps":[],"response_ends_trial":false,"number_of_apertures":200,"number_of_dots":[1,1,1,1,1,1,1,1,1,1,1,1,1,1,1,1,1,1,1,1,1,1,1,1,1,1,1,1,1,1,1,1,1,1,1,1,1,1,1,1,1,1,1,1,1,1,1,1,1,1,1,1,1,1,1,1,1,1,1,1,1,1,1,1,1,1,1,1,1,1,1,1,1,1,1,1,1,1,1,1,1,1,1,1,1,1,1,1,1,1,1,1,1,1,1,1,1,1,1,1,1,1,1,1,1,1,1,1,1,1,1,1,1,1,1,1,1,1,1,1,1,1,1,1,1,1,1,1,1,1,1,1,1,1,1,1,1,1,1,1,1,1,1,1,1,1,1,1,1,1,1,1,1,1,1,1,1,1,1,1,1,1,1,1,1,1,1,1,1,1,1,1,1,1,1,1,1,1,1,1,1,1,1,1,1,1,1,1,1,1,1,1,1,1,1,1,1,1,1,1],"number_of_sets":1,"coherent_direction":[59,326,59,326,59,326,59,326,326,326,59,59,59,59,59,59,59,326,326,59,326,326,326,59,326,326,59,326,326,326,326,59,326,326,326,59,326,59,59,326,326,326,326,326,326,59,59,326,326,326,59,59,326,59,59,326,326,59,59,59,326,326,326,326,326,59,59,59,326,59,59,59,326,59,59,59,59,326,326,326,59,326,326,59,326,59,326,59,59,59,326,59,59,59,326,326,326,59,59,59,326,326,326,326,59,59,326,326,326,326,326,326,326,326,59,59,59,59,326,59,326,59,59,59,326,326,326,326,59,326,326,59,326,59,59,59,326,326,59,59,326,326,326,59,59,59,59,59,59,326,59,326,326,326,59,59,59,59,59,59,326,59,59,59,59,326,59,326,326,326,326,326,326,59,326,59,326,326,326,59,59,59,59,326,326,59,59,59,59,326,326,59,59,59,326,326,59,59,326,59],"coherence":1,"opposite_coherence":0,"dot_radius":2,"dot_side_length":1,"dot_life":-1,"move_distance":1,"aperture_width":300,"aperture_height":300,"dot_color":["white","black","white","black","white","black","white","black","black","black","white","white","white","white","white","white","white","black","black","white","black","black","black","white","black","black","white","black","black","black","black","white","black","black","black","white","black","white","white","black","black","black","black","black","black","white","white","black","black","black","white","white","black","white","white","black","black","white","white","white","black","black","black","black","black","white","white","white","black","white","white","white","black","white","white","white","white","black","black","black","white","black","black","white","black","white","black","white","white","white","black","white","white","white","black","black","black","white","white","white","black","black","black","black","white","white","black","black","black","black","black","black","black","black","white","white","white","white","black","white","black","white","white","white","black","black","black","black","white","black","black","white","black","white","white","white","black","black","white","white","black","black","black","white","white","white","white","white","white","black","white","black","black","black","white","white","white","white","white","white","black","white","white","white","white","black","white","black","black","black","black","black","black","white","black","white","black","black","black","white","white","white","white","black","black","white","white","white","white","black","black","white","white","white","black","black","white","white","black","white"],"dot_shape":"circle","background_color":"#AAA","RDK_type":3,"aperture_type":2,"reinsert_type":2,"frame_rate":45.76744186046512,"frame_rate_array":[8,16,17,16,48,50,42,56,47,52,46,53,44,54,47,40,50,51,56,43,58,44,40,54,48,53,47,53,45,39,52,50,53,46,61,41,53,44,54,48,52,47,50],"number_of_frames":43,"aperture_center_x":960,"aperture_center_y":540,"fixation_cross":true,"fixation_cross_width":15,"fixation_cross_height":15,"fixation_cross_color":"#111","fixation_cross_thickness":1,"border":true,"border_thickness":2,"border_color":"transparent","canvas_width":1920,"canvas_height":1080,"trial_type":"rdk","trial_index":20,"plugin_version":"2.0.0","time_elapsed":83168},{"rt":4129,"stimulus":"\n        <div class=\"response-container\">\n          <div class=\"response-instruction\">\n            <p>rotate the bar by using the left and right arrow keys.</p>\n            <p>when you are determined, press the Enter key.</p>\n          </div>\n          <div class=\"response-circle\">\n            <div class=\"response-fixation\"></div>\n            <div id=\"bar\" class=\"rotating-bar\"></div>\n          </div>\n        </div>\n      ","response":"Enter","trial_type":"html-keyboard-response","trial_index":21,"plugin_version":"2.1.0","time_elapsed":87299,"response_angle_css":4,"response_angle_rdk":86,"angular_error_target":27,"angular_error_distractor":120,"target_direction":59,"target_group":"white","reward_points":4},{"rt":null,"stimulus":"\n          <p style=\"color: #00FF00;\">Your reward: 4 points</p>\n        ","response":null,"trial_type":"html-keyboard-response","trial_index":22,"plugin_version":"2.1.0","time_elapsed":89300},{"rt":null,"stimulus":"<div class=\"fixation\" style=\"font-size: 60px;\">+</div>","response":null,"trial_type":"html-keyboard-response","trial_index":23,"plugin_version":"2.1.0","time_elapsed":90301},{"target_group":"white","condition_label":"W_H_vs_B_L_rep16","target_direction":68,"distractor_direction":324,"session_rotation":35,"rt":-1,"response":"","correct":false,"choices":"ALL_KEYS","correct_choice":["a"],"trial_duration":2000,"flip_timestamps":[],"response_ends_trial":false,"number_of_apertures":200,"number_of_dots":[1,1,1,1,1,1,1,1,1,1,1,1,1,1,1,1,1,1,1,1,1,1,1,1,1,1,1,1,1,1,1,1,1,1,1,1,1,1,1,1,1,1,1,1,1,1,1,1,1,1,1,1,1,1,1,1,1,1,1,1,1,1,1,1,1,1,1,1,1,1,1,1,1,1,1,1,1,1,1,1,1,1,1,1,1,1,1,1,1,1,1,1,1,1,1,1,1,1,1,1,1,1,1,1,1,1,1,1,1,1,1,1,1,1,1,1,1,1,1,1,1,1,1,1,1,1,1,1,1,1,1,1,1,1,1,1,1,1,1,1,1,1,1,1,1,1,1,1,1,1,1,1,1,1,1,1,1,1,1,1,1,1,1,1,1,1,1,1,1,1,1,1,1,1,1,1,1,1,1,1,1,1,1,1,1,1,1,1,1,1,1,1,1,1,1,1,1,1,1,1],"number_of_sets":1,"coherent_direction":[324,324,324,68,324,324,68,324,68,324,68,68,324,68,68,68,68,68,324,324,68,324,68,324,68,68,324,324,68,324,68,324,68,68,68,324,68,324,68,68,324,68,68,324,324,324,324,68,324,324,324,68,324,324,68,68,324,68,324,324,68,68,68,68,324,68,68,68,324,324,68,324,324,324,324,68,324,324,324,324,324,324,68,324,324,324,324,68,324,68,68,68,68,68,324,68,324,68,68,324,68,324,324,68,324,68,68,68,68,68,68,324,68,324,68,68,68,324,68,324,68,324,68,68,68,324,68,324,68,324,324,68,68,324,324,68,324,68,68,68,324,324,324,324,68,324,324,68,324,324,324,324,68,68,324,324,324,324,68,324,324,68,324,324,68,68,68,324,68,68,68,324,324,324,68,68,324,324,68,68,324,68,324,68,68,324,324,324,68,324,68,68,324,68,68,68,68,68,324,324],"coherence":1,"opposite_coherence":0,"dot_radius":2,"dot_side_length":1,"dot_life":-1,"move_distance":1,"aperture_width":300,"aperture_height":300,"dot_color":["black","black","black","white","black","black","white","black","white","black","white","white","black","white","white","white","white","white","black","black","white","black","white","black","white","white","black","black","white","black","white","black","white","white","white","black","white","black","white","white","black","white","white","black","black","black","black","white","black","black","black","white","black","black","white","white","black","white","black","black","white","white","white","white","black","white","white","white","black","black","white","black","black","black","black","white","black","black","black","black","black","black","white","black","black","black","black","white","black","white","white","white","white","white","black","white","black","white","white","black","white","black","black","white","black","white","white","white","white","white","white","black","white","black","white","white","white","black","white","black","white","black","white","white","white","black","white","black","white","black","black","white","white","black","black","white","black","white","white","white","black","black","black","black","white","black","black","white","black","black","black","black","white","white","black","black","black","black","white","black","black","white","black","black","white","white","white","black","white","white","white","black","black","black","white","white","black","black","white","white","black","white","black","white","white","black","black","black","white","black","white","white","black","white","white","white","white","white","black","black"],"dot_shape":"circle","background_color":"#AAA","RDK_type":3,"aperture_type":2,"reinsert_type":2,"frame_rate":45.04545454545455,"frame_rate_array":[4,12,18,16,47,45,55,44,59,42,41,42,53,46,53,46,41,50,56,49,49,40,58,43,52,47,52,47,53,45,40,50,51,55,46,42,57,44,52,47,53,46,41,53],"number_of_frames":44,"aperture_center_x":960,"aperture_center_y":540,"fixation_cross":true,"fixation_cross_width":15,"fixation_cross_height":15,"fixation_cross_color":"#111","fixation_cross_thickness":1,"border":true,"border_thickness":2,"border_color":"transparent","canvas_width":1920,"canvas_height":1080,"trial_type":"rdk","trial_index":24,"plugin_version":"2.0.0","time_elapsed":92304},{"rt":3498,"stimulus":"\n        <div class=\"response-container\">\n          <div class=\"response-instruction\">\n            <p>rotate the bar by using the left and right arrow keys.</p>\n            <p>when you are determined, press the Enter key.</p>\n          </div>\n          <div class=\"response-circle\">\n            <div class=\"response-fixation\"></div>\n            <div id=\"bar\" class=\"rotating-bar\"></div>\n          </div>\n        </div>\n      ","response":"Enter","trial_type":"html-keyboard-response","trial_index":25,"plugin_version":"2.1.0","time_elapsed":95803,"response_angle_css":359,"response_angle_rdk":91,"angular_error_target":23,"angular_error_distractor":127,"target_direction":68,"target_group":"white","reward_points":5},{"rt":null,"stimulus":"\n          <p style=\"color: #00FF00;\">Your reward: 5 points</p>\n        ","response":null,"trial_type":"html-keyboard-response","trial_index":26,"plugin_version":"2.1.0","time_elapsed":97804},{"rt":null,"stimulus":"<div class=\"fixation\" style=\"font-size: 60px;\">+</div>","response":null,"trial_type":"html-keyboard-response","trial_index":27,"plugin_version":"2.1.0","time_elapsed":98805},{"target_group":"black","condition_label":"B_H_vs_W_L_rep3","target_direction":146,"distractor_direction":253,"session_rotation":35,"rt":-1,"response":"","correct":false,"choices":"ALL_KEYS","correct_choice":["a"],"trial_duration":2000,"flip_timestamps":[],"response_ends_trial":false,"number_of_apertures":200,"number_of_dots":[1,1,1,1,1,1,1,1,1,1,1,1,1,1,1,1,1,1,1,1,1,1,1,1,1,1,1,1,1,1,1,1,1,1,1,1,1,1,1,1,1,1,1,1,1,1,1,1,1,1,1,1,1,1,1,1,1,1,1,1,1,1,1,1,1,1,1,1,1,1,1,1,1,1,1,1,1,1,1,1,1,1,1,1,1,1,1,1,1,1,1,1,1,1,1,1,1,1,1,1,1,1,1,1,1,1,1,1,1,1,1,1,1,1,1,1,1,1,1,1,1,1,1,1,1,1,1,1,1,1,1,1,1,1,1,1,1,1,1,1,1,1,1,1,1,1,1,1,1,1,1,1,1,1,1,1,1,1,1,1,1,1,1,1,1,1,1,1,1,1,1,1,1,1,1,1,1,1,1,1,1,1,1,1,1,1,1,1,1,1,1,1,1,1,1,1,1,1,1,1],"number_of_sets":1,"coherent_direction":[146,146,146,146,146,146,253,146,146,253,253,253,253,253,253,253,146,146,146,146,146,253,146,253,146,253,253,146,253,146,253,146,146,146,146,146,253,253,146,253,146,253,146,253,253,253,146,253,253,253,253,146,253,146,253,146,253,253,253,146,253,146,253,253,253,253,253,146,253,253,253,146,253,253,146,146,253,146,253,146,253,253,146,253,253,253,253,146,146,146,253,146,146,146,253,146,253,253,146,146,253,253,253,146,146,146,146,146,253,146,253,146,146,253,253,253,146,146,253,146,146,253,253,146,146,146,253,146,146,146,253,146,253,253,146,146,146,146,253,146,253,146,146,253,253,253,253,146,146,253,146,146,253,253,146,146,253,146,146,146,253,146,253,253,146,253,146,146,146,253,253,146,253,253,253,253,146,253,146,253,146,253,253,146,253,253,146,253,146,146,253,253,146,146,253,146,146,253,253,146],"coherence":1,"opposite_coherence":0,"dot_radius":2,"dot_side_length":1,"dot_life":-1,"move_distance":1,"aperture_width":300,"aperture_height":300,"dot_color":["black","black","black","black","black","black","white","black","black","white","white","white","white","white","white","white","black","black","black","black","black","white","black","white","black","white","white","black","white","black","white","black","black","black","black","black","white","white","black","white","black","white","black","white","white","white","black","white","white","white","white","black","white","black","white","black","white","white","white","black","white","black","white","white","white","white","white","black","white","white","white","black","white","white","black","black","white","black","white","black","white","white","black","white","white","white","white","black","black","black","white","black","black","black","white","black","white","white","black","black","white","white","white","black","black","black","black","black","white","black","white","black","black","white","white","white","black","black","white","black","black","white","white","black","black","black","white","black","black","black","white","black","white","white","black","black","black","black","white","black","white","black","black","white","white","white","white","black","black","white","black","black","white","white","black","black","white","black","black","black","white","black","white","white","black","white","black","black","black","white","white","black","white","white","white","white","black","white","black","white","black","white","white","black","white","white","black","white","black","black","white","white","black","black","white","black","black","white","white","black"],"dot_shape":"circle","background_color":"#AAA","RDK_type":3,"aperture_type":2,"reinsert_type":2,"frame_rate":45.31818181818182,"frame_rate_array":[4,18,25,54,45,54,43,54,46,54,46,40,50,53,51,46,39,3,50,55,51,47,50,47,40,52,51,54,44,39,55,50,41,53,46,53,45,55,46,40,50,51,56,48],"number_of_frames":44,"aperture_center_x":960,"aperture_center_y":540,"fixation_cross":true,"fixation_cross_width":15,"fixation_cross_height":15,"fixation_cross_color":"#111","fixation_cross_thickness":1,"border":true,"border_thickness":2,"border_color":"transparent","canvas_width":1920,"canvas_height":1080,"trial_type":"rdk","trial_index":28,"plugin_version":"2.0.0","time_elapsed":100809},{"rt":3282,"stimulus":"\n        <div class=\"response-container\">\n          <div class=\"response-instruction\">\n            <p>rotate the bar by using the left and right arrow keys.</p>\n            <p>when you are determined, press the Enter key.</p>\n          </div>\n          <div class=\"response-circle\">\n            <div class=\"response-fixation\"></div>\n            <div id=\"bar\" class=\"rotating-bar\"></div>\n          </div>\n        </div>\n      ","response":"Enter","trial_type":"html-keyboard-response","trial_index":29,"plugin_version":"2.1.0","time_elapsed":104092,"response_angle_css":180,"response_angle_rdk":270,"angular_error_target":124,"angular_error_distractor":17,"target_direction":146,"target_group":"black","reward_points":0},{"rt":null,"stimulus":"\n          <p style=\"color: #FF3333;\">Your reward: 0 points</p>\n        ","response":null,"trial_type":"html-keyboard-response","trial_index":30,"plugin_version":"2.1.0","time_elapsed":106093},{"rt":null,"stimulus":"<div class=\"fixation\" style=\"font-size: 60px;\">+</div>","response":null,"trial_type":"html-keyboard-response","trial_index":31,"plugin_version":"2.1.0","time_elapsed":107095},{"target_group":"white","condition_label":"W_H_vs_B_L_rep8","target_direction":47,"distractor_direction":308,"session_rotation":35,"rt":-1,"response":"","correct":false,"choices":"ALL_KEYS","correct_choice":["a"],"trial_duration":2000,"flip_timestamps":[],"response_ends_trial":false,"number_of_apertures":200,"number_of_dots":[1,1,1,1,1,1,1,1,1,1,1,1,1,1,1,1,1,1,1,1,1,1,1,1,1,1,1,1,1,1,1,1,1,1,1,1,1,1,1,1,1,1,1,1,1,1,1,1,1,1,1,1,1,1,1,1,1,1,1,1,1,1,1,1,1,1,1,1,1,1,1,1,1,1,1,1,1,1,1,1,1,1,1,1,1,1,1,1,1,1,1,1,1,1,1,1,1,1,1,1,1,1,1,1,1,1,1,1,1,1,1,1,1,1,1,1,1,1,1,1,1,1,1,1,1,1,1,1,1,1,1,1,1,1,1,1,1,1,1,1,1,1,1,1,1,1,1,1,1,1,1,1,1,1,1,1,1,1,1,1,1,1,1,1,1,1,1,1,1,1,1,1,1,1,1,1,1,1,1,1,1,1,1,1,1,1,1,1,1,1,1,1,1,1,1,1,1,1,1,1],"number_of_sets":1,"coherent_direction":[47,308,47,47,47,47,308,47,308,47,308,47,308,47,308,308,308,47,308,47,47,47,308,308,308,308,47,308,47,308,308,47,47,308,308,47,308,308,47,47,308,308,308,47,308,308,308,47,308,308,308,47,308,47,308,308,47,308,308,308,47,47,47,308,47,47,47,308,47,47,47,47,308,308,308,308,308,308,47,47,47,308,47,47,47,308,308,308,47,47,308,47,47,47,47,47,308,308,308,308,308,47,47,47,47,308,47,308,47,47,308,47,47,308,47,308,308,47,47,47,47,47,47,47,308,47,308,47,47,47,308,47,308,47,308,47,47,308,47,308,308,308,308,308,308,308,308,47,47,308,308,47,308,47,308,47,47,47,308,308,308,47,308,308,47,47,47,47,308,47,47,308,308,308,47,47,47,47,308,308,308,47,308,308,308,47,308,308,308,47,47,47,308,308,308,47,308,308,47,47],"coherence":1,"opposite_coherence":0,"dot_radius":2,"dot_side_length":1,"dot_life":-1,"move_distance":1,"aperture_width":300,"aperture_height":300,"dot_color":["white","black","white","white","white","white","black","white","black","white","black","white","black","white","black","black","black","white","black","white","white","white","black","black","black","black","white","black","white","black","black","white","white","black","black","white","black","black","white","white","black","black","black","white","black","black","black","white","black","black","black","white","black","white","black","black","white","black","black","black","white","white","white","black","white","white","white","black","white","white","white","white","black","black","black","black","black","black","white","white","white","black","white","white","white","black","black","black","white","white","black","white","white","white","white","white","black","black","black","black","black","white","white","white","white","black","white","black","white","white","black","white","white","black","white","black","black","white","white","white","white","white","white","white","black","white","black","white","white","white","black","white","black","white","black","white","white","black","white","black","black","black","black","black","black","black","black","white","white","black","black","white","black","white","black","white","white","white","black","black","black","white","black","black","white","white","white","white","black","white","white","black","black","black","white","white","white","white","black","black","black","white","black","black","black","white","black","black","black","white","white","white","black","black","black","white","black","black","white","white"],"dot_shape":"circle","background_color":"#AAA","RDK_type":3,"aperture_type":2,"reinsert_type":2,"frame_rate":45.31818181818182,"frame_rate_array":[7,16,16,17,48,44,58,41,52,45,54,45,54,45,42,49,51,55,47,41,44,52,48,53,48,41,56,45,50,48,53,45,54,45,39,53,49,53,46,40,53,56,49,47],"number_of_frames":44,"aperture_center_x":960,"aperture_center_y":540,"fixation_cross":true,"fixation_cross_width":15,"fixation_cross_height":15,"fixation_cross_color":"#111","fixation_cross_thickness":1,"border":true,"border_thickness":2,"border_color":"transparent","canvas_width":1920,"canvas_height":1080,"trial_type":"rdk","trial_index":32,"plugin_version":"2.0.0","time_elapsed":109099},{"rt":1233,"stimulus":"\n        <div class=\"response-container\">\n          <div class=\"response-instruction\">\n            <p>rotate the bar by using the left and right arrow keys.</p>\n            <p>when you are determined, press the Enter key.</p>\n          </div>\n          <div class=\"response-circle\">\n            <div class=\"response-fixation\"></div>\n            <div id=\"bar\" class=\"rotating-bar\"></div>\n          </div>\n        </div>\n      ","response":"Enter","trial_type":"html-keyboard-response","trial_index":33,"plugin_version":"2.1.0","time_elapsed":110332,"response_angle_css":179,"response_angle_rdk":271,"angular_error_target":-136,"angular_error_distractor":-37,"target_direction":47,"target_group":"white","reward_points":0},{"rt":null,"stimulus":"\n          <p style=\"color: #FF3333;\">Your reward: 0 points</p>\n        ","response":null,"trial_type":"html-keyboard-response","trial_index":34,"plugin_version":"2.1.0","time_elapsed":112333},{"rt":null,"stimulus":"<div class=\"fixation\" style=\"font-size: 60px;\">+</div>","response":null,"trial_type":"html-keyboard-response","trial_index":35,"plugin_version":"2.1.0","time_elapsed":113335},{"target_group":"black","condition_label":"B_H_vs_W_L_rep12","target_direction":141,"distractor_direction":259,"session_rotation":35,"rt":-1,"response":"","correct":false,"choices":"ALL_KEYS","correct_choice":["a"],"trial_duration":2000,"flip_timestamps":[],"response_ends_trial":false,"number_of_apertures":200,"number_of_dots":[1,1,1,1,1,1,1,1,1,1,1,1,1,1,1,1,1,1,1,1,1,1,1,1,1,1,1,1,1,1,1,1,1,1,1,1,1,1,1,1,1,1,1,1,1,1,1,1,1,1,1,1,1,1,1,1,1,1,1,1,1,1,1,1,1,1,1,1,1,1,1,1,1,1,1,1,1,1,1,1,1,1,1,1,1,1,1,1,1,1,1,1,1,1,1,1,1,1,1,1,1,1,1,1,1,1,1,1,1,1,1,1,1,1,1,1,1,1,1,1,1,1,1,1,1,1,1,1,1,1,1,1,1,1,1,1,1,1,1,1,1,1,1,1,1,1,1,1,1,1,1,1,1,1,1,1,1,1,1,1,1,1,1,1,1,1,1,1,1,1,1,1,1,1,1,1,1,1,1,1,1,1,1,1,1,1,1,1,1,1,1,1,1,1,1,1,1,1,1,1],"number_of_sets":1,"coherent_direction":[141,259,259,141,259,141,141,259,141,259,141,141,141,141,259,141,259,141,259,141,259,259,259,259,141,141,141,141,141,141,141,141,141,259,259,141,259,259,259,141,259,259,259,141,259,141,259,141,259,141,141,141,259,259,259,259,259,259,141,259,141,141,259,259,141,259,141,141,259,141,141,259,141,141,141,259,141,141,259,141,259,259,141,259,141,141,141,141,259,141,141,141,141,259,259,259,141,141,259,259,259,259,141,141,141,259,259,259,141,259,259,259,259,259,259,141,141,141,259,141,259,141,259,141,141,259,141,141,141,259,259,259,141,259,141,141,259,259,259,259,141,141,259,141,141,259,259,259,259,259,259,259,141,141,259,259,259,259,141,141,259,141,259,259,141,141,259,141,141,141,259,259,259,141,141,141,259,259,259,259,141,141,259,259,141,141,141,259,259,141,259,141,259,141,141,141,259,141,141,259],"coherence":1,"opposite_coherence":0,"dot_radius":2,"dot_side_length":1,"dot_life":-1,"move_distance":1,"aperture_width":300,"aperture_height":300,"dot_color":["black","white","white","black","white","black","black","white","black","white","black","black","black","black","white","black","white","black","white","black","white","white","white","white","black","black","black","black","black","black","black","black","black","white","white","black","white","white","white","black","white","white","white","black","white","black","white","black","white","black","black","black","white","white","white","white","white","white","black","white","black","black","white","white","black","white","black","black","white","black","black","white","black","black","black","white","black","black","white","black","white","white","black","white","black","black","black","black","white","black","black","black","black","white","white","white","black","black","white","white","white","white","black","black","black","white","white","white","black","white","white","white","white","white","white","black","black","black","white","black","white","black","white","black","black","white","black","black","black","white","white","white","black","white","black","black","white","white","white","white","black","black","white","black","black","white","white","white","white","white","white","white","black","black","white","white","white","white","black","black","white","black","white","white","black","black","white","black","black","black","white","white","white","black","black","black","white","white","white","white","black","black","white","white","black","black","black","white","white","black","white","black","white","black","black","black","white","black","black","white"],"dot_shape":"circle","background_color":"#AAA","RDK_type":3,"aperture_type":2,"reinsert_type":2,"frame_rate":45.604651162790695,"frame_rate_array":[9,16,24,48,46,52,48,53,48,50,47,4,38,58,42,60,44,40,55,47,53,45,54,47,39,52,49,54,47,59,42,52,47,52,45,54,47,48,48,51,47,53,47],"number_of_frames":43,"aperture_center_x":960,"aperture_center_y":540,"fixation_cross":true,"fixation_cross_width":15,"fixation_cross_height":15,"fixation_cross_color":"#111","fixation_cross_thickness":1,"border":true,"border_thickness":2,"border_color":"transparent","canvas_width":1920,"canvas_height":1080,"trial_type":"rdk","trial_index":36,"plugin_version":"2.0.0","time_elapsed":115338},{"rt":2849,"stimulus":"\n        <div class=\"response-container\">\n          <div class=\"response-instruction\">\n            <p>rotate the bar by using the left and right arrow keys.</p>\n            <p>when you are determined, press the Enter key.</p>\n          </div>\n          <div class=\"response-circle\">\n            <div class=\"response-fixation\"></div>\n            <div id=\"bar\" class=\"rotating-bar\"></div>\n          </div>\n        </div>\n      ","response":"Enter","trial_type":"html-keyboard-response","trial_index":37,"plugin_version":"2.1.0","time_elapsed":118188,"response_angle_css":358,"response_angle_rdk":92,"angular_error_target":-49,"angular_error_distractor":-167,"target_direction":141,"target_group":"black","reward_points":0},{"rt":null,"stimulus":"\n          <p style=\"color: #FF3333;\">Your reward: 0 points</p>\n        ","response":null,"trial_type":"html-keyboard-response","trial_index":38,"plugin_version":"2.1.0","time_elapsed":120189},{"rt":null,"stimulus":"<div class=\"fixation\" style=\"font-size: 60px;\">+</div>","response":null,"trial_type":"html-keyboard-response","trial_index":39,"plugin_version":"2.1.0","time_elapsed":121190},{"target_group":"black","condition_label":"B_H_vs_W_L_rep17","target_direction":162,"distractor_direction":258,"session_rotation":35,"rt":-1,"response":"","correct":false,"choices":"ALL_KEYS","correct_choice":["a"],"trial_duration":2000,"flip_timestamps":[],"response_ends_trial":false,"number_of_apertures":200,"number_of_dots":[1,1,1,1,1,1,1,1,1,1,1,1,1,1,1,1,1,1,1,1,1,1,1,1,1,1,1,1,1,1,1,1,1,1,1,1,1,1,1,1,1,1,1,1,1,1,1,1,1,1,1,1,1,1,1,1,1,1,1,1,1,1,1,1,1,1,1,1,1,1,1,1,1,1,1,1,1,1,1,1,1,1,1,1,1,1,1,1,1,1,1,1,1,1,1,1,1,1,1,1,1,1,1,1,1,1,1,1,1,1,1,1,1,1,1,1,1,1,1,1,1,1,1,1,1,1,1,1,1,1,1,1,1,1,1,1,1,1,1,1,1,1,1,1,1,1,1,1,1,1,1,1,1,1,1,1,1,1,1,1,1,1,1,1,1,1,1,1,1,1,1,1,1,1,1,1,1,1,1,1,1,1,1,1,1,1,1,1,1,1,1,1,1,1,1,1,1,1,1,1],"number_of_sets":1,"coherent_direction":[258,162,258,162,258,258,162,258,258,258,162,258,258,258,162,258,258,258,162,162,258,162,162,258,258,258,258,162,162,162,162,258,162,162,258,258,162,258,162,258,162,258,162,162,258,258,162,258,258,162,258,258,258,258,258,258,162,162,258,258,258,258,258,162,162,162,258,258,162,258,162,162,258,258,258,162,162,162,258,258,162,162,258,162,162,162,258,258,162,162,162,162,162,258,258,258,162,258,162,162,162,258,258,258,162,162,258,258,258,258,162,162,162,162,162,162,258,162,258,162,258,258,162,162,162,162,162,258,258,162,258,162,162,162,258,162,162,258,258,162,258,258,258,162,258,162,258,162,162,162,258,258,258,162,258,258,162,162,258,258,162,162,162,162,162,162,258,258,258,162,258,258,162,162,162,162,162,258,162,162,258,162,162,258,258,258,258,258,162,258,258,162,162,162,258,258,162,162,162,258],"coherence":1,"opposite_coherence":0,"dot_radius":2,"dot_side_length":1,"dot_life":-1,"move_distance":1,"aperture_width":300,"aperture_height":300,"dot_color":["white","black","white","black","white","white","black","white","white","white","black","white","white","white","black","white","white","white","black","black","white","black","black","white","white","white","white","black","black","black","black","white","black","black","white","white","black","white","black","white","black","white","black","black","white","white","black","white","white","black","white","white","white","white","white","white","black","black","white","white","white","white","white","black","black","black","white","white","black","white","black","black","white","white","white","black","black","black","white","white","black","black","white","black","black","black","white","white","black","black","black","black","black","white","white","white","black","white","black","black","black","white","white","white","black","black","white","white","white","white","black","black","black","black","black","black","white","black","white","black","white","white","black","black","black","black","black","white","white","black","white","black","black","black","white","black","black","white","white","black","white","white","white","black","white","black","white","black","black","black","white","white","white","black","white","white","black","black","white","white","black","black","black","black","black","black","white","white","white","black","white","white","black","black","black","black","black","white","black","black","white","black","black","white","white","white","white","white","black","white","white","black","black","black","white","white","black","black","black","white"],"dot_shape":"circle","background_color":"#AAA","RDK_type":3,"aperture_type":2,"reinsert_type":2,"frame_rate":45.22727272727273,"frame_rate_array":[13,16,20,54,45,42,52,44,59,3,41,41,54,49,52,47,51,49,40,53,46,53,47,53,45,39,52,50,56,50,39,61,42,52,44,53,45,53,47,38,52,51,52,45],"number_of_frames":44,"aperture_center_x":960,"aperture_center_y":540,"fixation_cross":true,"fixation_cross_width":15,"fixation_cross_height":15,"fixation_cross_color":"#111","fixation_cross_thickness":1,"border":true,"border_thickness":2,"border_color":"transparent","canvas_width":1920,"canvas_height":1080,"trial_type":"rdk","trial_index":40,"plugin_version":"2.0.0","time_elapsed":123193},{"rt":3451,"stimulus":"\n        <div class=\"response-container\">\n          <div class=\"response-instruction\">\n            <p>rotate the bar by using the left and right arrow keys.</p>\n            <p>when you are determined, press the Enter key.</p>\n          </div>\n          <div class=\"response-circle\">\n            <div class=\"response-fixation\"></div>\n            <div id=\"bar\" class=\"rotating-bar\"></div>\n          </div>\n        </div>\n      ","response":"Enter","trial_type":"html-keyboard-response","trial_index":41,"plugin_version":"2.1.0","time_elapsed":126645,"response_angle_css":172,"response_angle_rdk":278,"angular_error_target":116,"angular_error_distractor":20,"target_direction":162,"target_group":"black","reward_points":0},{"rt":null,"stimulus":"\n          <p style=\"color: #FF3333;\">Your reward: 0 points</p>\n        ","response":null,"trial_type":"html-keyboard-response","trial_index":42,"plugin_version":"2.1.0","time_elapsed":128646},{"rt":null,"stimulus":"<div class=\"fixation\" style=\"font-size: 60px;\">+</div>","response":null,"trial_type":"html-keyboard-response","trial_index":43,"plugin_version":"2.1.0","time_elapsed":129647},{"target_group":"black","condition_label":"B_H_vs_W_L_rep7","target_direction":144,"distractor_direction":248,"session_rotation":35,"rt":-1,"response":"","correct":false,"choices":"ALL_KEYS","correct_choice":["a"],"trial_duration":2000,"flip_timestamps":[],"response_ends_trial":false,"number_of_apertures":200,"number_of_dots":[1,1,1,1,1,1,1,1,1,1,1,1,1,1,1,1,1,1,1,1,1,1,1,1,1,1,1,1,1,1,1,1,1,1,1,1,1,1,1,1,1,1,1,1,1,1,1,1,1,1,1,1,1,1,1,1,1,1,1,1,1,1,1,1,1,1,1,1,1,1,1,1,1,1,1,1,1,1,1,1,1,1,1,1,1,1,1,1,1,1,1,1,1,1,1,1,1,1,1,1,1,1,1,1,1,1,1,1,1,1,1,1,1,1,1,1,1,1,1,1,1,1,1,1,1,1,1,1,1,1,1,1,1,1,1,1,1,1,1,1,1,1,1,1,1,1,1,1,1,1,1,1,1,1,1,1,1,1,1,1,1,1,1,1,1,1,1,1,1,1,1,1,1,1,1,1,1,1,1,1,1,1,1,1,1,1,1,1,1,1,1,1,1,1,1,1,1,1,1,1],"number_of_sets":1,"coherent_direction":[144,248,144,144,144,248,248,248,144,248,248,144,144,248,144,248,248,144,248,144,144,144,144,248,248,144,248,248,144,248,248,144,144,248,248,144,248,144,144,248,248,248,248,248,144,144,144,144,144,248,144,144,248,144,248,144,144,248,248,248,248,248,248,144,248,248,144,248,144,248,248,248,248,144,144,248,248,248,144,248,144,248,248,144,248,248,144,144,144,144,144,248,144,144,248,248,144,248,144,248,248,248,144,144,248,144,248,144,144,144,144,144,144,248,248,144,248,144,144,144,248,144,248,144,144,144,144,144,248,144,144,248,144,248,248,248,144,144,248,248,248,144,144,144,144,248,248,248,144,144,248,144,248,248,248,248,248,144,248,144,144,144,248,144,248,144,144,144,144,144,248,144,144,144,248,248,248,248,248,248,144,144,144,248,144,248,248,248,248,248,144,248,248,144,248,248,248,144,144,144],"coherence":1,"opposite_coherence":0,"dot_radius":2,"dot_side_length":1,"dot_life":-1,"move_distance":1,"aperture_width":300,"aperture_height":300,"dot_color":["black","white","black","black","black","white","white","white","black","white","white","black","black","white","black","white","white","black","white","black","black","black","black","white","white","black","white","white","black","white","white","black","black","white","white","black","white","black","black","white","white","white","white","white","black","black","black","black","black","white","black","black","white","black","white","black","black","white","white","white","white","white","white","black","white","white","black","white","black","white","white","white","white","black","black","white","white","white","black","white","black","white","white","black","white","white","black","black","black","black","black","white","black","black","white","white","black","white","black","white","white","white","black","black","white","black","white","black","black","black","black","black","black","white","white","black","white","black","black","black","white","black","white","black","black","black","black","black","white","black","black","white","black","white","white","white","black","black","white","white","white","black","black","black","black","white","white","white","black","black","white","black","white","white","white","white","white","black","white","black","black","black","white","black","white","black","black","black","black","black","white","black","black","black","white","white","white","white","white","white","black","black","black","white","black","white","white","white","white","white","black","white","white","black","white","white","white","black","black","black"],"dot_shape":"circle","background_color":"#AAA","RDK_type":3,"aperture_type":2,"reinsert_type":2,"frame_rate":45.46511627906977,"frame_rate_array":[14,16,19,53,46,54,47,53,46,44,48,45,44,3,50,49,54,47,55,46,52,48,52,47,54,46,43,53,45,53,47,54,43,41,56,46,56,47,40,54,47,50,48],"number_of_frames":43,"aperture_center_x":960,"aperture_center_y":540,"fixation_cross":true,"fixation_cross_width":15,"fixation_cross_height":15,"fixation_cross_color":"#111","fixation_cross_thickness":1,"border":true,"border_thickness":2,"border_color":"transparent","canvas_width":1920,"canvas_height":1080,"trial_type":"rdk","trial_index":44,"plugin_version":"2.0.0","time_elapsed":131650},{"rt":2658,"stimulus":"\n        <div class=\"response-container\">\n          <div class=\"response-instruction\">\n            <p>rotate the bar by using the left and right arrow keys.</p>\n            <p>when you are determined, press the Enter key.</p>\n          </div>\n          <div class=\"response-circle\">\n            <div class=\"response-fixation\"></div>\n            <div id=\"bar\" class=\"rotating-bar\"></div>\n          </div>\n        </div>\n      ","response":"Enter","trial_type":"html-keyboard-response","trial_index":45,"plugin_version":"2.1.0","time_elapsed":134309,"response_angle_css":-17,"response_angle_rdk":107,"angular_error_target":-37,"angular_error_distractor":-141,"target_direction":144,"target_group":"black","reward_points":2},{"rt":null,"stimulus":"\n          <p style=\"color: #FF3333;\">Your reward: 2 points</p>\n        ","response":null,"trial_type":"html-keyboard-response","trial_index":46,"plugin_version":"2.1.0","time_elapsed":136310},{"rt":null,"stimulus":"<div class=\"fixation\" style=\"font-size: 60px;\">+</div>","response":null,"trial_type":"html-keyboard-response","trial_index":47,"plugin_version":"2.1.0","time_elapsed":137311},{"target_group":"white","condition_label":"W_H_vs_B_L_rep4","target_direction":78,"distractor_direction":329,"session_rotation":35,"rt":-1,"response":"","correct":false,"choices":"ALL_KEYS","correct_choice":["a"],"trial_duration":2000,"flip_timestamps":[],"response_ends_trial":false,"number_of_apertures":200,"number_of_dots":[1,1,1,1,1,1,1,1,1,1,1,1,1,1,1,1,1,1,1,1,1,1,1,1,1,1,1,1,1,1,1,1,1,1,1,1,1,1,1,1,1,1,1,1,1,1,1,1,1,1,1,1,1,1,1,1,1,1,1,1,1,1,1,1,1,1,1,1,1,1,1,1,1,1,1,1,1,1,1,1,1,1,1,1,1,1,1,1,1,1,1,1,1,1,1,1,1,1,1,1,1,1,1,1,1,1,1,1,1,1,1,1,1,1,1,1,1,1,1,1,1,1,1,1,1,1,1,1,1,1,1,1,1,1,1,1,1,1,1,1,1,1,1,1,1,1,1,1,1,1,1,1,1,1,1,1,1,1,1,1,1,1,1,1,1,1,1,1,1,1,1,1,1,1,1,1,1,1,1,1,1,1,1,1,1,1,1,1,1,1,1,1,1,1,1,1,1,1,1,1],"number_of_sets":1,"coherent_direction":[78,78,78,78,329,78,329,329,329,78,329,78,78,78,78,78,78,329,78,329,78,329,78,78,329,329,329,78,329,78,78,329,78,329,78,78,329,329,329,78,78,78,329,329,329,78,329,329,329,329,329,78,78,78,78,329,329,78,329,78,78,329,78,329,78,329,329,78,78,78,78,329,78,78,329,329,329,329,78,329,78,329,329,329,329,78,78,329,329,78,329,78,78,329,78,329,78,329,329,329,78,78,78,329,329,329,78,329,329,329,78,78,78,329,329,78,78,329,78,78,78,329,329,329,78,78,329,329,78,329,78,329,78,78,78,78,329,78,329,78,329,78,329,78,78,329,329,78,78,329,78,329,329,78,329,329,78,78,78,329,78,78,329,78,78,78,329,329,329,329,329,329,329,78,329,329,329,78,329,329,78,78,78,78,329,329,78,329,78,329,78,78,329,78,329,329,329,78,329,78],"coherence":1,"opposite_coherence":0,"dot_radius":2,"dot_side_length":1,"dot_life":-1,"move_distance":1,"aperture_width":300,"aperture_height":300,"dot_color":["white","white","white","white","black","white","black","black","black","white","black","white","white","white","white","white","white","black","white","black","white","black","white","white","black","black","black","white","black","white","white","black","white","black","white","white","black","black","black","white","white","white","black","black","black","white","black","black","black","black","black","white","white","white","white","black","black","white","black","white","white","black","white","black","white","black","black","white","white","white","white","black","white","white","black","black","black","black","white","black","white","black","black","black","black","white","white","black","black","white","black","white","white","black","white","black","white","black","black","black","white","white","white","black","black","black","white","black","black","black","white","white","white","black","black","white","white","black","white","white","white","black","black","black","white","white","black","black","white","black","white","black","white","white","white","white","black","white","black","white","black","white","black","white","white","black","black","white","white","black","white","black","black","white","black","black","white","white","white","black","white","white","black","white","white","white","black","black","black","black","black","black","black","white","black","black","black","white","black","black","white","white","white","white","black","black","white","black","white","black","white","white","black","white","black","black","black","white","black","white"],"dot_shape":"circle","background_color":"#AAA","RDK_type":3,"aperture_type":2,"reinsert_type":2,"frame_rate":45.11363636363637,"frame_rate_array":[9,18,22,53,45,53,47,44,3,47,48,55,48,41,54,47,44,49,45,43,60,42,53,46,45,49,45,56,43,42,53,53,55,46,43,49,47,54,46,54,45,45,53,46],"number_of_frames":44,"aperture_center_x":960,"aperture_center_y":540,"fixation_cross":true,"fixation_cross_width":15,"fixation_cross_height":15,"fixation_cross_color":"#111","fixation_cross_thickness":1,"border":true,"border_thickness":2,"border_color":"transparent","canvas_width":1920,"canvas_height":1080,"trial_type":"rdk","trial_index":48,"plugin_version":"2.0.0","time_elapsed":139314},{"rt":4555,"stimulus":"\n        <div class=\"response-container\">\n          <div class=\"response-instruction\">\n            <p>rotate the bar by using the left and right arrow keys.</p>\n            <p>when you are determined, press the Enter key.</p>\n          </div>\n          <div class=\"response-circle\">\n            <div class=\"response-fixation\"></div>\n            <div id=\"bar\" class=\"rotating-bar\"></div>\n          </div>\n        </div>\n      ","response":"Enter","trial_type":"html-keyboard-response","trial_index":49,"plugin_version":"2.1.0","time_elapsed":143870,"response_angle_css":-10,"response_angle_rdk":100,"angular_error_target":22,"angular_error_distractor":131,"target_direction":78,"target_group":"white","reward_points":5},{"rt":null,"stimulus":"\n          <p style=\"color: #00FF00;\">Your reward: 5 points</p>\n        ","response":null,"trial_type":"html-keyboard-response","trial_index":50,"plugin_version":"2.1.0","time_elapsed":145871},{"rt":null,"stimulus":"<div class=\"fixation\" style=\"font-size: 60px;\">+</div>","response":null,"trial_type":"html-keyboard-response","trial_index":51,"plugin_version":"2.1.0","time_elapsed":146872},{"target_group":"white","condition_label":"W_H_vs_B_L_rep20","target_direction":70,"distractor_direction":312,"session_rotation":35,"rt":-1,"response":"","correct":false,"choices":"ALL_KEYS","correct_choice":["a"],"trial_duration":2000,"flip_timestamps":[],"response_ends_trial":false,"number_of_apertures":200,"number_of_dots":[1,1,1,1,1,1,1,1,1,1,1,1,1,1,1,1,1,1,1,1,1,1,1,1,1,1,1,1,1,1,1,1,1,1,1,1,1,1,1,1,1,1,1,1,1,1,1,1,1,1,1,1,1,1,1,1,1,1,1,1,1,1,1,1,1,1,1,1,1,1,1,1,1,1,1,1,1,1,1,1,1,1,1,1,1,1,1,1,1,1,1,1,1,1,1,1,1,1,1,1,1,1,1,1,1,1,1,1,1,1,1,1,1,1,1,1,1,1,1,1,1,1,1,1,1,1,1,1,1,1,1,1,1,1,1,1,1,1,1,1,1,1,1,1,1,1,1,1,1,1,1,1,1,1,1,1,1,1,1,1,1,1,1,1,1,1,1,1,1,1,1,1,1,1,1,1,1,1,1,1,1,1,1,1,1,1,1,1,1,1,1,1,1,1,1,1,1,1,1,1],"number_of_sets":1,"coherent_direction":[70,312,70,312,312,312,70,70,312,312,312,312,312,312,312,312,312,70,312,312,70,312,70,70,70,70,312,70,312,70,70,312,70,70,312,312,70,70,312,70,70,312,70,70,312,70,70,70,70,70,70,70,312,70,70,312,312,70,312,70,312,70,70,70,312,312,70,70,312,312,312,70,70,312,312,70,70,70,312,70,312,70,312,312,312,312,312,312,70,70,312,312,70,312,70,70,312,312,70,312,312,70,70,312,312,312,70,70,70,312,312,312,70,312,312,70,312,312,70,70,312,70,70,70,312,312,312,312,70,70,70,70,70,70,312,312,70,70,312,70,312,312,70,70,312,312,70,312,70,312,70,312,70,312,312,312,70,312,70,70,312,312,70,70,70,312,312,312,70,70,70,312,312,70,70,70,70,312,312,312,70,312,70,312,70,312,312,70,312,312,312,70,312,312,70,70,70,70,312,70],"coherence":1,"opposite_coherence":0,"dot_radius":2,"dot_side_length":1,"dot_life":-1,"move_distance":1,"aperture_width":300,"aperture_height":300,"dot_color":["white","black","white","black","black","black","white","white","black","black","black","black","black","black","black","black","black","white","black","black","white","black","white","white","white","white","black","white","black","white","white","black","white","white","black","black","white","white","black","white","white","black","white","white","black","white","white","white","white","white","white","white","black","white","white","black","black","white","black","white","black","white","white","white","black","black","white","white","black","black","black","white","white","black","black","white","white","white","black","white","black","white","black","black","black","black","black","black","white","white","black","black","white","black","white","white","black","black","white","black","black","white","white","black","black","black","white","white","white","black","black","black","white","black","black","white","black","black","white","white","black","white","white","white","black","black","black","black","white","white","white","white","white","white","black","black","white","white","black","white","black","black","white","white","black","black","white","black","white","black","white","black","white","black","black","black","white","black","white","white","black","black","white","white","white","black","black","black","white","white","white","black","black","white","white","white","white","black","black","black","white","black","white","black","white","black","black","white","black","black","black","white","black","black","white","white","white","white","black","white"],"dot_shape":"circle","background_color":"#AAA","RDK_type":3,"aperture_type":2,"reinsert_type":2,"frame_rate":45.906976744186046,"frame_rate_array":[10,17,20,54,44,53,47,44,49,48,54,4,44,54,44,57,43,58,41,57,43,58,43,42,54,53,52,48,52,47,55,47,53,45,44,50,45,58,41,41,54,53,54],"number_of_frames":43,"aperture_center_x":960,"aperture_center_y":540,"fixation_cross":true,"fixation_cross_width":15,"fixation_cross_height":15,"fixation_cross_color":"#111","fixation_cross_thickness":1,"border":true,"border_thickness":2,"border_color":"transparent","canvas_width":1920,"canvas_height":1080,"trial_type":"rdk","trial_index":52,"plugin_version":"2.0.0","time_elapsed":148874},{"rt":3771,"stimulus":"\n        <div class=\"response-container\">\n          <div class=\"response-instruction\">\n            <p>rotate the bar by using the left and right arrow keys.</p>\n            <p>when you are determined, press the Enter key.</p>\n          </div>\n          <div class=\"response-circle\">\n            <div class=\"response-fixation\"></div>\n            <div id=\"bar\" class=\"rotating-bar\"></div>\n          </div>\n        </div>\n      ","response":"Enter","trial_type":"html-keyboard-response","trial_index":53,"plugin_version":"2.1.0","time_elapsed":152646,"response_angle_css":-3,"response_angle_rdk":93,"angular_error_target":23,"angular_error_distractor":141,"target_direction":70,"target_group":"white","reward_points":5},{"rt":null,"stimulus":"\n          <p style=\"color: #00FF00;\">Your reward: 5 points</p>\n        ","response":null,"trial_type":"html-keyboard-response","trial_index":54,"plugin_version":"2.1.0","time_elapsed":154647},{"rt":null,"stimulus":"<div class=\"fixation\" style=\"font-size: 60px;\">+</div>","response":null,"trial_type":"html-keyboard-response","trial_index":55,"plugin_version":"2.1.0","time_elapsed":155648},{"target_group":"white","condition_label":"W_H_vs_B_L_rep17","target_direction":68,"distractor_direction":309,"session_rotation":35,"rt":1884,"response":"ArrowRight","correct":false,"choices":"ALL_KEYS","correct_choice":["a"],"trial_duration":2000,"flip_timestamps":[],"response_ends_trial":false,"number_of_apertures":200,"number_of_dots":[1,1,1,1,1,1,1,1,1,1,1,1,1,1,1,1,1,1,1,1,1,1,1,1,1,1,1,1,1,1,1,1,1,1,1,1,1,1,1,1,1,1,1,1,1,1,1,1,1,1,1,1,1,1,1,1,1,1,1,1,1,1,1,1,1,1,1,1,1,1,1,1,1,1,1,1,1,1,1,1,1,1,1,1,1,1,1,1,1,1,1,1,1,1,1,1,1,1,1,1,1,1,1,1,1,1,1,1,1,1,1,1,1,1,1,1,1,1,1,1,1,1,1,1,1,1,1,1,1,1,1,1,1,1,1,1,1,1,1,1,1,1,1,1,1,1,1,1,1,1,1,1,1,1,1,1,1,1,1,1,1,1,1,1,1,1,1,1,1,1,1,1,1,1,1,1,1,1,1,1,1,1,1,1,1,1,1,1,1,1,1,1,1,1,1,1,1,1,1,1],"number_of_sets":1,"coherent_direction":[68,309,309,68,309,309,68,68,68,68,309,309,309,309,309,68,68,309,68,68,309,68,309,68,309,309,68,309,68,309,68,309,68,309,309,309,309,68,68,68,68,68,68,68,68,309,68,68,309,68,68,68,309,68,68,68,68,68,309,309,309,68,309,309,68,309,68,68,309,68,68,309,309,68,68,309,68,68,309,309,68,309,68,68,68,309,68,68,309,309,309,68,309,309,309,309,68,68,309,309,309,309,309,68,68,309,309,68,309,68,309,68,68,309,68,309,68,309,309,68,68,68,309,68,68,68,309,68,68,68,309,309,309,309,309,68,68,309,68,309,309,309,68,68,309,68,68,309,68,309,68,68,309,68,68,309,309,68,309,68,68,309,309,68,309,309,68,309,309,68,68,68,68,309,309,309,309,309,309,68,309,309,68,68,68,309,309,309,309,68,309,68,309,309,68,68,309,309,68,309],"coherence":1,"opposite_coherence":0,"dot_radius":2,"dot_side_length":1,"dot_life":-1,"move_distance":1,"aperture_width":300,"aperture_height":300,"dot_color":["white","black","black","white","black","black","white","white","white","white","black","black","black","black","black","white","white","black","white","white","black","white","black","white","black","black","white","black","white","black","white","black","white","black","black","black","black","white","white","white","white","white","white","white","white","black","white","white","black","white","white","white","black","white","white","white","white","white","black","black","black","white","black","black","white","black","white","white","black","white","white","black","black","white","white","black","white","white","black","black","white","black","white","white","white","black","white","white","black","black","black","white","black","black","black","black","white","white","black","black","black","black","black","white","white","black","black","white","black","white","black","white","white","black","white","black","white","black","black","white","white","white","black","white","white","white","black","white","white","white","black","black","black","black","black","white","white","black","white","black","black","black","white","white","black","white","white","black","white","black","white","white","black","white","white","black","black","white","black","white","white","black","black","white","black","black","white","black","black","white","white","white","white","black","black","black","black","black","black","white","black","black","white","white","white","black","black","black","black","white","black","white","black","black","white","white","black","black","white","black"],"dot_shape":"circle","background_color":"#AAA","RDK_type":3,"aperture_type":2,"reinsert_type":2,"frame_rate":46.348837209302324,"frame_rate_array":[8,16,22,53,49,54,47,55,47,54,3,45,49,53,45,54,48,54,49,58,44,44,61,45,42,53,47,42,54,47,53,46,44,53,47,54,48,53,47,44,63,43,56],"number_of_frames":43,"aperture_center_x":960,"aperture_center_y":540,"fixation_cross":true,"fixation_cross_width":15,"fixation_cross_height":15,"fixation_cross_color":"#111","fixation_cross_thickness":1,"border":true,"border_thickness":2,"border_color":"transparent","canvas_width":1920,"canvas_height":1080,"trial_type":"rdk","trial_index":56,"plugin_version":"2.0.0","time_elapsed":157651},{"rt":4259,"stimulus":"\n        <div class=\"response-container\">\n          <div class=\"response-instruction\">\n            <p>rotate the bar by using the left and right arrow keys.</p>\n            <p>when you are determined, press the Enter key.</p>\n          </div>\n          <div class=\"response-circle\">\n            <div class=\"response-fixation\"></div>\n            <div id=\"bar\" class=\"rotating-bar\"></div>\n          </div>\n        </div>\n      ","response":"Enter","trial_type":"html-keyboard-response","trial_index":57,"plugin_version":"2.1.0","time_elapsed":161911,"response_angle_css":175,"response_angle_rdk":275,"angular_error_target":-153,"angular_error_distractor":-34,"target_direction":68,"target_group":"white","reward_points":0},{"rt":null,"stimulus":"\n          <p style=\"color: #FF3333;\">Your reward: 0 points</p>\n        ","response":null,"trial_type":"html-keyboard-response","trial_index":58,"plugin_version":"2.1.0","time_elapsed":163911},{"rt":null,"stimulus":"<div class=\"fixation\" style=\"font-size: 60px;\">+</div>","response":null,"trial_type":"html-keyboard-response","trial_index":59,"plugin_version":"2.1.0","time_elapsed":164913},{"target_group":"white","condition_label":"W_H_vs_B_L_rep12","target_direction":71,"distractor_direction":309,"session_rotation":35,"rt":-1,"response":"","correct":false,"choices":"ALL_KEYS","correct_choice":["a"],"trial_duration":2000,"flip_timestamps":[],"response_ends_trial":false,"number_of_apertures":200,"number_of_dots":[1,1,1,1,1,1,1,1,1,1,1,1,1,1,1,1,1,1,1,1,1,1,1,1,1,1,1,1,1,1,1,1,1,1,1,1,1,1,1,1,1,1,1,1,1,1,1,1,1,1,1,1,1,1,1,1,1,1,1,1,1,1,1,1,1,1,1,1,1,1,1,1,1,1,1,1,1,1,1,1,1,1,1,1,1,1,1,1,1,1,1,1,1,1,1,1,1,1,1,1,1,1,1,1,1,1,1,1,1,1,1,1,1,1,1,1,1,1,1,1,1,1,1,1,1,1,1,1,1,1,1,1,1,1,1,1,1,1,1,1,1,1,1,1,1,1,1,1,1,1,1,1,1,1,1,1,1,1,1,1,1,1,1,1,1,1,1,1,1,1,1,1,1,1,1,1,1,1,1,1,1,1,1,1,1,1,1,1,1,1,1,1,1,1,1,1,1,1,1,1],"number_of_sets":1,"coherent_direction":[71,71,71,71,309,71,309,309,71,309,309,71,309,71,309,71,309,309,71,71,309,71,71,71,71,71,71,71,71,71,71,71,309,71,71,71,71,71,71,309,71,309,71,71,309,71,309,309,309,71,71,71,71,309,309,71,71,309,71,71,71,309,71,71,309,71,309,309,309,309,71,309,309,71,309,309,309,309,309,71,309,309,71,71,71,309,309,71,309,71,309,309,309,71,309,71,309,309,309,309,71,71,309,71,309,71,309,71,309,71,71,71,71,71,71,309,309,309,71,71,309,309,71,71,71,71,71,71,309,71,309,71,309,71,309,309,309,309,309,71,309,71,309,71,71,71,309,309,71,309,309,309,309,71,309,309,309,309,309,71,71,71,309,309,71,309,309,71,71,71,309,309,309,309,309,309,71,71,309,71,309,71,71,309,309,309,71,71,309,71,309,309,71,309,71,309,309,309,309,309],"coherence":1,"opposite_coherence":0,"dot_radius":2,"dot_side_length":1,"dot_life":-1,"move_distance":1,"aperture_width":300,"aperture_height":300,"dot_color":["white","white","white","white","black","white","black","black","white","black","black","white","black","white","black","white","black","black","white","white","black","white","white","white","white","white","white","white","white","white","white","white","black","white","white","white","white","white","white","black","white","black","white","white","black","white","black","black","black","white","white","white","white","black","black","white","white","black","white","white","white","black","white","white","black","white","black","black","black","black","white","black","black","white","black","black","black","black","black","white","black","black","white","white","white","black","black","white","black","white","black","black","black","white","black","white","black","black","black","black","white","white","black","white","black","white","black","white","black","white","white","white","white","white","white","black","black","black","white","white","black","black","white","white","white","white","white","white","black","white","black","white","black","white","black","black","black","black","black","white","black","white","black","white","white","white","black","black","white","black","black","black","black","white","black","black","black","black","black","white","white","white","black","black","white","black","black","white","white","white","black","black","black","black","black","black","white","white","black","white","black","white","white","black","black","black","white","white","black","white","black","black","white","black","white","black","black","black","black","black"],"dot_shape":"circle","background_color":"#AAA","RDK_type":3,"aperture_type":2,"reinsert_type":2,"frame_rate":47.666666666666664,"frame_rate_array":[5,18,21,50,47,52,49,51,49,51,49,51,48,53,49,52,49,53,47,52,46,56,48,54,46,54,47,52,48,52,46,54,46,55,46,53,48,53,47,53,47,55],"number_of_frames":42,"aperture_center_x":960,"aperture_center_y":540,"fixation_cross":true,"fixation_cross_width":15,"fixation_cross_height":15,"fixation_cross_color":"#111","fixation_cross_thickness":1,"border":true,"border_thickness":2,"border_color":"transparent","canvas_width":1920,"canvas_height":1080,"trial_type":"rdk","trial_index":60,"plugin_version":"2.0.0","time_elapsed":166918},{"rt":2176,"stimulus":"\n        <div class=\"response-container\">\n          <div class=\"response-instruction\">\n            <p>rotate the bar by using the left and right arrow keys.</p>\n            <p>when you are determined, press the Enter key.</p>\n          </div>\n          <div class=\"response-circle\">\n            <div class=\"response-fixation\"></div>\n            <div id=\"bar\" class=\"rotating-bar\"></div>\n          </div>\n        </div>\n      ","response":"Enter","trial_type":"html-keyboard-response","trial_index":61,"plugin_version":"2.1.0","time_elapsed":169095,"response_angle_css":177,"response_angle_rdk":273,"angular_error_target":-158,"angular_error_distractor":-36,"target_direction":71,"target_group":"white","reward_points":0},{"rt":null,"stimulus":"\n          <p style=\"color: #FF3333;\">Your reward: 0 points</p>\n        ","response":null,"trial_type":"html-keyboard-response","trial_index":62,"plugin_version":"2.1.0","time_elapsed":171096},{"rt":null,"stimulus":"<div class=\"fixation\" style=\"font-size: 60px;\">+</div>","response":null,"trial_type":"html-keyboard-response","trial_index":63,"plugin_version":"2.1.0","time_elapsed":172097},{"target_group":"black","condition_label":"B_H_vs_W_L_rep22","target_direction":128,"distractor_direction":234,"session_rotation":35,"rt":-1,"response":"","correct":false,"choices":"ALL_KEYS","correct_choice":["a"],"trial_duration":2000,"flip_timestamps":[],"response_ends_trial":false,"number_of_apertures":200,"number_of_dots":[1,1,1,1,1,1,1,1,1,1,1,1,1,1,1,1,1,1,1,1,1,1,1,1,1,1,1,1,1,1,1,1,1,1,1,1,1,1,1,1,1,1,1,1,1,1,1,1,1,1,1,1,1,1,1,1,1,1,1,1,1,1,1,1,1,1,1,1,1,1,1,1,1,1,1,1,1,1,1,1,1,1,1,1,1,1,1,1,1,1,1,1,1,1,1,1,1,1,1,1,1,1,1,1,1,1,1,1,1,1,1,1,1,1,1,1,1,1,1,1,1,1,1,1,1,1,1,1,1,1,1,1,1,1,1,1,1,1,1,1,1,1,1,1,1,1,1,1,1,1,1,1,1,1,1,1,1,1,1,1,1,1,1,1,1,1,1,1,1,1,1,1,1,1,1,1,1,1,1,1,1,1,1,1,1,1,1,1,1,1,1,1,1,1,1,1,1,1,1,1],"number_of_sets":1,"coherent_direction":[234,234,128,234,234,234,128,128,128,128,128,234,128,234,234,234,128,128,128,234,128,128,128,128,234,234,234,128,128,234,128,234,128,234,234,234,234,234,128,234,128,128,234,128,128,234,234,234,234,234,128,234,128,234,128,234,128,234,128,234,234,128,234,128,234,128,234,128,128,234,128,128,234,234,128,128,234,128,234,128,234,234,234,234,234,128,234,128,234,234,234,128,234,128,234,128,128,234,128,128,128,128,234,234,234,234,234,128,128,234,128,128,128,128,234,128,128,234,234,128,128,234,128,128,128,234,128,234,128,234,234,234,234,234,234,128,234,128,128,128,128,234,234,128,128,234,128,234,234,128,128,234,234,128,128,128,234,234,128,128,234,234,128,128,128,128,128,128,128,234,234,234,234,128,234,234,128,128,234,234,234,128,128,128,234,128,128,234,128,234,128,128,128,128,234,234,234,234,234,128],"coherence":1,"opposite_coherence":0,"dot_radius":2,"dot_side_length":1,"dot_life":-1,"move_distance":1,"aperture_width":300,"aperture_height":300,"dot_color":["white","white","black","white","white","white","black","black","black","black","black","white","black","white","white","white","black","black","black","white","black","black","black","black","white","white","white","black","black","white","black","white","black","white","white","white","white","white","black","white","black","black","white","black","black","white","white","white","white","white","black","white","black","white","black","white","black","white","black","white","white","black","white","black","white","black","white","black","black","white","black","black","white","white","black","black","white","black","white","black","white","white","white","white","white","black","white","black","white","white","white","black","white","black","white","black","black","white","black","black","black","black","white","white","white","white","white","black","black","white","black","black","black","black","white","black","black","white","white","black","black","white","black","black","black","white","black","white","black","white","white","white","white","white","white","black","white","black","black","black","black","white","white","black","black","white","black","white","white","black","black","white","white","black","black","black","white","white","black","black","white","white","black","black","black","black","black","black","black","white","white","white","white","black","white","white","black","black","white","white","white","black","black","black","white","black","black","white","black","white","black","black","black","black","white","white","white","white","white","black"],"dot_shape":"circle","background_color":"#AAA","RDK_type":3,"aperture_type":2,"reinsert_type":2,"frame_rate":46.30232558139535,"frame_rate_array":[12,17,17,50,46,40,55,49,50,47,53,48,52,49,51,48,52,46,56,48,55,47,55,47,56,4,41,54,48,52,46,52,48,54,45,54,48,54,46,57,45,42,55],"number_of_frames":43,"aperture_center_x":960,"aperture_center_y":540,"fixation_cross":true,"fixation_cross_width":15,"fixation_cross_height":15,"fixation_cross_color":"#111","fixation_cross_thickness":1,"border":true,"border_thickness":2,"border_color":"transparent","canvas_width":1920,"canvas_height":1080,"trial_type":"rdk","trial_index":64,"plugin_version":"2.0.0","time_elapsed":174100},{"rt":2579,"stimulus":"\n        <div class=\"response-container\">\n          <div class=\"response-instruction\">\n            <p>rotate the bar by using the left and right arrow keys.</p>\n            <p>when you are determined, press the Enter key.</p>\n          </div>\n          <div class=\"response-circle\">\n            <div class=\"response-fixation\"></div>\n            <div id=\"bar\" class=\"rotating-bar\"></div>\n          </div>\n        </div>\n      ","response":"Enter","trial_type":"html-keyboard-response","trial_index":65,"plugin_version":"2.1.0","time_elapsed":176679,"response_angle_css":198,"response_angle_rdk":252,"angular_error_target":124,"angular_error_distractor":18,"target_direction":128,"target_group":"black","reward_points":0},{"rt":null,"stimulus":"\n          <p style=\"color: #FF3333;\">Your reward: 0 points</p>\n        ","response":null,"trial_type":"html-keyboard-response","trial_index":66,"plugin_version":"2.1.0","time_elapsed":178680},{"rt":null,"stimulus":"<div class=\"fixation\" style=\"font-size: 60px;\">+</div>","response":null,"trial_type":"html-keyboard-response","trial_index":67,"plugin_version":"2.1.0","time_elapsed":179682},{"target_group":"black","condition_label":"B_H_vs_W_L_rep18","target_direction":142,"distractor_direction":257,"session_rotation":35,"rt":1716,"response":"ArrowRight","correct":false,"choices":"ALL_KEYS","correct_choice":["a"],"trial_duration":2000,"flip_timestamps":[],"response_ends_trial":false,"number_of_apertures":200,"number_of_dots":[1,1,1,1,1,1,1,1,1,1,1,1,1,1,1,1,1,1,1,1,1,1,1,1,1,1,1,1,1,1,1,1,1,1,1,1,1,1,1,1,1,1,1,1,1,1,1,1,1,1,1,1,1,1,1,1,1,1,1,1,1,1,1,1,1,1,1,1,1,1,1,1,1,1,1,1,1,1,1,1,1,1,1,1,1,1,1,1,1,1,1,1,1,1,1,1,1,1,1,1,1,1,1,1,1,1,1,1,1,1,1,1,1,1,1,1,1,1,1,1,1,1,1,1,1,1,1,1,1,1,1,1,1,1,1,1,1,1,1,1,1,1,1,1,1,1,1,1,1,1,1,1,1,1,1,1,1,1,1,1,1,1,1,1,1,1,1,1,1,1,1,1,1,1,1,1,1,1,1,1,1,1,1,1,1,1,1,1,1,1,1,1,1,1,1,1,1,1,1,1],"number_of_sets":1,"coherent_direction":[142,257,142,257,257,142,142,257,257,142,257,257,257,257,257,142,142,257,257,142,142,257,257,257,142,257,142,142,257,257,257,257,142,142,142,257,142,257,257,257,142,142,142,142,257,257,142,142,257,257,142,142,257,257,257,257,142,257,142,257,142,142,257,257,257,142,142,257,257,257,142,257,257,142,257,142,142,142,142,257,257,142,142,257,257,142,142,142,142,142,257,142,142,257,257,142,142,257,142,142,142,257,142,257,257,142,142,257,142,142,142,257,257,257,142,257,257,257,142,257,257,142,257,257,142,257,142,142,142,142,142,257,142,142,257,142,142,257,142,142,257,142,257,257,257,142,142,257,257,142,257,257,257,142,142,257,142,257,257,257,142,142,257,142,257,257,142,142,142,257,257,142,257,257,142,142,142,142,257,257,142,142,142,257,142,142,257,142,142,257,142,257,257,257,257,257,142,142,142,257],"coherence":1,"opposite_coherence":0,"dot_radius":2,"dot_side_length":1,"dot_life":-1,"move_distance":1,"aperture_width":300,"aperture_height":300,"dot_color":["black","white","black","white","white","black","black","white","white","black","white","white","white","white","white","black","black","white","white","black","black","white","white","white","black","white","black","black","white","white","white","white","black","black","black","white","black","white","white","white","black","black","black","black","white","white","black","black","white","white","black","black","white","white","white","white","black","white","black","white","black","black","white","white","white","black","black","white","white","white","black","white","white","black","white","black","black","black","black","white","white","black","black","white","white","black","black","black","black","black","white","black","black","white","white","black","black","white","black","black","black","white","black","white","white","black","black","white","black","black","black","white","white","white","black","white","white","white","black","white","white","black","white","white","black","white","black","black","black","black","black","white","black","black","white","black","black","white","black","black","white","black","white","white","white","black","black","white","white","black","white","white","white","black","black","white","black","white","white","white","black","black","white","black","white","white","black","black","black","white","white","black","white","white","black","black","black","black","white","white","black","black","black","white","black","black","white","black","black","white","black","white","white","white","white","white","black","black","black","white"],"dot_shape":"circle","background_color":"#AAA","RDK_type":3,"aperture_type":2,"reinsert_type":2,"frame_rate":46,"frame_rate_array":[9,8,16,20,55,48,45,52,47,53,50,54,44,43,52,48,42,51,44,56,46,44,54,48,53,46,55,46,54,47,47,53,46,54,48,52,45,55,47,54,45,54,48],"number_of_frames":43,"aperture_center_x":960,"aperture_center_y":540,"fixation_cross":true,"fixation_cross_width":15,"fixation_cross_height":15,"fixation_cross_color":"#111","fixation_cross_thickness":1,"border":true,"border_thickness":2,"border_color":"transparent","canvas_width":1920,"canvas_height":1080,"trial_type":"rdk","trial_index":68,"plugin_version":"2.0.0","time_elapsed":181684},{"rt":3107,"stimulus":"\n        <div class=\"response-container\">\n          <div class=\"response-instruction\">\n            <p>rotate the bar by using the left and right arrow keys.</p>\n            <p>when you are determined, press the Enter key.</p>\n          </div>\n          <div class=\"response-circle\">\n            <div class=\"response-fixation\"></div>\n            <div id=\"bar\" class=\"rotating-bar\"></div>\n          </div>\n        </div>\n      ","response":"Enter","trial_type":"html-keyboard-response","trial_index":69,"plugin_version":"2.1.0","time_elapsed":184792,"response_angle_css":-16,"response_angle_rdk":106,"angular_error_target":-36,"angular_error_distractor":-151,"target_direction":142,"target_group":"black","reward_points":2},{"rt":null,"stimulus":"\n          <p style=\"color: #FF3333;\">Your reward: 2 points</p>\n        ","response":null,"trial_type":"html-keyboard-response","trial_index":70,"plugin_version":"2.1.0","time_elapsed":186793},{"rt":null,"stimulus":"<div class=\"fixation\" style=\"font-size: 60px;\">+</div>","response":null,"trial_type":"html-keyboard-response","trial_index":71,"plugin_version":"2.1.0","time_elapsed":187794},{"target_group":"white","condition_label":"W_H_vs_B_L_rep14","target_direction":45,"distractor_direction":311,"session_rotation":35,"rt":-1,"response":"","correct":false,"choices":"ALL_KEYS","correct_choice":["a"],"trial_duration":2000,"flip_timestamps":[],"response_ends_trial":false,"number_of_apertures":200,"number_of_dots":[1,1,1,1,1,1,1,1,1,1,1,1,1,1,1,1,1,1,1,1,1,1,1,1,1,1,1,1,1,1,1,1,1,1,1,1,1,1,1,1,1,1,1,1,1,1,1,1,1,1,1,1,1,1,1,1,1,1,1,1,1,1,1,1,1,1,1,1,1,1,1,1,1,1,1,1,1,1,1,1,1,1,1,1,1,1,1,1,1,1,1,1,1,1,1,1,1,1,1,1,1,1,1,1,1,1,1,1,1,1,1,1,1,1,1,1,1,1,1,1,1,1,1,1,1,1,1,1,1,1,1,1,1,1,1,1,1,1,1,1,1,1,1,1,1,1,1,1,1,1,1,1,1,1,1,1,1,1,1,1,1,1,1,1,1,1,1,1,1,1,1,1,1,1,1,1,1,1,1,1,1,1,1,1,1,1,1,1,1,1,1,1,1,1,1,1,1,1,1,1],"number_of_sets":1,"coherent_direction":[45,311,311,45,311,45,45,45,45,311,311,45,45,45,45,311,45,45,311,311,311,311,45,45,311,45,311,311,45,45,311,311,311,311,311,311,45,311,45,45,311,45,45,45,311,45,311,311,45,311,311,45,45,45,45,45,311,45,45,311,311,45,311,311,45,311,45,311,311,45,311,45,311,45,311,45,311,45,45,45,45,45,311,311,311,45,311,311,45,311,311,311,45,311,45,45,311,311,311,311,311,311,311,45,311,311,45,311,311,311,45,311,45,311,45,45,311,45,45,45,45,311,45,45,45,45,45,45,45,311,45,311,311,311,45,45,311,311,311,311,45,311,45,311,45,45,311,311,45,311,45,311,45,45,311,311,311,45,45,45,45,45,311,311,311,311,311,311,311,311,45,45,311,45,45,45,311,311,45,311,311,45,45,311,45,311,45,45,311,45,311,45,45,311,45,45,311,45,45,311],"coherence":1,"opposite_coherence":0,"dot_radius":2,"dot_side_length":1,"dot_life":-1,"move_distance":1,"aperture_width":300,"aperture_height":300,"dot_color":["white","black","black","white","black","white","white","white","white","black","black","white","white","white","white","black","white","white","black","black","black","black","white","white","black","white","black","black","white","white","black","black","black","black","black","black","white","black","white","white","black","white","white","white","black","white","black","black","white","black","black","white","white","white","white","white","black","white","white","black","black","white","black","black","white","black","white","black","black","white","black","white","black","white","black","white","black","white","white","white","white","white","black","black","black","white","black","black","white","black","black","black","white","black","white","white","black","black","black","black","black","black","black","white","black","black","white","black","black","black","white","black","white","black","white","white","black","white","white","white","white","black","white","white","white","white","white","white","white","black","white","black","black","black","white","white","black","black","black","black","white","black","white","black","white","white","black","black","white","black","white","black","white","white","black","black","black","white","white","white","white","white","black","black","black","black","black","black","black","black","white","white","black","white","white","white","black","black","white","black","black","white","white","black","white","black","white","white","black","white","black","white","white","black","white","white","black","white","white","black"],"dot_shape":"circle","background_color":"#AAA","RDK_type":3,"aperture_type":2,"reinsert_type":2,"frame_rate":47.45238095238095,"frame_rate_array":[16,16,17,45,46,46,52,46,54,49,54,45,54,46,54,49,51,46,54,48,53,47,54,49,51,47,54,48,54,47,46,52,47,54,50,52,45,54,48,54,45,54],"number_of_frames":42,"aperture_center_x":960,"aperture_center_y":540,"fixation_cross":true,"fixation_cross_width":15,"fixation_cross_height":15,"fixation_cross_color":"#111","fixation_cross_thickness":1,"border":true,"border_thickness":2,"border_color":"transparent","canvas_width":1920,"canvas_height":1080,"trial_type":"rdk","trial_index":72,"plugin_version":"2.0.0","time_elapsed":189797},{"rt":2595,"stimulus":"\n        <div class=\"response-container\">\n          <div class=\"response-instruction\">\n            <p>rotate the bar by using the left and right arrow keys.</p>\n            <p>when you are determined, press the Enter key.</p>\n          </div>\n          <div class=\"response-circle\">\n            <div class=\"response-fixation\"></div>\n            <div id=\"bar\" class=\"rotating-bar\"></div>\n          </div>\n        </div>\n      ","response":"Enter","trial_type":"html-keyboard-response","trial_index":73,"plugin_version":"2.1.0","time_elapsed":192392,"response_angle_css":169,"response_angle_rdk":281,"angular_error_target":-124,"angular_error_distractor":-30,"target_direction":45,"target_group":"white","reward_points":0},{"rt":null,"stimulus":"\n          <p style=\"color: #FF3333;\">Your reward: 0 points</p>\n        ","response":null,"trial_type":"html-keyboard-response","trial_index":74,"plugin_version":"2.1.0","time_elapsed":194393},{"rt":null,"stimulus":"<div class=\"fixation\" style=\"font-size: 60px;\">+</div>","response":null,"trial_type":"html-keyboard-response","trial_index":75,"plugin_version":"2.1.0","time_elapsed":195394},{"target_group":"white","condition_label":"W_H_vs_B_L_rep25","target_direction":46,"distractor_direction":310,"session_rotation":35,"rt":-1,"response":"","correct":false,"choices":"ALL_KEYS","correct_choice":["a"],"trial_duration":2000,"flip_timestamps":[],"response_ends_trial":false,"number_of_apertures":200,"number_of_dots":[1,1,1,1,1,1,1,1,1,1,1,1,1,1,1,1,1,1,1,1,1,1,1,1,1,1,1,1,1,1,1,1,1,1,1,1,1,1,1,1,1,1,1,1,1,1,1,1,1,1,1,1,1,1,1,1,1,1,1,1,1,1,1,1,1,1,1,1,1,1,1,1,1,1,1,1,1,1,1,1,1,1,1,1,1,1,1,1,1,1,1,1,1,1,1,1,1,1,1,1,1,1,1,1,1,1,1,1,1,1,1,1,1,1,1,1,1,1,1,1,1,1,1,1,1,1,1,1,1,1,1,1,1,1,1,1,1,1,1,1,1,1,1,1,1,1,1,1,1,1,1,1,1,1,1,1,1,1,1,1,1,1,1,1,1,1,1,1,1,1,1,1,1,1,1,1,1,1,1,1,1,1,1,1,1,1,1,1,1,1,1,1,1,1,1,1,1,1,1,1],"number_of_sets":1,"coherent_direction":[310,310,310,46,46,310,310,46,46,310,46,310,310,310,310,46,46,46,46,310,310,46,46,310,46,310,310,310,310,46,46,310,46,46,310,310,46,310,310,46,310,46,46,46,310,46,310,310,310,46,46,46,310,46,310,310,46,310,46,46,310,46,46,46,310,46,310,310,46,46,46,46,46,46,310,310,310,310,46,46,310,46,46,310,310,46,310,46,310,310,310,46,310,46,310,46,46,46,310,46,46,310,46,46,310,46,310,310,46,46,46,46,46,46,310,46,46,310,46,310,310,46,310,46,46,310,310,310,310,310,46,46,46,310,46,310,310,46,46,310,310,310,310,310,310,46,310,310,46,46,46,310,46,310,46,310,310,310,46,46,46,310,310,46,310,310,310,310,310,46,310,310,46,310,310,46,46,46,46,310,46,310,310,310,46,46,310,310,46,310,310,46,46,310,310,46,46,46,46,46],"coherence":1,"opposite_coherence":0,"dot_radius":2,"dot_side_length":1,"dot_life":-1,"move_distance":1,"aperture_width":300,"aperture_height":300,"dot_color":["black","black","black","white","white","black","black","white","white","black","white","black","black","black","black","white","white","white","white","black","black","white","white","black","white","black","black","black","black","white","white","black","white","white","black","black","white","black","black","white","black","white","white","white","black","white","black","black","black","white","white","white","black","white","black","black","white","black","white","white","black","white","white","white","black","white","black","black","white","white","white","white","white","white","black","black","black","black","white","white","black","white","white","black","black","white","black","white","black","black","black","white","black","white","black","white","white","white","black","white","white","black","white","white","black","white","black","black","white","white","white","white","white","white","black","white","white","black","white","black","black","white","black","white","white","black","black","black","black","black","white","white","white","black","white","black","black","white","white","black","black","black","black","black","black","white","black","black","white","white","white","black","white","black","white","black","black","black","white","white","white","black","black","white","black","black","black","black","black","white","black","black","white","black","black","white","white","white","white","black","white","black","black","black","white","white","black","black","white","black","black","white","white","black","black","white","white","white","white","white"],"dot_shape":"circle","background_color":"#AAA","RDK_type":3,"aperture_type":2,"reinsert_type":2,"frame_rate":46.57142857142857,"frame_rate_array":[8,17,18,54,46,54,47,54,47,53,48,54,45,54,47,54,47,53,47,55,47,54,48,54,45,54,48,54,45,54,48,54,45,54,48,55,43,54,48,55,4,43],"number_of_frames":42,"aperture_center_x":960,"aperture_center_y":540,"fixation_cross":true,"fixation_cross_width":15,"fixation_cross_height":15,"fixation_cross_color":"#111","fixation_cross_thickness":1,"border":true,"border_thickness":2,"border_color":"transparent","canvas_width":1920,"canvas_height":1080,"trial_type":"rdk","trial_index":76,"plugin_version":"2.0.0","time_elapsed":197397},{"rt":3635,"stimulus":"\n        <div class=\"response-container\">\n          <div class=\"response-instruction\">\n            <p>rotate the bar by using the left and right arrow keys.</p>\n            <p>when you are determined, press the Enter key.</p>\n          </div>\n          <div class=\"response-circle\">\n            <div class=\"response-fixation\"></div>\n            <div id=\"bar\" class=\"rotating-bar\"></div>\n          </div>\n        </div>\n      ","response":"Enter","trial_type":"html-keyboard-response","trial_index":77,"plugin_version":"2.1.0","time_elapsed":201033,"response_angle_css":359,"response_angle_rdk":91,"angular_error_target":45,"angular_error_distractor":141,"target_direction":46,"target_group":"white","reward_points":0},{"rt":null,"stimulus":"\n          <p style=\"color: #FF3333;\">Your reward: 0 points</p>\n        ","response":null,"trial_type":"html-keyboard-response","trial_index":78,"plugin_version":"2.1.0","time_elapsed":203034},{"rt":null,"stimulus":"<div class=\"fixation\" style=\"font-size: 60px;\">+</div>","response":null,"trial_type":"html-keyboard-response","trial_index":79,"plugin_version":"2.1.0","time_elapsed":204035},{"target_group":"white","condition_label":"W_H_vs_B_L_rep6","target_direction":44,"distractor_direction":306,"session_rotation":35,"rt":-1,"response":"","correct":false,"choices":"ALL_KEYS","correct_choice":["a"],"trial_duration":2000,"flip_timestamps":[],"response_ends_trial":false,"number_of_apertures":200,"number_of_dots":[1,1,1,1,1,1,1,1,1,1,1,1,1,1,1,1,1,1,1,1,1,1,1,1,1,1,1,1,1,1,1,1,1,1,1,1,1,1,1,1,1,1,1,1,1,1,1,1,1,1,1,1,1,1,1,1,1,1,1,1,1,1,1,1,1,1,1,1,1,1,1,1,1,1,1,1,1,1,1,1,1,1,1,1,1,1,1,1,1,1,1,1,1,1,1,1,1,1,1,1,1,1,1,1,1,1,1,1,1,1,1,1,1,1,1,1,1,1,1,1,1,1,1,1,1,1,1,1,1,1,1,1,1,1,1,1,1,1,1,1,1,1,1,1,1,1,1,1,1,1,1,1,1,1,1,1,1,1,1,1,1,1,1,1,1,1,1,1,1,1,1,1,1,1,1,1,1,1,1,1,1,1,1,1,1,1,1,1,1,1,1,1,1,1,1,1,1,1,1,1],"number_of_sets":1,"coherent_direction":[44,44,44,306,306,44,44,306,306,44,44,44,306,306,306,306,306,306,44,306,306,44,44,306,44,306,306,306,44,44,44,44,44,306,44,44,306,44,306,306,306,306,306,44,44,306,306,44,306,306,44,306,44,306,306,44,306,306,306,306,306,306,306,44,306,306,306,44,44,306,44,306,44,306,306,44,306,306,306,44,44,44,44,306,44,306,44,44,44,306,44,306,306,306,306,306,306,306,44,306,44,44,306,306,44,306,44,306,306,306,306,44,44,306,306,44,44,44,306,306,44,44,44,44,44,306,44,44,306,306,306,44,44,44,306,44,44,306,44,44,306,306,44,44,44,44,44,306,44,306,44,44,306,306,44,44,44,44,44,44,44,44,44,306,306,306,44,44,306,306,306,44,306,44,44,44,44,306,306,44,44,44,44,306,306,44,306,44,306,306,306,44,44,306,44,44,44,306,306,306],"coherence":1,"opposite_coherence":0,"dot_radius":2,"dot_side_length":1,"dot_life":-1,"move_distance":1,"aperture_width":300,"aperture_height":300,"dot_color":["white","white","white","black","black","white","white","black","black","white","white","white","black","black","black","black","black","black","white","black","black","white","white","black","white","black","black","black","white","white","white","white","white","black","white","white","black","white","black","black","black","black","black","white","white","black","black","white","black","black","white","black","white","black","black","white","black","black","black","black","black","black","black","white","black","black","black","white","white","black","white","black","white","black","black","white","black","black","black","white","white","white","white","black","white","black","white","white","white","black","white","black","black","black","black","black","black","black","white","black","white","white","black","black","white","black","white","black","black","black","black","white","white","black","black","white","white","white","black","black","white","white","white","white","white","black","white","white","black","black","black","white","white","white","black","white","white","black","white","white","black","black","white","white","white","white","white","black","white","black","white","white","black","black","white","white","white","white","white","white","white","white","white","black","black","black","white","white","black","black","black","white","black","white","white","white","white","black","black","white","white","white","white","black","black","white","black","white","black","black","black","white","white","black","white","white","white","black","black","black"],"dot_shape":"circle","background_color":"#AAA","RDK_type":3,"aperture_type":2,"reinsert_type":2,"frame_rate":45.7906976744186,"frame_rate_array":[8,17,22,49,47,43,55,3,44,56,47,43,55,45,54,46,54,47,54,47,53,47,53,47,54,47,53,47,54,46,54,47,55,46,57,44,45,42,55,43,55,45,44],"number_of_frames":43,"aperture_center_x":960,"aperture_center_y":540,"fixation_cross":true,"fixation_cross_width":15,"fixation_cross_height":15,"fixation_cross_color":"#111","fixation_cross_thickness":1,"border":true,"border_thickness":2,"border_color":"transparent","canvas_width":1920,"canvas_height":1080,"trial_type":"rdk","trial_index":80,"plugin_version":"2.0.0","time_elapsed":206038},{"rt":4466,"stimulus":"\n        <div class=\"response-container\">\n          <div class=\"response-instruction\">\n            <p>rotate the bar by using the left and right arrow keys.</p>\n            <p>when you are determined, press the Enter key.</p>\n          </div>\n          <div class=\"response-circle\">\n            <div class=\"response-fixation\"></div>\n            <div id=\"bar\" class=\"rotating-bar\"></div>\n          </div>\n        </div>\n      ","response":"Enter","trial_type":"html-keyboard-response","trial_index":81,"plugin_version":"2.1.0","time_elapsed":210506,"response_angle_css":184,"response_angle_rdk":266,"angular_error_target":-138,"angular_error_distractor":-40,"target_direction":44,"target_group":"white","reward_points":0},{"rt":null,"stimulus":"\n          <p style=\"color: #FF3333;\">Your reward: 0 points</p>\n        ","response":null,"trial_type":"html-keyboard-response","trial_index":82,"plugin_version":"2.1.0","time_elapsed":212506},{"rt":null,"stimulus":"<div class=\"fixation\" style=\"font-size: 60px;\">+</div>","response":null,"trial_type":"html-keyboard-response","trial_index":83,"plugin_version":"2.1.0","time_elapsed":213508},{"target_group":"white","condition_label":"W_H_vs_B_L_rep21","target_direction":66,"distractor_direction":336,"session_rotation":35,"rt":1620,"response":"ArrowRight","correct":false,"choices":"ALL_KEYS","correct_choice":["a"],"trial_duration":2000,"flip_timestamps":[],"response_ends_trial":false,"number_of_apertures":200,"number_of_dots":[1,1,1,1,1,1,1,1,1,1,1,1,1,1,1,1,1,1,1,1,1,1,1,1,1,1,1,1,1,1,1,1,1,1,1,1,1,1,1,1,1,1,1,1,1,1,1,1,1,1,1,1,1,1,1,1,1,1,1,1,1,1,1,1,1,1,1,1,1,1,1,1,1,1,1,1,1,1,1,1,1,1,1,1,1,1,1,1,1,1,1,1,1,1,1,1,1,1,1,1,1,1,1,1,1,1,1,1,1,1,1,1,1,1,1,1,1,1,1,1,1,1,1,1,1,1,1,1,1,1,1,1,1,1,1,1,1,1,1,1,1,1,1,1,1,1,1,1,1,1,1,1,1,1,1,1,1,1,1,1,1,1,1,1,1,1,1,1,1,1,1,1,1,1,1,1,1,1,1,1,1,1,1,1,1,1,1,1,1,1,1,1,1,1,1,1,1,1,1,1],"number_of_sets":1,"coherent_direction":[66,336,336,66,66,66,336,66,66,336,66,336,66,336,66,336,336,66,336,336,336,336,66,336,336,66,336,66,66,66,66,66,66,66,336,66,66,66,66,66,336,66,336,66,336,336,66,336,66,336,66,66,66,66,66,336,336,66,66,336,336,66,336,66,66,336,66,66,336,336,336,66,66,336,336,66,336,66,336,66,66,66,66,336,336,66,66,336,336,66,336,336,66,336,66,336,66,66,336,336,336,66,336,336,336,66,336,66,66,66,336,336,336,66,336,336,336,66,336,336,336,66,66,66,336,66,66,66,66,336,66,336,66,66,66,336,336,336,66,336,66,336,66,66,336,336,336,336,66,336,336,66,336,66,66,336,336,336,66,66,66,66,336,336,336,66,336,66,66,66,336,336,66,66,336,66,336,66,336,336,336,66,336,336,336,66,336,66,336,66,66,336,66,336,336,66,336,336,336,336],"coherence":1,"opposite_coherence":0,"dot_radius":2,"dot_side_length":1,"dot_life":-1,"move_distance":1,"aperture_width":300,"aperture_height":300,"dot_color":["white","black","black","white","white","white","black","white","white","black","white","black","white","black","white","black","black","white","black","black","black","black","white","black","black","white","black","white","white","white","white","white","white","white","black","white","white","white","white","white","black","white","black","white","black","black","white","black","white","black","white","white","white","white","white","black","black","white","white","black","black","white","black","white","white","black","white","white","black","black","black","white","white","black","black","white","black","white","black","white","white","white","white","black","black","white","white","black","black","white","black","black","white","black","white","black","white","white","black","black","black","white","black","black","black","white","black","white","white","white","black","black","black","white","black","black","black","white","black","black","black","whi