[{"rt":3295,"stimulus":"Welcome to the experiment. Press any key to begin.","response":" ","trial_type":"html-keyboard-response","trial_index":0,"plugin_version":"2.1.0","time_elapsed":3297},{"rt":91313,"stimulus":"\n        <div class=\"instructions-container\">\n          <h2>Instructions</h2>\n\n          <p>\n          In this experiment, you will see <strong>two Random Dot Kinematograms (RDKs)</strong> displayed simultaneously.\n          </p>\n\n          <p>\n          An RDK is a visual stimulus consisting of many small dots that move coherently in a single direction. \n          In this experiment, the dots will be either <strong>white</strong> or <strong>black</strong> \n          (see the short demo below for an example of an RDK stimulus).\n          </p>\n\n          <p>\n          On each trial, the two RDKs will move in different directions. \n          Your task is to decide <strong>which RDK appears to contain more dots</strong>.\n          </p>\n\n          <p>\n          The RDK that you judge to have more dots is called the <strong>target RDK</strong>. \n          For example, if the white RDK appears to have more dots than the black RDK, \n          you should report the motion direction of the white RDK.\n          </p>\n\n          <p>\n          After viewing the RDKs, you will rotate a bar to indicate the perceived direction of the target RDK \n          using the <strong>left</strong> and <strong>right arrow keys</strong>. \n          Press <strong>Enter</strong> when you are satisfied with your response.\n          </p>\n\n          <p>\n          You will receive points based on the <strong>accuracy of your response</strong>, \n          and your final <strong>bonus reward</strong> may depend on your overall performance. \n          Please try to respond as accurately as possible.\n          </p>\n\n          <p>\n          You will first complete <strong>three practice trials</strong>. \n          Press the <strong>Enter</strong> key to start the practice phase.\n          </p>\n\n          <canvas id=\"instruction-demo-rdk\" width=\"300\" height=\"300\"style=\"display:block;margin:12px auto; border-radius: 50%;\"></canvas>\n        </div>\n      ","response":"Enter","trial_type":"html-keyboard-response","trial_index":1,"plugin_version":"2.1.0","time_elapsed":94614},{"rt":null,"stimulus":"<div class=\"fixation\" style=\"font-size: 60px;\">+</div>","response":null,"trial_type":"html-keyboard-response","trial_index":2,"plugin_version":"2.1.0","time_elapsed":95625},{"target_group":"black","target_index":1,"condition_label":"B_H_vs_W_L","rt":-1,"response":"","correct":false,"choices":"ALL_KEYS","correct_choice":["a"],"trial_duration":2000,"flip_timestamps":[],"response_ends_trial":false,"number_of_apertures":2,"number_of_dots":[50,100],"number_of_sets":1,"coherent_direction":[10,100],"coherence":1,"opposite_coherence":0,"dot_radius":2,"dot_side_length":1,"dot_life":-1,"move_distance":1,"aperture_width":300,"aperture_height":300,"dot_color":["white","black"],"dot_shape":"circle","background_color":"#AAA","RDK_type":3,"aperture_type":2,"reinsert_type":2,"frame_rate":16.591666666666665,"frame_rate_array":[1,11,18,17,18,16,16,16,16,17,17,17,17,16,17,17,17,18,16,16,17,17,17,17,16,17,17,17,16,17,16,18,16,17,17,17,18,15,16,17,17,15,16,16,17,16,17,16,17,17,17,17,17,17,17,17,17,17,16,17,17,17,17,17,18,15,18,17,17,16,17,17,16,17,17,16,17,17,16,17,17,17,18,16,16,17,16,17,17,17,17,17,16,18,17,17,17,16,17,17,17,17,17,16,17,17,17,16,17,17,17,17,16,17,17,17,16,17,17,17],"number_of_frames":120,"aperture_center_x":768,"aperture_center_y":480,"fixation_cross":true,"fixation_cross_width":15,"fixation_cross_height":15,"fixation_cross_color":"#111","fixation_cross_thickness":1,"border":true,"border_thickness":2,"border_color":"transparent","canvas_width":1536,"canvas_height":960,"trial_type":"rdk","trial_index":3,"plugin_version":"2.0.0","time_elapsed":97631,"target_direction":100,"distractor_direction":10},{"rt":21542,"stimulus":"\n        <div class=\"response-container\">\n          <div class=\"response-instruction\">\n            <p>rotate the bar by using the left and right arrow keys.</p>\n            <p>when you are determined, press the Enter key.</p>\n          </div>\n          <div class=\"response-circle\">\n            <div class=\"response-fixation\"></div>\n            <div id=\"bar\" class=\"rotating-bar\"></div>\n          </div>\n        </div>\n      ","response":"Enter","trial_type":"html-keyboard-response","trial_index":4,"plugin_version":"2.1.0","time_elapsed":119167,"response_angle_css":302,"response_angle_rdk":148,"angular_error_target":48,"angular_error_distractor":138,"target_direction":100,"target_group":"black","reward_points":0},{"rt":null,"stimulus":"\n          <p style=\"color: #FF3333;\">Your reward: 0 points</p>\n        ","response":null,"trial_type":"html-keyboard-response","trial_index":5,"plugin_version":"2.1.0","time_elapsed":121170},{"rt":null,"stimulus":"<div class=\"fixation\" style=\"font-size: 60px;\">+</div>","response":null,"trial_type":"html-keyboard-response","trial_index":6,"plugin_version":"2.1.0","time_elapsed":122173},{"target_group":"white","target_index":0,"condition_label":"W_H_vs_B_L","rt":-1,"response":"","correct":false,"choices":"ALL_KEYS","correct_choice":["a"],"trial_duration":2000,"flip_timestamps":[],"response_ends_trial":false,"number_of_apertures":2,"number_of_dots":[100,50],"number_of_sets":1,"coherent_direction":[150,30],"coherence":1,"opposite_coherence":0,"dot_radius":2,"dot_side_length":1,"dot_life":-1,"move_distance":1,"aperture_width":300,"aperture_height":300,"dot_color":["white","black"],"dot_shape":"circle","background_color":"#AAA","RDK_type":3,"aperture_type":2,"reinsert_type":2,"frame_rate":16.758333333333333,"frame_rate_array":[9,17,17,17,17,16,17,17,17,17,17,17,17,16,17,17,17,17,17,17,16,17,17,17,17,17,17,17,17,17,17,17,17,16,17,17,17,17,16,17,16,17,17,17,16,17,17,16,18,17,17,17,16,17,16,17,17,17,17,17,17,17,17,16,17,17,17,17,16,17,17,17,18,17,17,15,17,17,17,16,17,17,16,17,17,17,17,16,17,17,17,17,17,17,17,17,17,16,17,17,17,16,17,17,16,17,17,17,17,17,17,16,17,16,17,17,16,17,17,17],"number_of_frames":120,"aperture_center_x":768,"aperture_center_y":480,"fixation_cross":true,"fixation_cross_width":15,"fixation_cross_height":15,"fixation_cross_color":"#111","fixation_cross_thickness":1,"border":true,"border_thickness":2,"border_color":"transparent","canvas_width":1536,"canvas_height":960,"trial_type":"rdk","trial_index":7,"plugin_version":"2.0.0","time_elapsed":124176,"target_direction":150,"distractor_direction":30},{"rt":6255,"stimulus":"\n        <div class=\"response-container\">\n          <div class=\"response-instruction\">\n            <p>rotate the bar by using the left and right arrow keys.</p>\n            <p>when you are determined, press the Enter key.</p>\n          </div>\n          <div class=\"response-circle\">\n            <div class=\"response-fixation\"></div>\n            <div id=\"bar\" class=\"rotating-bar\"></div>\n          </div>\n        </div>\n      ","response":"Enter","trial_type":"html-keyboard-response","trial_index":8,"plugin_version":"2.1.0","time_elapsed":130432,"response_angle_css":275,"response_angle_rdk":175,"angular_error_target":25,"angular_error_distractor":145,"target_direction":150,"target_group":"white","reward_points":5},{"rt":null,"stimulus":"\n          <p style=\"color: #00FF00;\">Your reward: 5 points</p>\n        ","response":null,"trial_type":"html-keyboard-response","trial_index":9,"plugin_version":"2.1.0","time_elapsed":132439},{"rt":null,"stimulus":"<div class=\"fixation\" style=\"font-size: 60px;\">+</div>","response":null,"trial_type":"html-keyboard-response","trial_index":10,"plugin_version":"2.1.0","time_elapsed":133442},{"target_group":"black","target_index":1,"condition_label":"B_H_vs_W_L","rt":-1,"response":"","correct":false,"choices":"ALL_KEYS","correct_choice":["a"],"trial_duration":2000,"flip_timestamps":[],"response_ends_trial":false,"number_of_apertures":2,"number_of_dots":[50,100],"number_of_sets":1,"coherent_direction":[270,180],"coherence":1,"opposite_coherence":0,"dot_radius":2,"dot_side_length":1,"dot_life":-1,"move_distance":1,"aperture_width":300,"aperture_height":300,"dot_color":["white","black"],"dot_shape":"circle","background_color":"#AAA","RDK_type":3,"aperture_type":2,"reinsert_type":2,"frame_rate":16.75,"frame_rate_array":[6,16,18,16,16,18,16,17,16,17,16,17,17,17,17,17,16,17,16,17,17,16,17,16,17,17,17,16,17,17,16,17,17,17,17,17,17,17,17,16,17,17,17,17,17,17,17,17,17,17,17,17,17,17,17,17,17,17,17,17,17,17,17,16,17,17,17,17,17,17,17,17,17,17,16,17,16,17,17,16,17,17,17,16,17,17,17,17,17,17,17,17,17,17,17,17,17,17,17,17,17,16,17,17,17,17,17,16,17,17,17,17,17,17,17,17,16,17,17,17],"number_of_frames":120,"aperture_center_x":768,"aperture_center_y":480,"fixation_cross":true,"fixation_cross_width":15,"fixation_cross_height":15,"fixation_cross_color":"#111","fixation_cross_thickness":1,"border":true,"border_thickness":2,"border_color":"transparent","canvas_width":1536,"canvas_height":960,"trial_type":"rdk","trial_index":11,"plugin_version":"2.0.0","time_elapsed":135446,"target_direction":180,"distractor_direction":270},{"rt":3772,"stimulus":"\n        <div class=\"response-container\">\n          <div class=\"response-instruction\">\n            <p>rotate the bar by using the left and right arrow keys.</p>\n            <p>when you are determined, press the Enter key.</p>\n          </div>\n          <div class=\"response-circle\">\n            <div class=\"response-fixation\"></div>\n            <div id=\"bar\" class=\"rotating-bar\"></div>\n          </div>\n        </div>\n      ","response":"Enter","trial_type":"html-keyboard-response","trial_index":12,"plugin_version":"2.1.0","time_elapsed":139219,"response_angle_css":-68,"response_angle_rdk":158,"angular_error_target":-22,"angular_error_distractor":-112,"target_direction":180,"target_group":"black","reward_points":5},{"rt":null,"stimulus":"\n          <p style=\"color: #00FF00;\">Your reward: 5 points</p>\n        ","response":null,"trial_type":"html-keyboard-response","trial_index":13,"plugin_version":"2.1.0","time_elapsed":141225},{"rt":2027,"stimulus":"\n        <div class=\"instructions-container\">\n          <h2>End of Practice</h2>\n          <p>You have completed the practice trials.</p>\n          <p>Press <strong>Enter</strong> key to begin the main experiment.</p>\n        </div>\n      ","response":"Enter","trial_type":"html-keyboard-response","trial_index":14,"plugin_version":"2.1.0","time_elapsed":143253},{"rt":null,"stimulus":"<div class=\"fixation\" style=\"font-size: 60px;\">+</div>","response":null,"trial_type":"html-keyboard-response","trial_index":15,"plugin_version":"2.1.0","time_elapsed":144259},{"target_group":"white","condition_label":"W_H_vs_B_L_rep2","target_direction":274,"distractor_direction":159,"session_rotation":243,"rt":-1,"response":"","correct":false,"choices":"ALL_KEYS","correct_choice":["a"],"trial_duration":2000,"flip_timestamps":[],"response_ends_trial":false,"number_of_apertures":200,"number_of_dots":[1,1,1,1,1,1,1,1,1,1,1,1,1,1,1,1,1,1,1,1,1,1,1,1,1,1,1,1,1,1,1,1,1,1,1,1,1,1,1,1,1,1,1,1,1,1,1,1,1,1,1,1,1,1,1,1,1,1,1,1,1,1,1,1,1,1,1,1,1,1,1,1,1,1,1,1,1,1,1,1,1,1,1,1,1,1,1,1,1,1,1,1,1,1,1,1,1,1,1,1,1,1,1,1,1,1,1,1,1,1,1,1,1,1,1,1,1,1,1,1,1,1,1,1,1,1,1,1,1,1,1,1,1,1,1,1,1,1,1,1,1,1,1,1,1,1,1,1,1,1,1,1,1,1,1,1,1,1,1,1,1,1,1,1,1,1,1,1,1,1,1,1,1,1,1,1,1,1,1,1,1,1,1,1,1,1,1,1,1,1,1,1,1,1,1,1,1,1,1,1],"number_of_sets":1,"coherent_direction":[274,274,274,159,274,274,159,274,274,159,159,274,274,274,274,159,159,159,159,274,159,159,274,274,274,159,274,159,159,274,159,159,159,159,159,159,274,274,159,159,159,274,159,274,159,274,159,159,159,274,159,274,274,159,159,274,159,159,159,159,159,159,274,159,274,274,159,274,159,274,159,274,159,159,159,159,159,274,274,274,159,274,159,274,274,159,159,274,274,159,159,274,274,274,159,274,159,159,274,159,159,159,159,274,274,274,159,159,159,274,159,274,159,274,159,159,159,159,159,274,274,274,159,159,274,274,159,159,274,159,274,274,274,159,274,274,274,159,274,159,274,274,159,274,274,274,274,274,274,159,159,159,159,274,159,274,159,159,274,274,274,274,159,159,159,159,274,274,274,159,274,274,159,274,274,159,159,274,274,159,159,274,274,159,274,274,274,274,159,159,159,274,274,159,274,159,274,274,274,274],"coherence":1,"opposite_coherence":0,"dot_radius":2,"dot_side_length":1,"dot_life":-1,"move_distance":1,"aperture_width":300,"aperture_height":300,"dot_color":["white","white","white","black","white","white","black","white","white","black","black","white","white","white","white","black","black","black","black","white","black","black","white","white","white","black","white","black","black","white","black","black","black","black","black","black","white","white","black","black","black","white","black","white","black","white","black","black","black","white","black","white","white","black","black","white","black","black","black","black","black","black","white","black","white","white","black","white","black","white","black","white","black","black","black","black","black","white","white","white","black","white","black","white","white","black","black","white","white","black","black","white","white","white","black","white","black","black","white","black","black","black","black","white","white","white","black","black","black","white","black","white","black","white","black","black","black","black","black","white","white","white","black","black","white","white","black","black","white","black","white","white","white","black","white","white","white","black","white","black","white","white","black","white","white","white","white","white","white","black","black","black","black","white","black","white","black","black","white","white","white","white","black","black","black","black","white","white","white","black","white","white","black","white","white","black","black","white","white","black","black","white","white","black","white","white","white","white","black","black","black","white","white","black","white","black","white","white","white","white"],"dot_shape":"circle","background_color":"#AAA","RDK_type":3,"aperture_type":2,"reinsert_type":2,"frame_rate":16.578512396694215,"frame_rate_array":[4,16,16,17,18,16,17,21,11,17,17,17,17,17,17,17,17,15,18,16,17,17,15,17,16,17,18,17,16,16,17,17,17,16,17,17,17,16,15,18,16,17,17,17,16,17,17,16,17,16,17,17,16,17,16,16,17,17,16,17,16,17,17,17,17,17,17,16,17,17,17,16,17,17,17,15,16,17,17,17,16,17,16,17,17,16,17,17,17,17,17,16,17,17,16,17,17,17,17,17,17,18,17,16,17,16,17,16,17,16,16,17,17,16,17,17,17,17,17,17,16],"number_of_frames":121,"aperture_center_x":768,"aperture_center_y":480,"fixation_cross":true,"fixation_cross_width":15,"fixation_cross_height":15,"fixation_cross_color":"#111","fixation_cross_thickness":1,"border":true,"border_thickness":2,"border_color":"transparent","canvas_width":1536,"canvas_height":960,"trial_type":"rdk","trial_index":16,"plugin_version":"2.0.0","time_elapsed":146267},{"rt":4398,"stimulus":"\n        <div class=\"response-container\">\n          <div class=\"response-instruction\">\n            <p>rotate the bar by using the left and right arrow keys.</p>\n            <p>when you are determined, press the Enter key.</p>\n          </div>\n          <div class=\"response-circle\">\n            <div class=\"response-fixation\"></div>\n            <div id=\"bar\" class=\"rotating-bar\"></div>\n          </div>\n        </div>\n      ","response":"Enter","trial_type":"html-keyboard-response","trial_index":17,"plugin_version":"2.1.0","time_elapsed":150666,"response_angle_css":110,"response_angle_rdk":340,"angular_error_target":66,"angular_error_distractor":-179,"target_direction":274,"target_group":"white","reward_points":0},{"rt":null,"stimulus":"\n          <p style=\"color: #FF3333;\">Your reward: 0 points</p>\n        ","response":null,"trial_type":"html-keyboard-response","trial_index":18,"plugin_version":"2.1.0","time_elapsed":152682},{"rt":null,"stimulus":"<div class=\"fixation\" style=\"font-size: 60px;\">+</div>","response":null,"trial_type":"html-keyboard-response","trial_index":19,"plugin_version":"2.1.0","time_elapsed":153688},{"target_group":"white","condition_label":"W_H_vs_B_L_rep7","target_direction":282,"distractor_direction":190,"session_rotation":243,"rt":-1,"response":"","correct":false,"choices":"ALL_KEYS","correct_choice":["a"],"trial_duration":2000,"flip_timestamps":[],"response_ends_trial":false,"number_of_apertures":200,"number_of_dots":[1,1,1,1,1,1,1,1,1,1,1,1,1,1,1,1,1,1,1,1,1,1,1,1,1,1,1,1,1,1,1,1,1,1,1,1,1,1,1,1,1,1,1,1,1,1,1,1,1,1,1,1,1,1,1,1,1,1,1,1,1,1,1,1,1,1,1,1,1,1,1,1,1,1,1,1,1,1,1,1,1,1,1,1,1,1,1,1,1,1,1,1,1,1,1,1,1,1,1,1,1,1,1,1,1,1,1,1,1,1,1,1,1,1,1,1,1,1,1,1,1,1,1,1,1,1,1,1,1,1,1,1,1,1,1,1,1,1,1,1,1,1,1,1,1,1,1,1,1,1,1,1,1,1,1,1,1,1,1,1,1,1,1,1,1,1,1,1,1,1,1,1,1,1,1,1,1,1,1,1,1,1,1,1,1,1,1,1,1,1,1,1,1,1,1,1,1,1,1,1],"number_of_sets":1,"coherent_direction":[190,282,282,282,190,190,282,282,282,282,282,282,190,282,282,282,282,282,282,190,190,190,190,282,282,282,282,282,190,282,282,282,282,282,282,282,190,282,190,190,190,190,190,190,190,282,190,190,190,282,190,190,190,190,190,190,282,282,190,190,190,282,282,282,282,282,190,282,190,190,190,282,190,190,282,190,190,190,282,190,190,282,190,190,282,190,190,190,190,282,282,282,282,282,282,190,190,190,190,190,190,190,282,282,282,190,190,190,282,282,282,282,282,282,190,190,282,190,282,190,190,190,190,282,282,190,190,190,190,282,282,282,282,190,282,282,282,282,190,282,282,282,190,190,282,190,190,282,190,190,282,282,190,190,282,282,190,282,190,190,190,282,190,282,282,190,190,190,282,282,282,190,190,190,282,282,282,190,282,190,282,190,190,190,282,282,190,282,190,190,282,282,282,190,190,282,190,282,282,190],"coherence":1,"opposite_coherence":0,"dot_radius":2,"dot_side_length":1,"dot_life":-1,"move_distance":1,"aperture_width":300,"aperture_height":300,"dot_color":["black","white","white","white","black","black","white","white","white","white","white","white","black","white","white","white","white","white","white","black","black","black","black","white","white","white","white","white","black","white","white","white","white","white","white","white","black","white","black","black","black","black","black","black","black","white","black","black","black","white","black","black","black","black","black","black","white","white","black","black","black","white","white","white","white","white","black","white","black","black","black","white","black","black","white","black","black","black","white","black","black","white","black","black","white","black","black","black","black","white","white","white","white","white","white","black","black","black","black","black","black","black","white","white","white","black","black","black","white","white","white","white","white","white","black","black","white","black","white","black","black","black","black","white","white","black","black","black","black","white","white","white","white","black","white","white","white","white","black","white","white","white","black","black","white","black","black","white","black","black","white","white","black","black","white","white","black","white","black","black","black","white","black","white","white","black","black","black","white","white","white","black","black","black","white","white","white","black","white","black","white","black","black","black","white","white","black","white","black","black","white","white","white","black","black","white","black","white","white","black"],"dot_shape":"circle","background_color":"#AAA","RDK_type":3,"aperture_type":2,"reinsert_type":2,"frame_rate":16.669421487603305,"frame_rate_array":[9,15,17,17,17,17,17,16,16,18,17,16,17,15,18,17,17,16,17,17,17,17,16,17,16,16,18,17,17,17,16,17,17,17,17,15,17,17,16,17,16,16,18,17,16,17,16,17,17,15,16,17,17,18,16,17,16,16,17,16,17,18,17,17,17,15,17,16,17,16,17,17,17,17,17,17,18,16,16,17,17,17,17,17,17,17,17,19,17,17,17,17,16,18,16,15,16,17,17,17,17,17,17,17,17,17,17,18,15,17,16,17,16,16,17,16,17,17,17,17,17],"number_of_frames":121,"aperture_center_x":768,"aperture_center_y":480,"fixation_cross":true,"fixation_cross_width":15,"fixation_cross_height":15,"fixation_cross_color":"#111","fixation_cross_thickness":1,"border":true,"border_thickness":2,"border_color":"transparent","canvas_width":1536,"canvas_height":960,"trial_type":"rdk","trial_index":20,"plugin_version":"2.0.0","time_elapsed":155700},{"rt":1964,"stimulus":"\n        <div class=\"response-container\">\n          <div class=\"response-instruction\">\n            <p>rotate the bar by using the left and right arrow keys.</p>\n            <p>when you are determined, press the Enter key.</p>\n          </div>\n          <div class=\"response-circle\">\n            <div class=\"response-fixation\"></div>\n            <div id=\"bar\" class=\"rotating-bar\"></div>\n          </div>\n        </div>\n      ","response":"Enter","trial_type":"html-keyboard-response","trial_index":21,"plugin_version":"2.1.0","time_elapsed":157665,"response_angle_css":294,"response_angle_rdk":156,"angular_error_target":-126,"angular_error_distractor":-34,"target_direction":282,"target_group":"white","reward_points":0},{"rt":null,"stimulus":"\n          <p style=\"color: #FF3333;\">Your reward: 0 points</p>\n        ","response":null,"trial_type":"html-keyboard-response","trial_index":22,"plugin_version":"2.1.0","time_elapsed":159669},{"rt":null,"stimulus":"<div class=\"fixation\" style=\"font-size: 60px;\">+</div>","response":null,"trial_type":"html-keyboard-response","trial_index":23,"plugin_version":"2.1.0","time_elapsed":160675},{"target_group":"white","condition_label":"W_H_vs_B_L_rep18","target_direction":285,"distractor_direction":195,"session_rotation":243,"rt":-1,"response":"","correct":false,"choices":"ALL_KEYS","correct_choice":["a"],"trial_duration":2000,"flip_timestamps":[],"response_ends_trial":false,"number_of_apertures":200,"number_of_dots":[1,1,1,1,1,1,1,1,1,1,1,1,1,1,1,1,1,1,1,1,1,1,1,1,1,1,1,1,1,1,1,1,1,1,1,1,1,1,1,1,1,1,1,1,1,1,1,1,1,1,1,1,1,1,1,1,1,1,1,1,1,1,1,1,1,1,1,1,1,1,1,1,1,1,1,1,1,1,1,1,1,1,1,1,1,1,1,1,1,1,1,1,1,1,1,1,1,1,1,1,1,1,1,1,1,1,1,1,1,1,1,1,1,1,1,1,1,1,1,1,1,1,1,1,1,1,1,1,1,1,1,1,1,1,1,1,1,1,1,1,1,1,1,1,1,1,1,1,1,1,1,1,1,1,1,1,1,1,1,1,1,1,1,1,1,1,1,1,1,1,1,1,1,1,1,1,1,1,1,1,1,1,1,1,1,1,1,1,1,1,1,1,1,1,1,1,1,1,1,1],"number_of_sets":1,"coherent_direction":[285,285,285,285,285,285,285,285,285,285,195,195,285,285,195,195,195,285,195,285,195,285,195,195,195,195,195,195,285,195,285,195,195,285,285,285,195,195,195,195,195,195,285,285,195,195,285,195,195,195,195,195,195,285,285,285,285,285,285,195,195,285,195,285,195,285,195,285,285,195,195,285,285,195,285,285,285,195,285,285,195,195,285,195,285,195,285,195,195,285,195,285,195,285,195,285,195,285,195,195,285,285,285,285,285,285,195,195,195,285,195,195,285,285,195,195,195,285,195,285,195,285,285,195,285,285,195,195,285,195,195,195,195,195,285,285,195,285,195,285,195,285,195,285,195,285,195,285,195,285,195,285,195,195,195,285,285,285,285,195,285,195,285,285,285,285,285,195,285,285,195,285,285,285,285,195,195,195,195,285,285,195,195,195,195,285,195,285,195,285,195,195,195,285,195,195,285,285,285,195],"coherence":1,"opposite_coherence":0,"dot_radius":2,"dot_side_length":1,"dot_life":-1,"move_distance":1,"aperture_width":300,"aperture_height":300,"dot_color":["white","white","white","white","white","white","white","white","white","white","black","black","white","white","black","black","black","white","black","white","black","white","black","black","black","black","black","black","white","black","white","black","black","white","white","white","black","black","black","black","black","black","white","white","black","black","white","black","black","black","black","black","black","white","white","white","white","white","white","black","black","white","black","white","black","white","black","white","white","black","black","white","white","black","white","white","white","black","white","white","black","black","white","black","white","black","white","black","black","white","black","white","black","white","black","white","black","white","black","black","white","white","white","white","white","white","black","black","black","white","black","black","white","white","black","black","black","white","black","white","black","white","white","black","white","white","black","black","white","black","black","black","black","black","white","white","black","white","black","white","black","white","black","white","black","white","black","white","black","white","black","white","black","black","black","white","white","white","white","black","white","black","white","white","white","white","white","black","white","white","black","white","white","white","white","black","black","black","black","white","white","black","black","black","black","white","black","white","black","white","black","black","black","white","black","black","white","white","white","black"],"dot_shape":"circle","background_color":"#AAA","RDK_type":3,"aperture_type":2,"reinsert_type":2,"frame_rate":16.65,"frame_rate_array":[4,16,17,17,17,17,17,17,17,16,17,16,17,17,17,17,17,17,17,17,17,17,17,17,17,15,17,16,17,17,17,17,17,16,17,17,16,17,18,17,16,17,17,16,17,16,17,16,17,17,17,16,16,16,17,16,17,16,17,17,16,17,17,17,17,16,17,17,16,16,16,17,17,16,16,17,17,17,17,17,17,17,17,17,17,17,16,17,17,16,17,16,17,17,17,17,17,16,17,17,17,17,17,16,17,17,16,17,17,17,17,17,17,17,17,17,17,17,17,17],"number_of_frames":120,"aperture_center_x":768,"aperture_center_y":480,"fixation_cross":true,"fixation_cross_width":15,"fixation_cross_height":15,"fixation_cross_color":"#111","fixation_cross_thickness":1,"border":true,"border_thickness":2,"border_color":"transparent","canvas_width":1536,"canvas_height":960,"trial_type":"rdk","trial_index":24,"plugin_version":"2.0.0","time_elapsed":162678},{"rt":4249,"stimulus":"\n        <div class=\"response-container\">\n          <div class=\"response-instruction\">\n            <p>rotate the bar by using the left and right arrow keys.</p>\n            <p>when you are determined, press the Enter key.</p>\n          </div>\n          <div class=\"response-circle\">\n            <div class=\"response-fixation\"></div>\n            <div id=\"bar\" class=\"rotating-bar\"></div>\n          </div>\n        </div>\n      ","response":"Enter","trial_type":"html-keyboard-response","trial_index":25,"plugin_version":"2.1.0","time_elapsed":166928,"response_angle_css":137,"response_angle_rdk":313,"angular_error_target":28,"angular_error_distractor":118,"target_direction":285,"target_group":"white","reward_points":4},{"rt":null,"stimulus":"\n          <p style=\"color: #00FF00;\">Your reward: 4 points</p>\n        ","response":null,"trial_type":"html-keyboard-response","trial_index":26,"plugin_version":"2.1.0","time_elapsed":168939},{"rt":null,"stimulus":"<div class=\"fixation\" style=\"font-size: 60px;\">+</div>","response":null,"trial_type":"html-keyboard-response","trial_index":27,"plugin_version":"2.1.0","time_elapsed":169956},{"target_group":"black","condition_label":"B_H_vs_W_L_rep9","target_direction":358,"distractor_direction":104,"session_rotation":243,"rt":-1,"response":"","correct":false,"choices":"ALL_KEYS","correct_choice":["a"],"trial_duration":2000,"flip_timestamps":[],"response_ends_trial":false,"number_of_apertures":200,"number_of_dots":[1,1,1,1,1,1,1,1,1,1,1,1,1,1,1,1,1,1,1,1,1,1,1,1,1,1,1,1,1,1,1,1,1,1,1,1,1,1,1,1,1,1,1,1,1,1,1,1,1,1,1,1,1,1,1,1,1,1,1,1,1,1,1,1,1,1,1,1,1,1,1,1,1,1,1,1,1,1,1,1,1,1,1,1,1,1,1,1,1,1,1,1,1,1,1,1,1,1,1,1,1,1,1,1,1,1,1,1,1,1,1,1,1,1,1,1,1,1,1,1,1,1,1,1,1,1,1,1,1,1,1,1,1,1,1,1,1,1,1,1,1,1,1,1,1,1,1,1,1,1,1,1,1,1,1,1,1,1,1,1,1,1,1,1,1,1,1,1,1,1,1,1,1,1,1,1,1,1,1,1,1,1,1,1,1,1,1,1,1,1,1,1,1,1,1,1,1,1,1,1],"number_of_sets":1,"coherent_direction":[358,358,104,104,104,104,358,358,358,104,358,104,104,104,358,104,104,104,104,104,104,104,358,104,358,104,104,358,358,358,104,358,104,104,104,358,104,358,358,358,358,358,358,104,104,104,358,104,104,358,104,358,358,358,358,104,358,358,358,104,104,358,104,104,104,358,104,358,104,358,104,104,358,358,358,104,104,358,358,104,104,104,358,358,358,104,358,104,358,358,358,358,104,358,104,104,358,104,104,358,104,358,104,358,358,104,358,358,104,104,104,104,104,358,358,358,104,358,104,358,358,358,358,358,104,358,358,358,104,104,358,358,104,358,104,358,104,104,104,104,104,104,104,104,358,104,104,104,358,104,104,104,358,358,104,358,358,104,358,358,358,358,358,358,358,104,104,104,358,104,104,358,104,104,358,104,104,104,104,104,104,358,358,358,358,358,358,358,104,104,104,358,358,104,358,358,358,358,104,358],"coherence":1,"opposite_coherence":0,"dot_radius":2,"dot_side_length":1,"dot_life":-1,"move_distance":1,"aperture_width":300,"aperture_height":300,"dot_color":["black","black","white","white","white","white","black","black","black","white","black","white","white","white","black","white","white","white","white","white","white","white","black","white","black","white","white","black","black","black","white","black","white","white","white","black","white","black","black","black","black","black","black","white","white","white","black","white","white","black","white","black","black","black","black","white","black","black","black","white","white","black","white","white","white","black","white","black","white","black","white","white","black","black","black","white","white","black","black","white","white","white","black","black","black","white","black","white","black","black","black","black","white","black","white","white","black","white","white","black","white","black","white","black","black","white","black","black","white","white","white","white","white","black","black","black","white","black","white","black","black","black","black","black","white","black","black","black","white","white","black","black","white","black","white","black","white","white","white","white","white","white","white","white","black","white","white","white","black","white","white","white","black","black","white","black","black","white","black","black","black","black","black","black","black","white","white","white","black","white","white","black","white","white","black","white","white","white","white","white","white","black","black","black","black","black","black","black","white","white","white","black","black","white","black","black","black","black","white","black"],"dot_shape":"circle","background_color":"#AAA","RDK_type":3,"aperture_type":2,"reinsert_type":2,"frame_rate":16.611570247933884,"frame_rate_array":[3,17,17,15,17,17,17,17,17,17,16,16,17,17,18,17,17,17,16,17,17,17,17,17,17,16,15,17,17,16,16,17,17,18,17,17,17,17,16,17,16,17,17,16,18,17,16,17,17,17,18,16,17,16,17,17,17,16,17,15,18,17,17,17,17,16,17,16,17,17,16,17,16,17,17,16,17,17,16,17,17,17,16,16,17,17,17,16,16,17,16,17,17,17,17,16,17,17,17,17,16,16,17,17,17,17,15,17,16,17,17,17,17,17,15,17,17,16,17,18,17],"number_of_frames":121,"aperture_center_x":768,"aperture_center_y":480,"fixation_cross":true,"fixation_cross_width":15,"fixation_cross_height":15,"fixation_cross_color":"#111","fixation_cross_thickness":1,"border":true,"border_thickness":2,"border_color":"transparent","canvas_width":1536,"canvas_height":960,"trial_type":"rdk","trial_index":28,"plugin_version":"2.0.0","time_elapsed":171966},{"rt":4669,"stimulus":"\n        <div class=\"response-container\">\n          <div class=\"response-instruction\">\n            <p>rotate the bar by using the left and right arrow keys.</p>\n            <p>when you are determined, press the Enter key.</p>\n          </div>\n          <div class=\"response-circle\">\n            <div class=\"response-fixation\"></div>\n            <div id=\"bar\" class=\"rotating-bar\"></div>\n          </div>\n        </div>\n      ","response":"Enter","trial_type":"html-keyboard-response","trial_index":29,"plugin_version":"2.1.0","time_elapsed":176629,"response_angle_css":-43,"response_angle_rdk":133,"angular_error_target":135,"angular_error_distractor":29,"target_direction":358,"target_group":"black","reward_points":0},{"rt":null,"stimulus":"\n          <p style=\"color: #FF3333;\">Your reward: 0 points</p>\n        ","response":null,"trial_type":"html-keyboard-response","trial_index":30,"plugin_version":"2.1.0","time_elapsed":178631},{"rt":null,"stimulus":"<div class=\"fixation\" style=\"font-size: 60px;\">+</div>","response":null,"trial_type":"html-keyboard-response","trial_index":31,"plugin_version":"2.1.0","time_elapsed":179642},{"target_group":"white","condition_label":"W_H_vs_B_L_rep25","target_direction":273,"distractor_direction":182,"session_rotation":243,"rt":-1,"response":"","correct":false,"choices":"ALL_KEYS","correct_choice":["a"],"trial_duration":2000,"flip_timestamps":[],"response_ends_trial":false,"number_of_apertures":200,"number_of_dots":[1,1,1,1,1,1,1,1,1,1,1,1,1,1,1,1,1,1,1,1,1,1,1,1,1,1,1,1,1,1,1,1,1,1,1,1,1,1,1,1,1,1,1,1,1,1,1,1,1,1,1,1,1,1,1,1,1,1,1,1,1,1,1,1,1,1,1,1,1,1,1,1,1,1,1,1,1,1,1,1,1,1,1,1,1,1,1,1,1,1,1,1,1,1,1,1,1,1,1,1,1,1,1,1,1,1,1,1,1,1,1,1,1,1,1,1,1,1,1,1,1,1,1,1,1,1,1,1,1,1,1,1,1,1,1,1,1,1,1,1,1,1,1,1,1,1,1,1,1,1,1,1,1,1,1,1,1,1,1,1,1,1,1,1,1,1,1,1,1,1,1,1,1,1,1,1,1,1,1,1,1,1,1,1,1,1,1,1,1,1,1,1,1,1,1,1,1,1,1,1],"number_of_sets":1,"coherent_direction":[273,273,273,182,273,182,273,182,273,273,273,273,182,182,273,182,182,182,273,182,182,182,273,273,182,182,273,182,273,182,182,182,182,273,273,273,273,182,182,273,182,273,273,273,273,273,182,182,182,182,273,182,182,182,182,273,273,273,182,182,273,273,273,182,182,273,273,182,273,273,273,273,182,182,273,273,182,273,273,273,182,182,182,273,273,182,182,182,273,273,273,182,273,182,273,273,273,182,273,273,273,182,182,182,182,182,273,182,182,273,273,182,182,273,273,182,182,273,273,182,182,182,273,273,273,273,182,182,182,182,182,182,182,273,273,182,182,273,182,182,273,182,182,273,182,273,182,182,182,182,273,182,182,273,273,182,182,182,182,182,273,273,182,273,182,273,182,273,273,182,273,273,273,182,182,273,273,182,182,182,273,182,273,273,182,273,273,273,273,273,273,182,273,182,273,273,182,273,273,182],"coherence":1,"opposite_coherence":0,"dot_radius":2,"dot_side_length":1,"dot_life":-1,"move_distance":1,"aperture_width":300,"aperture_height":300,"dot_color":["white","white","white","black","white","black","white","black","white","white","white","white","black","black","white","black","black","black","white","black","black","black","white","white","black","black","white","black","white","black","black","black","black","white","white","white","white","black","black","white","black","white","white","white","white","white","black","black","black","black","white","black","black","black","black","white","white","white","black","black","white","white","white","black","black","white","white","black","white","white","white","white","black","black","white","white","black","white","white","white","black","black","black","white","white","black","black","black","white","white","white","black","white","black","white","white","white","black","white","white","white","black","black","black","black","black","white","black","black","white","white","black","black","white","white","black","black","white","white","black","black","black","white","white","white","white","black","black","black","black","black","black","black","white","white","black","black","white","black","black","white","black","black","white","black","white","black","black","black","black","white","black","black","white","white","black","black","black","black","black","white","white","black","white","black","white","black","white","white","black","white","white","white","black","black","white","white","black","black","black","white","black","white","white","black","white","white","white","white","white","white","black","white","black","white","white","black","white","white","black"],"dot_shape":"circle","background_color":"#AAA","RDK_type":3,"aperture_type":2,"reinsert_type":2,"frame_rate":16.725,"frame_rate_array":[13,17,17,17,16,17,17,16,17,17,17,16,17,17,17,16,17,16,17,16,16,17,17,17,16,18,17,17,16,17,17,16,17,16,17,17,17,16,18,16,17,16,17,17,16,18,16,17,16,17,17,16,17,16,17,17,17,17,17,17,17,16,17,16,17,17,17,17,16,17,17,17,17,17,17,16,17,17,17,17,17,17,17,17,17,18,17,16,17,17,17,17,16,18,17,16,17,17,16,17,17,16,16,16,17,16,17,17,17,17,17,17,16,17,16,17,16,17,17,17],"number_of_frames":120,"aperture_center_x":768,"aperture_center_y":480,"fixation_cross":true,"fixation_cross_width":15,"fixation_cross_height":15,"fixation_cross_color":"#111","fixation_cross_thickness":1,"border":true,"border_thickness":2,"border_color":"transparent","canvas_width":1536,"canvas_height":960,"trial_type":"rdk","trial_index":32,"plugin_version":"2.0.0","time_elapsed":181653},{"rt":2920,"stimulus":"\n        <div class=\"response-container\">\n          <div class=\"response-instruction\">\n            <p>rotate the bar by using the left and right arrow keys.</p>\n            <p>when you are determined, press the Enter key.</p>\n          </div>\n          <div class=\"response-circle\">\n            <div class=\"response-fixation\"></div>\n            <div id=\"bar\" class=\"rotating-bar\"></div>\n          </div>\n        </div>\n      ","response":"Enter","trial_type":"html-keyboard-response","trial_index":33,"plugin_version":"2.1.0","time_elapsed":184574,"response_angle_css":146,"response_angle_rdk":304,"angular_error_target":31,"angular_error_distractor":122,"target_direction":273,"target_group":"white","reward_points":3},{"rt":null,"stimulus":"\n          <p style=\"color: #00FF00;\">Your reward: 3 points</p>\n        ","response":null,"trial_type":"html-keyboard-response","trial_index":34,"plugin_version":"2.1.0","time_elapsed":186580},{"rt":null,"stimulus":"<div class=\"fixation\" style=\"font-size: 60px;\">+</div>","response":null,"trial_type":"html-keyboard-response","trial_index":35,"plugin_version":"2.1.0","time_elapsed":187593},{"target_group":"black","condition_label":"B_H_vs_W_L_rep20","target_direction":358,"distractor_direction":96,"session_rotation":243,"rt":-1,"response":"","correct":false,"choices":"ALL_KEYS","correct_choice":["a"],"trial_duration":2000,"flip_timestamps":[],"response_ends_trial":false,"number_of_apertures":200,"number_of_dots":[1,1,1,1,1,1,1,1,1,1,1,1,1,1,1,1,1,1,1,1,1,1,1,1,1,1,1,1,1,1,1,1,1,1,1,1,1,1,1,1,1,1,1,1,1,1,1,1,1,1,1,1,1,1,1,1,1,1,1,1,1,1,1,1,1,1,1,1,1,1,1,1,1,1,1,1,1,1,1,1,1,1,1,1,1,1,1,1,1,1,1,1,1,1,1,1,1,1,1,1,1,1,1,1,1,1,1,1,1,1,1,1,1,1,1,1,1,1,1,1,1,1,1,1,1,1,1,1,1,1,1,1,1,1,1,1,1,1,1,1,1,1,1,1,1,1,1,1,1,1,1,1,1,1,1,1,1,1,1,1,1,1,1,1,1,1,1,1,1,1,1,1,1,1,1,1,1,1,1,1,1,1,1,1,1,1,1,1,1,1,1,1,1,1,1,1,1,1,1,1],"number_of_sets":1,"coherent_direction":[358,96,96,96,358,358,96,358,358,96,96,358,358,96,358,358,96,96,96,96,358,96,358,96,358,358,96,96,96,96,358,96,358,96,96,358,96,96,96,96,358,358,96,358,96,96,96,358,358,358,96,96,96,358,96,358,96,358,358,96,96,96,96,96,358,358,358,358,358,358,358,358,96,358,358,96,358,96,96,96,96,96,358,96,96,96,96,358,96,358,96,96,358,96,96,96,96,96,358,96,96,96,358,96,358,96,358,358,96,96,96,358,358,96,358,96,96,358,96,358,96,96,358,358,358,96,96,96,358,358,358,358,358,358,358,358,96,358,358,96,358,96,358,358,358,96,358,358,358,358,96,358,96,358,358,96,96,358,358,358,96,358,96,358,358,96,358,358,358,96,358,358,358,358,358,96,96,96,96,358,96,358,358,358,358,96,96,96,358,358,358,96,96,96,358,96,358,358,96,96],"coherence":1,"opposite_coherence":0,"dot_radius":2,"dot_side_length":1,"dot_life":-1,"move_distance":1,"aperture_width":300,"aperture_height":300,"dot_color":["black","white","white","white","black","black","white","black","black","white","white","black","black","white","black","black","white","white","white","white","black","white","black","white","black","black","white","white","white","white","black","white","black","white","white","black","white","white","white","white","black","black","white","black","white","white","white","black","black","black","white","white","white","black","white","black","white","black","black","white","white","white","white","white","black","black","black","black","black","black","black","black","white","black","black","white","black","white","white","white","white","white","black","white","white","white","white","black","white","black","white","white","black","white","white","white","white","white","black","white","white","white","black","white","black","white","black","black","white","white","white","black","black","white","black","white","white","black","white","black","white","white","black","black","black","white","white","white","black","black","black","black","black","black","black","black","white","black","black","white","black","white","black","black","black","white","black","black","black","black","white","black","white","black","black","white","white","black","black","black","white","black","white","black","black","white","black","black","black","white","black","black","black","black","black","white","white","white","white","black","white","black","black","black","black","white","white","white","black","black","black","white","white","white","black","white","black","black","white","white"],"dot_shape":"circle","background_color":"#AAA","RDK_type":3,"aperture_type":2,"reinsert_type":2,"frame_rate":16.710743801652892,"frame_rate_array":[10,17,17,16,17,17,16,17,17,17,16,17,17,16,17,16,17,17,17,17,17,17,17,16,17,17,16,16,17,17,17,16,17,17,17,17,17,17,17,17,16,17,16,16,17,18,17,17,16,17,17,17,16,18,17,17,15,17,17,17,17,16,17,16,17,16,18,17,17,17,17,17,17,17,16,17,17,15,17,17,17,17,17,17,17,17,16,17,17,17,17,17,17,16,18,17,16,16,18,16,18,16,17,17,17,15,17,17,16,17,18,17,16,17,16,17,16,17,17,16,17],"number_of_frames":121,"aperture_center_x":768,"aperture_center_y":480,"fixation_cross":true,"fixation_cross_width":15,"fixation_cross_height":15,"fixation_cross_color":"#111","fixation_cross_thickness":1,"border":true,"border_thickness":2,"border_color":"transparent","canvas_width":1536,"canvas_height":960,"trial_type":"rdk","trial_index":36,"plugin_version":"2.0.0","time_elapsed":189604},{"rt":4835,"stimulus":"\n        <div class=\"response-container\">\n          <div class=\"response-instruction\">\n            <p>rotate the bar by using the left and right arrow keys.</p>\n            <p>when you are determined, press the Enter key.</p>\n          </div>\n          <div class=\"response-circle\">\n            <div class=\"response-fixation\"></div>\n            <div id=\"bar\" class=\"rotating-bar\"></div>\n          </div>\n        </div>\n      ","response":"Enter","trial_type":"html-keyboard-response","trial_index":37,"plugin_version":"2.1.0","time_elapsed":194439,"response_angle_css":-31,"response_angle_rdk":121,"angular_error_target":123,"angular_error_distractor":25,"target_direction":358,"target_group":"black","reward_points":0},{"rt":null,"stimulus":"\n          <p style=\"color: #FF3333;\">Your reward: 0 points</p>\n        ","response":null,"trial_type":"html-keyboard-response","trial_index":38,"plugin_version":"2.1.0","time_elapsed":196442},{"rt":null,"stimulus":"<div class=\"fixation\" style=\"font-size: 60px;\">+</div>","response":null,"trial_type":"html-keyboard-response","trial_index":39,"plugin_version":"2.1.0","time_elapsed":197458},{"target_group":"white","condition_label":"W_H_vs_B_L_rep24","target_direction":283,"distractor_direction":185,"session_rotation":243,"rt":-1,"response":"","correct":false,"choices":"ALL_KEYS","correct_choice":["a"],"trial_duration":2000,"flip_timestamps":[],"response_ends_trial":false,"number_of_apertures":200,"number_of_dots":[1,1,1,1,1,1,1,1,1,1,1,1,1,1,1,1,1,1,1,1,1,1,1,1,1,1,1,1,1,1,1,1,1,1,1,1,1,1,1,1,1,1,1,1,1,1,1,1,1,1,1,1,1,1,1,1,1,1,1,1,1,1,1,1,1,1,1,1,1,1,1,1,1,1,1,1,1,1,1,1,1,1,1,1,1,1,1,1,1,1,1,1,1,1,1,1,1,1,1,1,1,1,1,1,1,1,1,1,1,1,1,1,1,1,1,1,1,1,1,1,1,1,1,1,1,1,1,1,1,1,1,1,1,1,1,1,1,1,1,1,1,1,1,1,1,1,1,1,1,1,1,1,1,1,1,1,1,1,1,1,1,1,1,1,1,1,1,1,1,1,1,1,1,1,1,1,1,1,1,1,1,1,1,1,1,1,1,1,1,1,1,1,1,1,1,1,1,1,1,1],"number_of_sets":1,"coherent_direction":[185,283,185,185,283,185,185,185,185,185,283,283,283,185,283,185,283,185,185,185,283,185,283,185,185,283,185,283,283,283,185,283,185,185,283,283,185,283,185,283,185,283,283,283,185,283,185,185,283,283,283,283,185,283,283,283,185,185,185,185,283,283,185,185,185,185,185,185,283,185,185,185,283,283,283,185,283,283,283,283,185,185,283,283,283,185,283,185,283,185,185,185,283,185,283,185,283,283,283,185,185,283,283,185,283,283,185,185,185,185,185,283,185,185,283,185,185,185,283,185,185,283,283,185,283,283,185,283,185,283,185,283,185,185,185,283,283,185,185,283,283,185,283,185,283,185,283,283,283,283,283,283,283,283,283,283,185,185,283,185,283,185,185,283,185,283,283,185,185,283,185,283,185,283,283,185,185,185,185,185,185,283,283,283,283,283,283,185,283,283,283,185,283,283,185,283,185,185,185,185],"coherence":1,"opposite_coherence":0,"dot_radius":2,"dot_side_length":1,"dot_life":-1,"move_distance":1,"aperture_width":300,"aperture_height":300,"dot_color":["black","white","black","black","white","black","black","black","black","black","white","white","white","black","white","black","white","black","black","black","white","black","white","black","black","white","black","white","white","white","black","white","black","black","white","white","black","white","black","white","black","white","white","white","black","white","black","black","white","white","white","white","black","white","white","white","black","black","black","black","white","white","black","black","black","black","black","black","white","black","black","black","white","white","white","black","white","white","white","white","black","black","white","white","white","black","white","black","white","black","black","black","white","black","white","black","white","white","white","black","black","white","white","black","white","white","black","black","black","black","black","white","black","black","white","black","black","black","white","black","black","white","white","black","white","white","black","white","black","white","black","white","black","black","black","white","white","black","black","white","white","black","white","black","white","black","white","white","white","white","white","white","white","white","white","white","black","black","white","black","white","black","black","white","black","white","white","black","black","white","black","white","black","white","white","black","black","black","black","black","black","white","white","white","white","white","white","black","white","white","white","black","white","white","black","white","black","black","black","black"],"dot_shape":"circle","background_color":"#AAA","RDK_type":3,"aperture_type":2,"reinsert_type":2,"frame_rate":16.75206611570248,"frame_rate_array":[8,17,17,17,16,17,17,17,16,17,17,17,17,17,17,16,18,17,15,17,17,17,17,17,17,17,17,17,17,17,17,17,17,16,17,17,17,17,17,15,18,16,17,16,17,16,17,15,17,17,17,17,17,17,17,16,17,17,17,17,17,17,17,17,17,17,17,16,17,17,17,17,17,17,17,17,16,17,17,17,17,16,17,16,17,17,17,17,17,16,17,17,17,17,17,16,17,17,17,18,16,17,17,17,17,17,17,17,17,16,17,17,17,17,17,17,17,17,16,17,16],"number_of_frames":121,"aperture_center_x":768,"aperture_center_y":480,"fixation_cross":true,"fixation_cross_width":15,"fixation_cross_height":15,"fixation_cross_color":"#111","fixation_cross_thickness":1,"border":true,"border_thickness":2,"border_color":"transparent","canvas_width":1536,"canvas_height":960,"trial_type":"rdk","trial_index":40,"plugin_version":"2.0.0","time_elapsed":199472},{"rt":5140,"stimulus":"\n        <div class=\"response-container\">\n          <div class=\"response-instruction\">\n            <p>rotate the bar by using the left and right arrow keys.</p>\n            <p>when you are determined, press the Enter key.</p>\n          </div>\n          <div class=\"response-circle\">\n            <div class=\"response-fixation\"></div>\n            <div id=\"bar\" class=\"rotating-bar\"></div>\n          </div>\n        </div>\n      ","response":"Enter","trial_type":"html-keyboard-response","trial_index":41,"plugin_version":"2.1.0","time_elapsed":204612,"response_angle_css":-98,"response_angle_rdk":188,"angular_error_target":-95,"angular_error_distractor":3,"target_direction":283,"target_group":"white","reward_points":0},{"rt":null,"stimulus":"\n          <p style=\"color: #FF3333;\">Your reward: 0 points</p>\n        ","response":null,"trial_type":"html-keyboard-response","trial_index":42,"plugin_version":"2.1.0","time_elapsed":206615},{"rt":null,"stimulus":"<div class=\"fixation\" style=\"font-size: 60px;\">+</div>","response":null,"trial_type":"html-keyboard-response","trial_index":43,"plugin_version":"2.1.0","time_elapsed":207620},{"target_group":"white","condition_label":"W_H_vs_B_L_rep11","target_direction":273,"distractor_direction":160,"session_rotation":243,"rt":-1,"response":"","correct":false,"choices":"ALL_KEYS","correct_choice":["a"],"trial_duration":2000,"flip_timestamps":[],"response_ends_trial":false,"number_of_apertures":200,"number_of_dots":[1,1,1,1,1,1,1,1,1,1,1,1,1,1,1,1,1,1,1,1,1,1,1,1,1,1,1,1,1,1,1,1,1,1,1,1,1,1,1,1,1,1,1,1,1,1,1,1,1,1,1,1,1,1,1,1,1,1,1,1,1,1,1,1,1,1,1,1,1,1,1,1,1,1,1,1,1,1,1,1,1,1,1,1,1,1,1,1,1,1,1,1,1,1,1,1,1,1,1,1,1,1,1,1,1,1,1,1,1,1,1,1,1,1,1,1,1,1,1,1,1,1,1,1,1,1,1,1,1,1,1,1,1,1,1,1,1,1,1,1,1,1,1,1,1,1,1,1,1,1,1,1,1,1,1,1,1,1,1,1,1,1,1,1,1,1,1,1,1,1,1,1,1,1,1,1,1,1,1,1,1,1,1,1,1,1,1,1,1,1,1,1,1,1,1,1,1,1,1,1],"number_of_sets":1,"coherent_direction":[160,273,160,160,273,160,160,160,273,160,273,160,160,160,160,160,160,273,273,273,273,160,273,160,273,160,273,273,273,160,273,160,273,160,160,273,273,160,273,160,273,160,160,273,160,160,160,160,273,160,273,273,160,273,273,160,273,160,273,273,273,273,273,273,160,273,273,160,160,273,273,273,160,273,160,160,160,273,273,273,160,273,160,273,273,160,273,160,160,273,160,273,273,273,273,160,273,160,160,273,273,273,160,273,273,273,273,273,160,160,160,273,160,273,273,160,160,160,160,273,273,273,273,160,160,160,160,160,160,160,160,273,160,160,160,160,273,273,273,160,273,160,160,160,160,273,160,160,160,160,160,160,273,273,160,273,160,160,160,273,273,273,273,273,273,273,160,160,273,160,273,273,273,273,273,160,273,273,273,160,160,160,160,273,160,160,273,273,160,273,160,160,160,273,160,273,160,273,273,273],"coherence":1,"opposite_coherence":0,"dot_radius":2,"dot_side_length":1,"dot_life":-1,"move_distance":1,"aperture_width":300,"aperture_height":300,"dot_color":["black","white","black","black","white","black","black","black","white","black","white","black","black","black","black","black","black","white","white","white","white","black","white","black","white","black","white","white","white","black","white","black","white","black","black","white","white","black","white","black","white","black","black","white","black","black","black","black","white","black","white","white","black","white","white","black","white","black","white","white","white","white","white","white","black","white","white","black","black","white","white","white","black","white","black","black","black","white","white","white","black","white","black","white","white","black","white","black","black","white","black","white","white","white","white","black","white","black","black","white","white","white","black","white","white","white","white","white","black","black","black","white","black","white","white","black","black","black","black","white","white","white","white","black","black","black","black","black","black","black","black","white","black","black","black","black","white","white","white","black","white","black","black","black","black","white","black","black","black","black","black","black","white","white","black","white","black","black","black","white","white","white","white","white","white","white","black","black","white","black","white","white","white","white","white","black","white","white","white","black","black","black","black","white","black","black","white","white","black","white","black","black","black","white","black","white","black","white","white","white"],"dot_shape":"circle","background_color":"#AAA","RDK_type":3,"aperture_type":2,"reinsert_type":2,"frame_rate":16.68595041322314,"frame_rate_array":[11,17,17,16,17,16,17,17,17,16,16,17,16,17,17,17,17,17,15,17,17,17,17,17,16,17,17,17,17,17,17,16,16,16,18,17,17,17,16,16,17,17,16,17,16,17,17,17,17,17,17,17,17,17,17,17,17,17,17,16,17,16,17,17,17,16,17,17,17,16,17,17,16,17,17,16,16,17,17,17,16,17,17,17,17,16,17,17,17,17,16,17,16,17,17,17,17,17,17,15,18,16,17,15,17,16,17,18,16,17,17,17,16,17,17,17,17,17,17,17,16],"number_of_frames":121,"aperture_center_x":768,"aperture_center_y":480,"fixation_cross":true,"fixation_cross_width":15,"fixation_cross_height":15,"fixation_cross_color":"#111","fixation_cross_thickness":1,"border":true,"border_thickness":2,"border_color":"transparent","canvas_width":1536,"canvas_height":960,"trial_type":"rdk","trial_index":44,"plugin_version":"2.0.0","time_elapsed":209637},{"rt":3640,"stimulus":"\n        <div class=\"response-container\">\n          <div class=\"response-instruction\">\n            <p>rotate the bar by using the left and right arrow keys.</p>\n            <p>when you are determined, press the Enter key.</p>\n          </div>\n          <div class=\"response-circle\">\n            <div class=\"response-fixation\"></div>\n            <div id=\"bar\" class=\"rotating-bar\"></div>\n          </div>\n        </div>\n      ","response":"Enter","trial_type":"html-keyboard-response","trial_index":45,"plugin_version":"2.1.0","time_elapsed":213278,"response_angle_css":139,"response_angle_rdk":311,"angular_error_target":38,"angular_error_distractor":151,"target_direction":273,"target_group":"white","reward_points":2},{"rt":null,"stimulus":"\n          <p style=\"color: #FF3333;\">Your reward: 2 points</p>\n        ","response":null,"trial_type":"html-keyboard-response","trial_index":46,"plugin_version":"2.1.0","time_elapsed":215289},{"rt":null,"stimulus":"<div class=\"fixation\" style=\"font-size: 60px;\">+</div>","response":null,"trial_type":"html-keyboard-response","trial_index":47,"plugin_version":"2.1.0","time_elapsed":216291},{"target_group":"black","condition_label":"B_H_vs_W_L_rep4","target_direction":337,"distractor_direction":68,"session_rotation":243,"rt":-1,"response":"","correct":false,"choices":"ALL_KEYS","correct_choice":["a"],"trial_duration":2000,"flip_timestamps":[],"response_ends_trial":false,"number_of_apertures":200,"number_of_dots":[1,1,1,1,1,1,1,1,1,1,1,1,1,1,1,1,1,1,1,1,1,1,1,1,1,1,1,1,1,1,1,1,1,1,1,1,1,1,1,1,1,1,1,1,1,1,1,1,1,1,1,1,1,1,1,1,1,1,1,1,1,1,1,1,1,1,1,1,1,1,1,1,1,1,1,1,1,1,1,1,1,1,1,1,1,1,1,1,1,1,1,1,1,1,1,1,1,1,1,1,1,1,1,1,1,1,1,1,1,1,1,1,1,1,1,1,1,1,1,1,1,1,1,1,1,1,1,1,1,1,1,1,1,1,1,1,1,1,1,1,1,1,1,1,1,1,1,1,1,1,1,1,1,1,1,1,1,1,1,1,1,1,1,1,1,1,1,1,1,1,1,1,1,1,1,1,1,1,1,1,1,1,1,1,1,1,1,1,1,1,1,1,1,1,1,1,1,1,1,1],"number_of_sets":1,"coherent_direction":[337,68,68,68,68,337,337,68,337,68,337,68,68,337,337,337,337,68,68,68,68,337,337,68,337,68,337,337,68,337,68,68,337,337,337,337,68,337,68,68,68,337,68,337,68,68,68,337,337,337,337,337,68,337,337,337,68,337,337,337,337,68,68,337,337,68,68,68,68,337,337,68,68,68,337,68,68,68,68,337,337,337,68,68,68,337,337,68,68,337,68,337,337,68,68,337,337,337,337,68,337,337,337,68,68,68,337,337,337,68,68,68,337,337,68,337,337,337,337,68,337,68,68,68,68,337,68,68,68,68,337,68,68,68,337,337,68,68,337,337,68,68,337,68,337,337,337,337,337,68,337,337,68,68,337,337,68,68,68,68,337,337,68,337,68,68,337,68,68,337,68,337,68,68,68,337,337,68,68,68,337,337,68,68,337,68,68,68,337,337,337,337,337,68,337,337,68,68,337,337],"coherence":1,"opposite_coherence":0,"dot_radius":2,"dot_side_length":1,"dot_life":-1,"move_distance":1,"aperture_width":300,"aperture_height":300,"dot_color":["black","white","white","white","white","black","black","white","black","white","black","white","white","black","black","black","black","white","white","white","white","black","black","white","black","white","black","black","white","black","white","white","black","black","black","black","white","black","white","white","white","black","white","black","white","white","white","black","black","black","black","black","white","black","black","black","white","black","black","black","black","white","white","black","black","white","white","white","white","black","black","white","white","white","black","white","white","white","white","black","black","black","white","white","white","black","black","white","white","black","white","black","black","white","white","black","black","black","black","white","black","black","black","white","white","white","black","black","black","white","white","white","black","black","white","black","black","black","black","white","black","white","white","white","white","black","white","white","white","white","black","white","white","white","black","black","white","white","black","black","white","white","black","white","black","black","black","black","black","white","black","black","white","white","black","black","white","white","white","white","black","black","white","black","white","white","black","white","white","black","white","black","white","white","white","black","black","white","white","white","black","black","white","white","black","white","white","white","black","black","black","black","black","white","black","black","white","white","black","black"],"dot_shape":"circle","background_color":"#AAA","RDK_type":3,"aperture_type":2,"reinsert_type":2,"frame_rate":16.694214876033058,"frame_rate_array":[7,17,18,16,18,16,17,16,17,17,17,17,17,17,16,17,17,18,16,17,16,17,16,17,16,17,17,17,17,17,17,17,17,16,17,16,17,16,17,17,16,17,17,16,16,18,17,17,17,17,16,17,17,17,16,17,16,18,16,17,17,17,17,17,17,17,16,17,16,16,17,17,17,17,15,18,15,17,17,17,17,17,17,17,17,17,16,17,17,17,17,17,17,17,17,16,17,18,16,17,17,16,17,17,17,17,16,17,16,17,17,17,16,17,17,17,17,17,16,17,16],"number_of_frames":121,"aperture_center_x":768,"aperture_center_y":480,"fixation_cross":true,"fixation_cross_width":15,"fixation_cross_height":15,"fixation_cross_color":"#111","fixation_cross_thickness":1,"border":true,"border_thickness":2,"border_color":"transparent","canvas_width":1536,"canvas_height":960,"trial_type":"rdk","trial_index":48,"plugin_version":"2.0.0","time_elapsed":218301},{"rt":2697,"stimulus":"\n        <div class=\"response-container\">\n          <div class=\"response-instruction\">\n            <p>rotate the bar by using the left and right arrow keys.</p>\n            <p>when you are determined, press the Enter key.</p>\n          </div>\n          <div class=\"response-circle\">\n            <div class=\"response-fixation\"></div>\n            <div id=\"bar\" class=\"rotating-bar\"></div>\n          </div>\n        </div>\n      ","response":"Enter","trial_type":"html-keyboard-response","trial_index":49,"plugin_version":"2.1.0","time_elapsed":220999,"response_angle_css":383,"response_angle_rdk":67,"angular_error_target":90,"angular_error_distractor":-1,"target_direction":337,"target_group":"black","reward_points":0},{"rt":null,"stimulus":"\n          <p style=\"color: #FF3333;\">Your reward: 0 points</p>\n        ","response":null,"trial_type":"html-keyboard-response","trial_index":50,"plugin_version":"2.1.0","time_elapsed":223004},{"rt":null,"stimulus":"<div class=\"fixation\" style=\"font-size: 60px;\">+</div>","response":null,"trial_type":"html-keyboard-response","trial_index":51,"plugin_version":"2.1.0","time_elapsed":224020},{"target_group":"white","condition_label":"W_H_vs_B_L_rep23","target_direction":278,"distractor_direction":176,"session_rotation":243,"rt":-1,"response":"","correct":false,"choices":"ALL_KEYS","correct_choice":["a"],"trial_duration":2000,"flip_timestamps":[],"response_ends_trial":false,"number_of_apertures":200,"number_of_dots":[1,1,1,1,1,1,1,1,1,1,1,1,1,1,1,1,1,1,1,1,1,1,1,1,1,1,1,1,1,1,1,1,1,1,1,1,1,1,1,1,1,1,1,1,1,1,1,1,1,1,1,1,1,1,1,1,1,1,1,1,1,1,1,1,1,1,1,1,1,1,1,1,1,1,1,1,1,1,1,1,1,1,1,1,1,1,1,1,1,1,1,1,1,1,1,1,1,1,1,1,1,1,1,1,1,1,1,1,1,1,1,1,1,1,1,1,1,1,1,1,1,1,1,1,1,1,1,1,1,1,1,1,1,1,1,1,1,1,1,1,1,1,1,1,1,1,1,1,1,1,1,1,1,1,1,1,1,1,1,1,1,1,1,1,1,1,1,1,1,1,1,1,1,1,1,1,1,1,1,1,1,1,1,1,1,1,1,1,1,1,1,1,1,1,1,1,1,1,1,1],"number_of_sets":1,"coherent_direction":[278,176,176,176,278,278,176,278,278,176,278,176,278,278,176,176,176,278,176,278,278,278,278,176,176,278,278,278,278,176,278,278,176,176,176,176,278,278,278,176,278,278,278,278,278,278,278,278,176,176,278,278,278,176,176,278,176,176,278,176,278,176,278,176,176,176,278,278,176,278,176,278,176,176,176,176,176,278,176,176,278,278,176,176,176,176,278,278,278,176,176,176,278,278,278,176,176,176,278,278,278,176,176,176,176,176,176,176,278,176,176,278,278,176,176,278,278,278,176,176,278,278,278,278,278,176,278,176,278,176,278,176,176,278,278,278,176,176,278,176,176,176,278,176,176,278,176,176,176,278,176,278,278,176,278,278,176,176,278,278,176,176,176,176,278,176,278,278,176,278,278,278,176,278,176,176,176,278,176,278,176,176,278,278,176,278,176,278,278,278,278,278,176,278,176,278,278,176,176,176],"coherence":1,"opposite_coherence":0,"dot_radius":2,"dot_side_length":1,"dot_life":-1,"move_distance":1,"aperture_width":300,"aperture_height":300,"dot_color":["white","black","black","black","white","white","black","white","white","black","white","black","white","white","black","black","black","white","black","white","white","white","white","black","black","white","white","white","white","black","white","white","black","black","black","black","white","white","white","black","white","white","white","white","white","white","white","white","black","black","white","white","white","black","black","white","black","black","white","black","white","black","white","black","black","black","white","white","black","white","black","white","black","black","black","black","black","white","black","black","white","white","black","black","black","black","white","white","white","black","black","black","white","white","white","black","black","black","white","white","white","black","black","black","black","black","black","black","white","black","black","white","white","black","black","white","white","white","black","black","white","white","white","white","white","black","white","black","white","black","white","black","black","white","white","white","black","black","white","black","black","black","white","black","black","white","black","black","black","white","black","white","white","black","white","white","black","black","white","white","black","black","black","black","white","black","white","white","black","white","white","white","black","white","black","black","black","white","black","white","black","black","white","white","black","white","black","white","white","white","white","white","black","white","black","white","white","black","black","black"],"dot_shape":"circle","background_color":"#AAA","RDK_type":3,"aperture_type":2,"reinsert_type":2,"frame_rate":16.708333333333332,"frame_rate_array":[9,17,16,17,17,16,17,16,17,17,17,16,17,16,17,17,17,17,17,17,17,16,17,18,16,18,17,17,16,17,16,18,16,17,16,17,17,16,17,16,16,17,17,16,16,17,17,17,17,17,17,17,17,17,16,17,17,17,18,16,17,16,17,16,17,17,17,16,17,17,17,17,16,17,17,16,17,17,17,17,16,17,16,17,17,17,17,17,17,17,17,16,16,18,17,17,17,16,17,17,17,16,17,17,17,16,17,17,17,17,16,18,16,17,17,17,16,17,17,17],"number_of_frames":120,"aperture_center_x":768,"aperture_center_y":480,"fixation_cross":true,"fixation_cross_width":15,"fixation_cross_height":15,"fixation_cross_color":"#111","fixation_cross_thickness":1,"border":true,"border_thickness":2,"border_color":"transparent","canvas_width":1536,"canvas_height":960,"trial_type":"rdk","trial_index":52,"plugin_version":"2.0.0","time_elapsed":226032},{"rt":3080,"stimulus":"\n        <div class=\"response-container\">\n          <div class=\"response-instruction\">\n            <p>rotate the bar by using the left and right arrow keys.</p>\n            <p>when you are determined, press the Enter key.</p>\n          </div>\n          <div class=\"response-circle\">\n            <div class=\"response-fixation\"></div>\n            <div id=\"bar\" class=\"rotating-bar\"></div>\n          </div>\n        </div>\n      ","response":"Enter","trial_type":"html-keyboard-response","trial_index":53,"plugin_version":"2.1.0","time_elapsed":229113,"response_angle_css":310,"response_angle_rdk":140,"angular_error_target":-138,"angular_error_distractor":-36,"target_direction":278,"target_group":"white","reward_points":0},{"rt":null,"stimulus":"\n          <p style=\"color: #FF3333;\">Your reward: 0 points</p>\n        ","response":null,"trial_type":"html-keyboard-response","trial_index":54,"plugin_version":"2.1.0","time_elapsed":231123},{"rt":null,"stimulus":"<div class=\"fixation\" style=\"font-size: 60px;\">+</div>","response":null,"trial_type":"html-keyboard-response","trial_index":55,"plugin_version":"2.1.0","time_elapsed":232137},{"target_group":"black","condition_label":"B_H_vs_W_L_rep19","target_direction":337,"distractor_direction":101,"session_rotation":243,"rt":-1,"response":"","correct":false,"choices":"ALL_KEYS","correct_choice":["a"],"trial_duration":2000,"flip_timestamps":[],"response_ends_trial":false,"number_of_apertures":200,"number_of_dots":[1,1,1,1,1,1,1,1,1,1,1,1,1,1,1,1,1,1,1,1,1,1,1,1,1,1,1,1,1,1,1,1,1,1,1,1,1,1,1,1,1,1,1,1,1,1,1,1,1,1,1,1,1,1,1,1,1,1,1,1,1,1,1,1,1,1,1,1,1,1,1,1,1,1,1,1,1,1,1,1,1,1,1,1,1,1,1,1,1,1,1,1,1,1,1,1,1,1,1,1,1,1,1,1,1,1,1,1,1,1,1,1,1,1,1,1,1,1,1,1,1,1,1,1,1,1,1,1,1,1,1,1,1,1,1,1,1,1,1,1,1,1,1,1,1,1,1,1,1,1,1,1,1,1,1,1,1,1,1,1,1,1,1,1,1,1,1,1,1,1,1,1,1,1,1,1,1,1,1,1,1,1,1,1,1,1,1,1,1,1,1,1,1,1,1,1,1,1,1,1],"number_of_sets":1,"coherent_direction":[101,101,337,101,337,101,101,101,101,101,337,101,337,337,101,337,101,337,101,337,101,337,101,101,101,337,101,101,337,337,337,101,337,101,101,101,101,337,337,101,337,337,337,101,101,101,337,101,101,337,337,337,101,337,101,337,101,101,337,101,101,337,337,101,101,337,337,337,337,101,337,337,337,337,101,101,337,337,337,337,337,101,101,101,101,337,101,101,101,337,101,101,101,337,337,337,337,101,101,337,101,101,337,101,337,101,337,337,337,337,101,337,101,337,101,337,337,337,101,337,337,337,101,101,101,101,337,337,337,337,337,101,101,337,337,337,101,101,337,101,337,337,337,101,101,337,101,101,337,101,337,101,337,337,101,101,101,101,101,101,337,101,337,101,337,101,101,101,101,337,337,337,337,337,101,101,337,337,337,337,101,101,337,337,101,337,101,337,101,337,337,101,101,337,337,101,101,337,101,101],"coherence":1,"opposite_coherence":0,"dot_radius":2,"dot_side_length":1,"dot_life":-1,"move_distance":1,"aperture_width":300,"aperture_height":300,"dot_color":["white","white","black","white","black","white","white","white","white","white","black","white","black","black","white","black","white","black","white","black","white","black","white","white","white","black","white","white","black","black","black","white","black","white","white","white","white","black","black","white","black","black","black","white","white","white","black","white","white","black","black","black","white","black","white","black","white","white","black","white","white","black","black","white","white","black","black","black","black","white","black","black","black","black","white","white","black","black","black","black","black","white","white","white","white","black","white","white","white","black","white","white","white","black","black","black","black","white","white","black","white","white","black","white","black","white","black","black","black","black","white","black","white","black","white","black","black","black","white","black","black","black","white","white","white","white","black","black","black","black","black","white","white","black","black","black","white","white","black","white","black","black","black","white","white","black","white","white","black","white","black","white","black","black","white","white","white","white","white","white","black","white","black","white","black","white","white","white","white","black","black","black","black","black","white","white","black","black","black","black","white","white","black","black","white","black","white","black","white","black","black","white","white","black","black","white","white","black","white","white"],"dot_shape":"circle","background_color":"#AAA","RDK_type":3,"aperture_type":2,"reinsert_type":2,"frame_rate":16.785123966942148,"frame_rate_array":[9,17,17,17,17,17,18,17,16,18,17,17,17,17,17,16,17,17,17,16,16,16,17,17,18,17,16,17,16,17,18,17,17,17,17,17,17,15,18,16,18,16,17,17,16,17,17,16,16,17,17,17,17,17,17,17,17,17,17,17,17,17,17,17,16,17,17,17,17,17,17,17,17,16,17,17,17,17,17,18,17,17,17,16,17,17,17,16,17,16,17,17,17,17,17,17,17,17,16,17,17,17,16,16,17,17,17,17,17,16,16,17,17,17,17,17,17,17,17,17,16],"number_of_frames":121,"aperture_center_x":768,"aperture_center_y":480,"fixation_cross":true,"fixation_cross_width":15,"fixation_cross_height":15,"fixation_cross_color":"#111","fixation_cross_thickness":1,"border":true,"border_thickness":2,"border_color":"transparent","canvas_width":1536,"canvas_height":960,"trial_type":"rdk","trial_index":56,"plugin_version":"2.0.0","time_elapsed":234149},{"rt":2816,"stimulus":"\n        <div class=\"response-container\">\n          <div class=\"response-instruction\">\n            <p>rotate the bar by using the left and right arrow keys.</p>\n            <p>when you are determined, press the Enter key.</p>\n          </div>\n          <div class=\"response-circle\">\n            <div class=\"response-fixation\"></div>\n            <div id=\"bar\" class=\"rotating-bar\"></div>\n          </div>\n        </div>\n      ","response":"Enter","trial_type":"html-keyboard-response","trial_index":57,"plugin_version":"2.1.0","time_elapsed":236960,"response_angle_css":132,"response_angle_rdk":318,"angular_error_target":-19,"angular_error_distractor":-143,"target_direction":337,"target_group":"black","reward_points":6},{"rt":null,"stimulus":"\n          <p style=\"color: #00FF00;\">Your reward: 6 points</p>\n        ","response":null,"trial_type":"html-keyboard-response","trial_index":58,"plugin_version":"2.1.0","time_elapsed":238962},{"rt":null,"stimulus":"<div class=\"fixation\" style=\"font-size: 60px;\">+</div>","response":null,"trial_type":"html-keyboard-response","trial_index":59,"plugin_version":"2.1.0","time_elapsed":239969},{"target_group":"white","condition_label":"W_H_vs_B_L_rep15","target_direction":278,"distractor_direction":155,"session_rotation":243,"rt":-1,"response":"","correct":false,"choices":"ALL_KEYS","correct_choice":["a"],"trial_duration":2000,"flip_timestamps":[],"response_ends_trial":false,"number_of_apertures":200,"number_of_dots":[1,1,1,1,1,1,1,1,1,1,1,1,1,1,1,1,1,1,1,1,1,1,1,1,1,1,1,1,1,1,1,1,1,1,1,1,1,1,1,1,1,1,1,1,1,1,1,1,1,1,1,1,1,1,1,1,1,1,1,1,1,1,1,1,1,1,1,1,1,1,1,1,1,1,1,1,1,1,1,1,1,1,1,1,1,1,1,1,1,1,1,1,1,1,1,1,1,1,1,1,1,1,1,1,1,1,1,1,1,1,1,1,1,1,1,1,1,1,1,1,1,1,1,1,1,1,1,1,1,1,1,1,1,1,1,1,1,1,1,1,1,1,1,1,1,1,1,1,1,1,1,1,1,1,1,1,1,1,1,1,1,1,1,1,1,1,1,1,1,1,1,1,1,1,1,1,1,1,1,1,1,1,1,1,1,1,1,1,1,1,1,1,1,1,1,1,1,1,1,1],"number_of_sets":1,"coherent_direction":[155,278,155,155,278,278,155,155,278,155,278,155,155,278,155,278,155,278,155,155,155,155,155,155,278,155,278,278,155,155,278,278,278,278,278,278,155,278,278,155,155,155,278,278,155,155,278,155,278,278,278,278,155,278,155,155,155,155,278,155,278,278,155,278,155,155,155,155,278,155,155,278,155,155,278,155,155,278,155,278,278,155,278,155,278,278,278,278,278,278,155,278,155,278,155,278,155,155,278,155,278,155,278,278,278,278,155,278,278,278,278,155,155,278,278,278,155,278,155,155,278,155,278,278,155,278,155,155,155,278,278,278,155,278,278,278,155,155,278,278,155,278,155,278,155,155,278,155,155,155,278,278,278,155,155,155,155,278,278,278,278,155,278,278,155,278,278,278,155,155,278,155,155,278,278,155,155,278,155,278,278,155,155,278,278,278,155,278,278,155,155,155,155,155,278,155,155,155,155,155],"coherence":1,"opposite_coherence":0,"dot_radius":2,"dot_side_length":1,"dot_life":-1,"move_distance":1,"aperture_width":300,"aperture_height":300,"dot_color":["black","white","black","black","white","white","black","black","white","black","white","black","black","white","black","white","black","white","black","black","black","black","black","black","white","black","white","white","black","black","white","white","white","white","white","white","black","white","white","black","black","black","white","white","black","black","white","black","white","white","white","white","black","white","black","black","black","black","white","black","white","white","black","white","black","black","black","black","white","black","black","white","black","black","white","black","black","white","black","white","white","black","white","black","white","white","white","white","white","white","black","white","black","white","black","white","black","black","white","black","white","black","white","white","white","white","black","white","white","white","white","black","black","white","white","white","black","white","black","black","white","black","white","white","black","white","black","black","black","white","white","white","black","white","white","white","black","black","white","white","black","white","black","white","black","black","white","black","black","black","white","white","white","black","black","black","black","white","white","white","white","black","white","white","black","white","white","white","black","black","white","black","black","white","white","black","black","white","black","white","white","black","black","white","white","white","black","white","white","black","black","black","black","black","white","black","black","black","black","black"],"dot_shape":"circle","background_color":"#AAA","RDK_type":3,"aperture_type":2,"reinsert_type":2,"frame_rate":16.644628099173552,"frame_rate_array":[3,15,17,15,17,17,17,17,16,17,16,18,16,17,17,17,17,17,17,17,17,16,17,16,17,15,18,17,17,16,17,16,17,16,18,17,17,16,17,17,16,17,17,17,17,17,17,17,17,17,17,16,17,17,16,16,17,18,16,17,17,17,17,16,16,18,17,17,16,16,17,16,16,17,17,17,16,17,17,16,17,17,17,18,17,17,17,16,17,17,16,18,16,16,18,16,17,16,17,17,17,17,17,17,17,17,17,16,17,17,16,17,17,17,17,17,17,17,16,17,17],"number_of_frames":121,"aperture_center_x":768,"aperture_center_y":480,"fixation_cross":true,"fixation_cross_width":15,"fixation_cross_height":15,"fixation_cross_color":"#111","fixation_cross_thickness":1,"border":true,"border_thickness":2,"border_color":"transparent","canvas_width":1536,"canvas_height":960,"trial_type":"rdk","trial_index":60,"plugin_version":"2.0.0","time_elapsed":241974},{"rt":2490,"stimulus":"\n        <div class=\"response-container\">\n          <div class=\"response-instruction\">\n            <p>rotate the bar by using the left and right arrow keys.</p>\n            <p>when you are determined, press the Enter key.</p>\n          </div>\n          <div class=\"response-circle\">\n            <div class=\"response-fixation\"></div>\n            <div id=\"bar\" class=\"rotating-bar\"></div>\n          </div>\n        </div>\n      ","response":"Enter","trial_type":"html-keyboard-response","trial_index":61,"plugin_version":"2.1.0","time_elapsed":244464,"response_angle_css":136,"response_angle_rdk":314,"angular_error_target":36,"angular_error_distractor":159,"target_direction":278,"target_group":"white","reward_points":2},{"rt":null,"stimulus":"\n          <p style=\"color: #FF3333;\">Your reward: 2 points</p>\n        ","response":null,"trial_type":"html-keyboard-response","trial_index":62,"plugin_version":"2.1.0","time_elapsed":246473},{"rt":null,"stimulus":"<div class=\"fixation\" style=\"font-size: 60px;\">+</div>","response":null,"trial_type":"html-keyboard-response","trial_index":63,"plugin_version":"2.1.0","time_elapsed":247479},{"target_group":"black","condition_label":"B_H_vs_W_L_rep1","target_direction":341,"distractor_direction":100,"session_rotation":243,"rt":-1,"response":"","correct":false,"choices":"ALL_KEYS","correct_choice":["a"],"trial_duration":2000,"flip_timestamps":[],"response_ends_trial":false,"number_of_apertures":200,"number_of_dots":[1,1,1,1,1,1,1,1,1,1,1,1,1,1,1,1,1,1,1,1,1,1,1,1,1,1,1,1,1,1,1,1,1,1,1,1,1,1,1,1,1,1,1,1,1,1,1,1,1,1,1,1,1,1,1,1,1,1,1,1,1,1,1,1,1,1,1,1,1,1,1,1,1,1,1,1,1,1,1,1,1,1,1,1,1,1,1,1,1,1,1,1,1,1,1,1,1,1,1,1,1,1,1,1,1,1,1,1,1,1,1,1,1,1,1,1,1,1,1,1,1,1,1,1,1,1,1,1,1,1,1,1,1,1,1,1,1,1,1,1,1,1,1,1,1,1,1,1,1,1,1,1,1,1,1,1,1,1,1,1,1,1,1,1,1,1,1,1,1,1,1,1,1,1,1,1,1,1,1,1,1,1,1,1,1,1,1,1,1,1,1,1,1,1,1,1,1,1,1,1],"number_of_sets":1,"coherent_direction":[341,100,100,100,341,100,341,100,100,341,100,100,341,341,341,341,100,100,341,100,100,341,100,100,341,341,341,341,341,100,341,100,341,100,100,100,341,100,341,341,100,100,100,100,100,341,341,100,100,341,100,100,100,100,341,100,100,100,100,341,341,100,341,100,341,100,341,341,100,100,341,341,341,100,341,100,341,341,341,341,100,341,100,341,341,341,100,100,100,100,341,341,100,100,341,341,100,100,100,100,100,341,341,100,341,100,341,341,100,100,341,100,341,100,341,100,341,341,341,341,100,341,100,341,100,341,341,100,100,341,100,100,341,100,341,341,341,100,341,341,341,100,341,100,341,341,341,100,341,341,341,341,100,341,341,100,100,100,100,100,341,100,341,100,341,341,100,341,100,341,341,100,341,341,100,341,341,100,341,100,341,341,100,341,100,100,341,341,100,100,100,341,100,100,100,100,100,100,341,341],"coherence":1,"opposite_coherence":0,"dot_radius":2,"dot_side_length":1,"dot_life":-1,"move_distance":1,"aperture_width":300,"aperture_height":300,"dot_color":["black","white","white","white","black","white","black","white","white","black","white","white","black","black","black","black","white","white","black","white","white","black","white","white","black","black","black","black","black","white","black","white","black","white","white","white","black","white","black","black","white","white","white","white","white","black","black","white","white","black","white","white","white","white","black","white","white","white","white","black","black","white","black","white","black","white","black","black","white","white","black","black","black","white","black","white","black","black","black","black","white","black","white","black","black","black","white","white","white","white","black","black","white","white","black","black","white","white","white","white","white","black","black","white","black","white","black","black","white","white","black","white","black","white","black","white","black","black","black","black","white","black","white","black","white","black","black","white","white","black","white","white","black","white","black","black","black","white","black","black","black","white","black","white","black","black","black","white","black","black","black","black","white","black","black","white","white","white","white","white","black","white","black","white","black","black","white","black","white","black","black","white","black","black","white","black","black","white","black","white","black","black","white","black","white","white","black","black","white","white","white","black","white","white","white","white","white","white","black","black"],"dot_shape":"circle","background_color":"#AAA","RDK_type":3,"aperture_type":2,"reinsert_type":2,"frame_rate":16.644628099173552,"frame_rate_array":[6,17,17,16,17,16,17,16,17,17,16,17,17,17,16,17,16,16,18,17,17,17,17,17,16,18,16,16,18,16,17,17,16,17,16,16,17,17,17,17,17,16,17,16,17,17,16,17,16,17,17,17,16,17,16,17,17,17,16,17,17,17,17,17,18,17,17,17,17,17,17,17,15,17,16,17,17,17,18,17,16,17,16,17,17,16,18,17,17,16,17,17,17,17,16,17,17,16,16,17,17,16,17,17,17,17,16,16,17,16,17,16,17,17,16,17,17,17,17,16,17],"number_of_frames":121,"aperture_center_x":768,"aperture_center_y":480,"fixation_cross":true,"fixation_cross_width":15,"fixation_cross_height":15,"fixation_cross_color":"#111","fixation_cross_thickness":1,"border":true,"border_thickness":2,"border_color":"transparent","canvas_width":1536,"canvas_height":960,"trial_type":"rdk","trial_index":64,"plugin_version":"2.0.0","time_elapsed":249491},{"rt":3133,"stimulus":"\n        <div class=\"response-container\">\n          <div class=\"response-instruction\">\n            <p>rotate the bar by using the left and right arrow keys.</p>\n            <p>when you are determined, press the Enter key.</p>\n          </div>\n          <div class=\"response-circle\">\n            <div class=\"response-fixation\"></div>\n            <div id=\"bar\" class=\"rotating-bar\"></div>\n          </div>\n        </div>\n      ","response":"Enter","trial_type":"html-keyboard-response","trial_index":65,"plugin_version":"2.1.0","time_elapsed":252626,"response_angle_css":-52,"response_angle_rdk":142,"angular_error_target":161,"angular_error_distractor":42,"target_direction":341,"target_group":"black","reward_points":0},{"rt":null,"stimulus":"\n          <p style=\"color: #FF3333;\">Your reward: 0 points</p>\n        ","response":null,"trial_type":"html-keyboard-response","trial_index":66,"plugin_version":"2.1.0","time_elapsed":254642},{"rt":null,"stimulus":"<div class=\"fixation\" style=\"font-size: 60px;\">+</div>","response":null,"trial_type":"html-keyboard-response","trial_index":67,"plugin_version":"2.1.0","time_elapsed":255645},{"target_group":"white","condition_label":"W_H_vs_B_L_rep17","target_direction":253,"distractor_direction":161,"session_rotation":243,"rt":-1,"response":"","correct":false,"choices":"ALL_KEYS","correct_choice":["a"],"trial_duration":2000,"flip_timestamps":[],"response_ends_trial":false,"number_of_apertures":200,"number_of_dots":[1,1,1,1,1,1,1,1,1,1,1,1,1,1,1,1,1,1,1,1,1,1,1,1,1,1,1,1,1,1,1,1,1,1,1,1,1,1,1,1,1,1,1,1,1,1,1,1,1,1,1,1,1,1,1,1,1,1,1,1,1,1,1,1,1,1,1,1,1,1,1,1,1,1,1,1,1,1,1,1,1,1,1,1,1,1,1,1,1,1,1,1,1,1,1,1,1,1,1,1,1,1,1,1,1,1,1,1,1,1,1,1,1,1,1,1,1,1,1,1,1,1,1,1,1,1,1,1,1,1,1,1,1,1,1,1,1,1,1,1,1,1,1,1,1,1,1,1,1,1,1,1,1,1,1,1,1,1,1,1,1,1,1,1,1,1,1,1,1,1,1,1,1,1,1,1,1,1,1,1,1,1,1,1,1,1,1,1,1,1,1,1,1,1,1,1,1,1,1,1],"number_of_sets":1,"coherent_direction":[253,161,161,253,161,253,253,161,253,253,161,161,253,253,161,161,253,253,253,161,161,161,161,253,161,161,161,161,253,161,253,161,253,161,253,253,161,253,161,253,161,253,161,253,161,161,161,253,161,253,161,253,161,253,161,253,161,253,161,253,161,161,161,161,253,253,161,253,161,161,253,253,253,161,161,161,161,161,161,253,161,161,161,161,253,253,253,253,253,253,161,161,161,161,253,253,161,253,253,161,253,161,161,253,253,161,161,253,161,161,253,253,253,253,161,253,161,161,253,161,161,161,161,253,253,253,161,161,253,253,161,253,253,253,253,161,253,161,253,253,253,253,161,253,161,253,253,161,253,253,161,161,253,253,161,253,253,253,161,161,253,161,253,253,161,161,161,253,253,253,161,161,161,253,253,253,253,161,161,161,253,253,253,161,253,161,161,161,253,253,161,253,253,253,161,253,161,161,161,253],"coherence":1,"opposite_coherence":0,"dot_radius":2,"dot_side_length":1,"dot_life":-1,"move_distance":1,"aperture_width":300,"aperture_height":300,"dot_color":["white","black","black","white","black","white","white","black","white","white","black","black","white","white","black","black","white","white","white","black","black","black","black","white","black","black","black","black","white","black","white","black","white","black","white","white","black","white","black","white","black","white","black","white","black","black","black","white","black","white","black","white","black","white","black","white","black","white","black","white","black","black","black","black","white","white","black","white","black","black","white","white","white","black","black","black","black","black","black","white","black","black","black","black","white","white","white","white","white","white","black","black","black","black","white","white","black","white","white","black","white","black","black","white","white","black","black","white","black","black","white","white","white","white","black","white","black","black","white","black","black","black","black","white","white","white","black","black","white","white","black","white","white","white","white","black","white","black","white","white","white","white","black","white","black","white","white","black","white","white","black","black","white","white","black","white","white","white","black","black","white","black","white","white","black","black","black","white","white","white","black","black","black","white","white","white","white","black","black","black","white","white","white","black","white","black","black","black","white","white","black","white","white","white","black","white","black","black","black","white"],"dot_shape":"circle","background_color":"#AAA","RDK_type":3,"aperture_type":2,"reinsert_type":2,"frame_rate":16.633333333333333,"frame_rate_array":[8,17,17,17,17,17,16,17,17,17,16,17,17,16,18,16,16,17,17,16,17,16,17,16,17,16,17,16,17,18,17,17,16,17,17,17,16,17,16,16,17,17,16,17,17,17,16,17,16,17,18,15,18,15,17,17,16,17,17,17,16,17,16,17,16,17,17,17,17,17,17,16,17,17,17,17,17,16,17,17,17,17,17,16,17,17,16,16,18,16,16,17,17,17,16,17,17,17,17,16,17,17,16,17,17,17,17,16,16,17,16,17,17,17,16,16,18,16,17,17],"number_of_frames":120,"aperture_center_x":768,"aperture_center_y":480,"fixation_cross":true,"fixation_cross_width":15,"fixation_cross_height":15,"fixation_cross_color":"#111","fixation_cross_thickness":1,"border":true,"border_thickness":2,"border_color":"transparent","canvas_width":1536,"canvas_height":960,"trial_type":"rdk","trial_index":68,"plugin_version":"2.0.0","time_elapsed":257648},{"rt":5184,"stimulus":"\n        <div class=\"response-container\">\n          <div class=\"response-instruction\">\n            <p>rotate the bar by using the left and right arrow keys.</p>\n            <p>when you are determined, press the Enter key.</p>\n          </div>\n          <div class=\"response-circle\">\n            <div class=\"response-fixation\"></div>\n            <div id=\"bar\" class=\"rotating-bar\"></div>\n          </div>\n        </div>\n      ","response":"Enter","trial_type":"html-keyboard-response","trial_index":69,"plugin_version":"2.1.0","time_elapsed":262833,"response_angle_css":541,"response_angle_rdk":269,"angular_error_target":16,"angular_error_distractor":108,"target_direction":253,"target_group":"white","reward_points":6},{"rt":null,"stimulus":"\n          <p style=\"color: #00FF00;\">Your reward: 6 points</p>\n        ","response":null,"trial_type":"html-keyboard-response","trial_index":70,"plugin_version":"2.1.0","time_elapsed":264839},{"rt":null,"stimulus":"<div class=\"fixation\" style=\"font-size: 60px;\">+</div>","response":null,"trial_type":"html-keyboard-response","trial_index":71,"plugin_version":"2.1.0","time_elapsed":265844},{"target_group":"black","condition_label":"B_H_vs_W_L_rep18","target_direction":346,"distractor_direction":81,"session_rotation":243,"rt":-1,"response":"","correct":false,"choices":"ALL_KEYS","correct_choice":["a"],"trial_duration":2000,"flip_timestamps":[],"response_ends_trial":false,"number_of_apertures":200,"number_of_dots":[1,1,1,1,1,1,1,1,1,1,1,1,1,1,1,1,1,1,1,1,1,1,1,1,1,1,1,1,1,1,1,1,1,1,1,1,1,1,1,1,1,1,1,1,1,1,1,1,1,1,1,1,1,1,1,1,1,1,1,1,1,1,1,1,1,1,1,1,1,1,1,1,1,1,1,1,1,1,1,1,1,1,1,1,1,1,1,1,1,1,1,1,1,1,1,1,1,1,1,1,1,1,1,1,1,1,1,1,1,1,1,1,1,1,1,1,1,1,1,1,1,1,1,1,1,1,1,1,1,1,1,1,1,1,1,1,1,1,1,1,1,1,1,1,1,1,1,1,1,1,1,1,1,1,1,1,1,1,1,1,1,1,1,1,1,1,1,1,1,1,1,1,1,1,1,1,1,1,1,1,1,1,1,1,1,1,1,1,1,1,1,1,1,1,1,1,1,1,1,1],"number_of_sets":1,"coherent_direction":[346,346,81,346,81,81,346,81,346,81,81,346,346,81,346,346,81,81,346,346,81,81,346,81,346,81,346,81,81,346,81,346,81,81,346,81,81,346,346,346,81,81,81,346,81,81,346,346,346,81,81,346,346,81,81,346,346,346,81,346,81,81,81,346,81,81,81,346,346,346,346,81,346,81,81,81,346,81,346,346,81,81,346,81,346,81,81,81,81,81,81,346,346,346,346,346,81,81,346,81,81,346,346,81,81,346,346,81,81,81,81,81,346,346,81,81,346,81,81,346,346,81,346,81,346,81,81,346,346,81,346,346,346,81,81,81,346,81,346,346,346,346,81,81,81,81,81,81,81,346,346,81,346,346,81,346,346,346,346,81,81,81,346,346,346,346,346,346,346,81,346,346,81,346,346,346,81,81,346,81,81,81,81,81,346,346,346,81,346,346,81,81,346,346,346,346,346,346,81,81],"coherence":1,"opposite_coherence":0,"dot_radius":2,"dot_side_length":1,"dot_life":-1,"move_distance":1,"aperture_width":300,"aperture_height":300,"dot_color":["black","black","white","black","white","white","black","white","black","white","white","black","black","white","black","black","white","white","black","black","white","white","black","white","black","white","black","white","white","black","white","black","white","white","black","white","white","black","black","black","white","white","white","black","white","white","black","black","black","white","white","black","black","white","white","black","black","black","white","black","white","white","white","black","white","white","white","black","black","black","black","white","black","white","white","white","black","white","black","black","white","white","black","white","black","white","white","white","white","white","white","black","black","black","black","black","white","white","black","white","white","black","black","white","white","black","black","white","white","white","white","white","black","black","white","white","black","white","white","black","black","white","black","white","black","white","white","black","black","white","black","black","black","white","white","white","black","white","black","black","black","black","white","white","white","white","white","white","white","black","black","white","black","black","white","black","black","black","black","white","white","white","black","black","black","black","black","black","black","white","black","black","white","black","black","black","white","white","black","white","white","white","white","white","black","black","black","white","black","black","white","white","black","black","black","black","black","black","white","white"],"dot_shape":"circle","background_color":"#AAA","RDK_type":3,"aperture_type":2,"reinsert_type":2,"frame_rate":16.58677685950413,"frame_rate_array":[6,18,16,17,17,17,16,16,16,18,17,17,16,16,17,17,16,18,17,17,16,17,16,17,16,17,16,17,17,17,16,18,16,17,17,17,17,16,17,16,16,17,17,17,16,16,16,18,17,17,16,16,17,17,17,16,17,17,16,16,16,17,16,17,17,16,17,17,16,17,17,17,17,16,17,16,17,16,17,16,17,16,16,17,18,16,17,16,17,16,17,16,17,16,17,17,17,16,17,17,17,16,17,16,17,17,17,17,17,17,17,16,17,17,17,17,17,17,16,17,16],"number_of_frames":121,"aperture_center_x":768,"aperture_center_y":480,"fixation_cross":true,"fixation_cross_width":15,"fixation_cross_height":15,"fixation_cross_color":"#111","fixation_cross_thickness":1,"border":true,"border_thickness":2,"border_color":"transparent","canvas_width":1536,"canvas_height":960,"trial_type":"rdk","trial_index":72,"plugin_version":"2.0.0","time_elapsed":267854},{"rt":5298,"stimulus":"\n        <div class=\"response-container\">\n          <div class=\"response-instruction\">\n            <p>rotate the bar by using the left and right arrow keys.</p>\n            <p>when you are determined, press the Enter key.</p>\n          </div>\n          <div class=\"response-circle\">\n            <div class=\"response-fixation\"></div>\n            <div id=\"bar\" class=\"rotating-bar\"></div>\n          </div>\n        </div>\n      ","response":"Enter","trial_type":"html-keyboard-response","trial_index":73,"plugin_version":"2.1.0","time_elapsed":273154,"response_angle_css":484,"response_angle_rdk":326,"angular_error_target":-20,"angular_error_distractor":-115,"target_direction":346,"target_group":"black","reward_points":6},{"rt":null,"stimulus":"\n          <p style=\"color: #00FF00;\">Your reward: 6 points</p>\n        ","response":null,"trial_type":"html-keyboard-response","trial_index":74,"plugin_version":"2.1.0","time_elapsed":275156},{"rt":null,"stimulus":"<div class=\"fixation\" style=\"font-size: 60px;\">+</div>","response":null,"trial_type":"html-keyboard-response","trial_index":75,"plugin_version":"2.1.0","time_elapsed":276172},{"target_group":"white","condition_label":"W_H_vs_B_L_rep9","target_direction":257,"distractor_direction":154,"session_rotation":243,"rt":-1,"response":"","correct":false,"choices":"ALL_KEYS","correct_choice":["a"],"trial_duration":2000,"flip_timestamps":[],"response_ends_trial":false,"number_of_apertures":200,"number_of_dots":[1,1,1,1,1,1,1,1,1,1,1,1,1,1,1,1,1,1,1,1,1,1,1,1,1,1,1,1,1,1,1,1,1,1,1,1,1,1,1,1,1,1,1,1,1,1,1,1,1,1,1,1,1,1,1,1,1,1,1,1,1,1,1,1,1,1,1,1,1,1,1,1,1,1,1,1,1,1,1,1,1,1,1,1,1,1,1,1,1,1,1,1,1,1,1,1,1,1,1,1,1,1,1,1,1,1,1,1,1,1,1,1,1,1,1,1,1,1,1,1,1,1,1,1,1,1,1,1,1,1,1,1,1,1,1,1,1,1,1,1,1,1,1,1,1,1,1,1,1,1,1,1,1,1,1,1,1,1,1,1,1,1,1,1,1,1,1,1,1,1,1,1,1,1,1,1,1,1,1,1,1,1,1,1,1,1,1,1,1,1,1,1,1,1,1,1,1,1,1,1],"number_of_sets":1,"coherent_direction":[154,154,154,154,154,154,154,257,154,257,154,257,154,257,154,154,257,154,257,257,257,154,257,257,257,154,154,154,154,154,257,154,154,257,154,257,257,154,257,154,154,154,257,257,154,154,154,257,154,154,154,154,154,257,257,257,257,154,257,257,257,257,257,257,154,257,154,154,154,257,257,257,154,257,257,257,257,154,154,154,257,154,154,257,154,257,257,257,257,154,257,257,154,257,257,257,257,257,154,257,257,154,154,257,257,257,257,154,154,154,154,257,154,257,257,154,154,154,154,154,154,257,154,154,257,154,154,257,257,154,154,154,257,257,154,257,257,154,154,154,154,257,257,154,154,154,257,154,154,154,257,257,154,154,154,154,154,257,154,257,257,154,257,257,257,257,257,154,257,154,257,154,154,257,154,257,257,257,257,257,257,257,154,154,154,257,257,257,257,154,257,154,154,257,257,257,257,154,154,257],"coherence":1,"opposite_coherence":0,"dot_radius":2,"dot_side_length":1,"dot_life":-1,"move_distance":1,"aperture_width":300,"aperture_height":300,"dot_color":["black","black","black","black","black","black","black","white","black","white","black","white","black","white","black","black","white","black","white","white","white","black","white","white","white","black","black","black","black","black","white","black","black","white","black","white","white","black","white","black","black","black","white","white","black","black","black","white","black","black","black","black","black","white","white","white","white","black","white","white","white","white","white","white","black","white","black","black","black","white","white","white","black","white","white","white","white","black","black","black","white","black","black","white","black","white","white","white","white","black","white","white","black","white","white","white","white","white","black","white","white","black","black","white","white","white","white","black","black","black","black","white","black","white","white","black","black","black","black","black","black","white","black","black","white","black","black","white","white","black","black","black","white","white","black","white","white","black","black","black","black","white","white","black","black","black","white","black","black","black","white","white","black","black","black","black","black","white","black","white","white","black","white","white","white","white","white","black","white","black","white","black","black","white","black","white","white","white","white","white","white","white","black","black","black","white","white","white","white","black","white","black","black","white","white","white","white","black","black","white"],"dot_shape":"circle","background_color":"#AAA","RDK_type":3,"aperture_type":2,"reinsert_type":2,"frame_rate":16.677685950413224,"frame_rate_array":[9,17,17,17,17,17,16,17,17,17,17,17,17,17,17,17,17,16,17,17,17,16,18,16,17,17,17,17,16,17,16,17,17,17,16,17,17,17,17,16,17,17,17,17,16,17,16,17,17,17,17,16,17,16,17,16,17,16,17,17,17,17,17,16,17,16,17,17,16,17,17,16,17,17,17,17,16,17,17,16,16,17,17,16,17,17,17,17,17,17,17,16,17,16,18,16,17,16,17,16,17,17,16,17,17,17,17,17,16,16,17,17,17,17,17,15,17,16,17,17,17],"number_of_frames":121,"aperture_center_x":768,"aperture_center_y":480,"fixation_cross":true,"fixation_cross_width":15,"fixation_cross_height":15,"fixation_cross_color":"#111","fixation_cross_thickness":1,"border":true,"border_thickness":2,"border_color":"transparent","canvas_width":1536,"canvas_height":960,"trial_type":"rdk","trial_index":76,"plugin_version":"2.0.0","time_elapsed":278187},{"rt":4079,"stimulus":"\n        <div class=\"response-container\">\n          <div class=\"response-instruction\">\n            <p>rotate the bar by using the left and right arrow keys.</p>\n            <p>when you are determined, press the Enter key.</p>\n          </div>\n          <div class=\"response-circle\">\n            <div class=\"response-fixation\"></div>\n            <div id=\"bar\" class=\"rotating-bar\"></div>\n          </div>\n        </div>\n      ","response":"Enter","trial_type":"html-keyboard-response","trial_index":77,"plugin_version":"2.1.0","time_elapsed":282267,"response_angle_css":-72,"response_angle_rdk":162,"angular_error_target":-95,"angular_error_distractor":8,"target_direction":257,"target_group":"white","reward_points":0},{"rt":null,"stimulus":"\n          <p style=\"color: #FF3333;\">Your reward: 0 points</p>\n        ","response":null,"trial_type":"html-keyboard-response","trial_index":78,"plugin_version":"2.1.0","time_elapsed":284276},{"rt":null,"stimulus":"<div class=\"fixation\" style=\"font-size: 60px;\">+</div>","response":null,"trial_type":"html-keyboard-response","trial_index":79,"plugin_version":"2.1.0","time_elapsed":285289},{"target_group":"black","condition_label":"B_H_vs_W_L_rep25","target_direction":342,"distractor_direction":81,"session_rotation":243,"rt":-1,"response":"","correct":false,"choices":"ALL_KEYS","correct_choice":["a"],"trial_duration":2000,"flip_timestamps":[],"response_ends_trial":false,"number_of_apertures":200,"number_of_dots":[1,1,1,1,1,1,1,1,1,1,1,1,1,1,1,1,1,1,1,1,1,1,1,1,1,1,1,1,1,1,1,1,1,1,1,1,1,1,1,1,1,1,1,1,1,1,1,1,1,1,1,1,1,1,1,1,1,1,1,1,1,1,1,1,1,1,1,1,1,1,1,1,1,1,1,1,1,1,1,1,1,1,1,1,1,1,1,1,1,1,1,1,1,1,1,1,1,1,1,1,1,1,1,1,1,1,1,1,1,1,1,1,1,1,1,1,1,1,1,1,1,1,1,1,1,1,1,1,1,1,1,1,1,1,1,1,1,1,1,1,1,1,1,1,1,1,1,1,1,1,1,1,1,1,1,1,1,1,1,1,1,1,1,1,1,1,1,1,1,1,1,1,1,1,1,1,1,1,1,1,1,1,1,1,1,1,1,1,1,1,1,1,1,1,1,1,1,1,1,1],"number_of_sets":1,"coherent_direction":[81,342,342,342,81,81,342,81,342,342,81,342,81,342,342,81,81,81,342,81,342,342,342,342,81,342,342,342,81,342,342,342,81,81,81,81,81,81,342,342,342,81,342,81,81,81,342,81,81,342,81,81,81,81,81,81,342,81,342,342,81,81,342,81,342,81,81,81,342,342,81,342,342,81,81,342,81,342,342,342,81,342,81,81,342,81,342,342,342,342,342,81,342,342,342,81,81,342,81,81,342,81,81,342,342,342,342,342,81,342,342,81,81,81,342,342,342,342,81,81,81,342,81,81,81,81,342,342,81,342,81,81,81,342,342,342,342,342,342,81,81,81,342,342,81,81,81,81,342,81,342,342,81,81,342,81,342,81,81,342,342,342,81,342,342,342,342,342,342,81,342,342,342,342,81,81,81,81,81,81,342,342,81,81,342,81,81,342,81,81,342,342,342,342,81,81,81,81,81,81],"coherence":1,"opposite_coherence":0,"dot_radius":2,"dot_side_length":1,"dot_life":-1,"move_distance":1,"aperture_width":300,"aperture_height":300,"dot_color":["white","black","black","black","white","white","black","white","black","black","white","black","white","black","black","white","white","white","black","white","black","black","black","black","white","black","black","black","white","black","black","black","white","white","white","white","white","white","black","black","black","white","black","white","white","white","black","white","white","black","white","white","white","white","white","white","black","white","black","black","white","white","black","white","black","white","white","white","black","black","white","black","black","white","white","black","white","black","black","black","white","black","white","white","black","white","black","black","black","black","black","white","black","black","black","white","white","black","white","white","black","white","white","black","black","black","black","black","white","black","black","white","white","white","black","black","black","black","white","white","white","black","white","white","white","white","black","black","white","black","whit