[{"rt":1849,"stimulus":"Welcome to the experiment. Press any key to begin.","response":" ","trial_type":"html-keyboard-response","trial_index":0,"plugin_version":"2.1.0","time_elapsed":1855},{"rt":16752,"stimulus":"\n        <div class=\"instructions-container\">\n          <h2>Instructions</h2>\n\n          <p>\n          In this experiment, you will see <strong>two Random Dot Kinematograms (RDKs)</strong> displayed simultaneously.\n          </p>\n\n          <p>\n          An RDK is a visual stimulus consisting of many small dots that move coherently in a single direction. \n          In this experiment, the dots will be either <strong>white</strong> or <strong>black</strong> \n          (see the short demo below for an example of an RDK stimulus).\n          </p>\n\n          <p>\n          On each trial, the two RDKs will move in different directions. \n          Your task is to decide <strong>which RDK appears to contain more dots</strong>.\n          </p>\n\n          <p>\n          The RDK that you judge to have more dots is called the <strong>target RDK</strong>. \n          For example, if the white RDK appears to have more dots than the black RDK, \n          you should report the motion direction of the white RDK.\n          </p>\n\n          <p>\n          After viewing the RDKs, you will rotate a bar to indicate the perceived direction of the target RDK \n          using the <strong>left</strong> and <strong>right arrow keys</strong>. \n          Press <strong>Enter</strong> when you are satisfied with your response.\n          </p>\n\n          <p>\n          You will receive points based on the <strong>accuracy of your response</strong>, \n          and your final <strong>bonus reward</strong> may depend on your overall performance. \n          Please try to respond as accurately as possible.\n          </p>\n\n          <p>\n          You will first complete <strong>three practice trials</strong>. \n          Press the <strong>Enter</strong> key to start the practice phase.\n          </p>\n\n          <canvas id=\"instruction-demo-rdk\" width=\"300\" height=\"300\"style=\"display:block;margin:12px auto; border-radius: 50%;\"></canvas>\n        </div>\n      ","response":"Enter","trial_type":"html-keyboard-response","trial_index":1,"plugin_version":"2.1.0","time_elapsed":18613},{"rt":null,"stimulus":"<div class=\"fixation\" style=\"font-size: 60px;\">+</div>","response":null,"trial_type":"html-keyboard-response","trial_index":2,"plugin_version":"2.1.0","time_elapsed":19629},{"target_group":"black","target_index":1,"condition_label":"B_H_vs_W_L","rt":1131,"response":"ArrowRight","correct":false,"choices":"ALL_KEYS","correct_choice":["a"],"trial_duration":2000,"flip_timestamps":[],"response_ends_trial":false,"number_of_apertures":2,"number_of_dots":[50,100],"number_of_sets":1,"coherent_direction":[10,100],"coherence":1,"opposite_coherence":0,"dot_radius":2,"dot_side_length":1,"dot_life":-1,"move_distance":1,"aperture_width":300,"aperture_height":300,"dot_color":["white","black"],"dot_shape":"circle","background_color":"#AAA","RDK_type":3,"aperture_type":2,"reinsert_type":2,"frame_rate":16.916666666666668,"frame_rate_array":[12,16,17,16,17,17,17,16,17,17,17,17,17,17,17,17,17,17,17,17,17,17,17,17,17,17,16,17,17,17,17,17,17,17,17,17,17,17,17,17,17,17,17,17,17,17,17,17,17,17,17,17,17,16,17,17,17,17,17,17,17,17,17,17,17,17,17,17,17,17,17,17,17,17,17,17,17,17,17,17,17,17,17,17,17,17,17,17,17,17,17,17,17,17,17,17,17,17,17,17,17,17,17,17,17,17,17,17,17,17,17,17,17,17,17,17,17,17,17,17],"number_of_frames":120,"aperture_center_x":640,"aperture_center_y":360,"fixation_cross":true,"fixation_cross_width":15,"fixation_cross_height":15,"fixation_cross_color":"#111","fixation_cross_thickness":1,"border":true,"border_thickness":2,"border_color":"transparent","canvas_width":1280,"canvas_height":720,"trial_type":"rdk","trial_index":3,"plugin_version":"2.0.0","time_elapsed":21638,"target_direction":100,"distractor_direction":10},{"rt":7575,"stimulus":"\n        <div class=\"response-container\">\n          <div class=\"response-instruction\">\n            <p>rotate the bar by using the left and right arrow keys.</p>\n            <p>when you are determined, press the Enter key.</p>\n          </div>\n          <div class=\"response-circle\">\n            <div class=\"response-fixation\"></div>\n            <div id=\"bar\" class=\"rotating-bar\"></div>\n          </div>\n        </div>\n      ","response":"Enter","trial_type":"html-keyboard-response","trial_index":4,"plugin_version":"2.1.0","time_elapsed":29215,"response_angle_css":361,"response_angle_rdk":89,"angular_error_target":-11,"angular_error_distractor":79,"target_direction":100,"target_group":"black","reward_points":7},{"rt":null,"stimulus":"\n          <p style=\"color: #00FF00;\">Your reward: 7 points</p>\n        ","response":null,"trial_type":"html-keyboard-response","trial_index":5,"plugin_version":"2.1.0","time_elapsed":31226},{"rt":null,"stimulus":"<div class=\"fixation\" style=\"font-size: 60px;\">+</div>","response":null,"trial_type":"html-keyboard-response","trial_index":6,"plugin_version":"2.1.0","time_elapsed":32239},{"target_group":"white","target_index":0,"condition_label":"W_H_vs_B_L","rt":301,"response":"ArrowRight","correct":false,"choices":"ALL_KEYS","correct_choice":["a"],"trial_duration":2000,"flip_timestamps":[],"response_ends_trial":false,"number_of_apertures":2,"number_of_dots":[100,50],"number_of_sets":1,"coherent_direction":[150,30],"coherence":1,"opposite_coherence":0,"dot_radius":2,"dot_side_length":1,"dot_life":-1,"move_distance":1,"aperture_width":300,"aperture_height":300,"dot_color":["white","black"],"dot_shape":"circle","background_color":"#AAA","RDK_type":3,"aperture_type":2,"reinsert_type":2,"frame_rate":16.85,"frame_rate_array":[6,17,17,17,27,6,17,17,17,17,17,17,17,17,17,17,17,17,17,17,17,16,17,17,17,17,17,17,17,17,17,17,17,16,17,17,17,17,17,17,17,17,17,17,16,17,17,17,17,17,17,17,17,17,17,17,17,17,17,17,17,17,17,17,17,17,17,17,17,17,17,17,17,17,17,17,17,17,17,16,17,17,17,17,17,17,16,17,17,17,17,17,17,17,17,17,17,17,17,17,17,17,17,16,17,17,17,17,17,17,17,17,17,17,17,17,17,17,17,17],"number_of_frames":120,"aperture_center_x":640,"aperture_center_y":360,"fixation_cross":true,"fixation_cross_width":15,"fixation_cross_height":15,"fixation_cross_color":"#111","fixation_cross_thickness":1,"border":true,"border_thickness":2,"border_color":"transparent","canvas_width":1280,"canvas_height":720,"trial_type":"rdk","trial_index":7,"plugin_version":"2.0.0","time_elapsed":34247,"target_direction":150,"distractor_direction":30},{"rt":3047,"stimulus":"\n        <div class=\"response-container\">\n          <div class=\"response-instruction\">\n            <p>rotate the bar by using the left and right arrow keys.</p>\n            <p>when you are determined, press the Enter key.</p>\n          </div>\n          <div class=\"response-circle\">\n            <div class=\"response-fixation\"></div>\n            <div id=\"bar\" class=\"rotating-bar\"></div>\n          </div>\n        </div>\n      ","response":"Enter","trial_type":"html-keyboard-response","trial_index":8,"plugin_version":"2.1.0","time_elapsed":37296,"response_angle_css":133,"response_angle_rdk":317,"angular_error_target":167,"angular_error_distractor":-73,"target_direction":150,"target_group":"white","reward_points":0},{"rt":null,"stimulus":"\n          <p style=\"color: #FF3333;\">Your reward: 0 points</p>\n        ","response":null,"trial_type":"html-keyboard-response","trial_index":9,"plugin_version":"2.1.0","time_elapsed":39309},{"rt":null,"stimulus":"<div class=\"fixation\" style=\"font-size: 60px;\">+</div>","response":null,"trial_type":"html-keyboard-response","trial_index":10,"plugin_version":"2.1.0","time_elapsed":40316},{"target_group":"black","target_index":1,"condition_label":"B_H_vs_W_L","rt":424,"response":"ArrowRight","correct":false,"choices":"ALL_KEYS","correct_choice":["a"],"trial_duration":2000,"flip_timestamps":[],"response_ends_trial":false,"number_of_apertures":2,"number_of_dots":[50,100],"number_of_sets":1,"coherent_direction":[270,180],"coherence":1,"opposite_coherence":0,"dot_radius":2,"dot_side_length":1,"dot_life":-1,"move_distance":1,"aperture_width":300,"aperture_height":300,"dot_color":["white","black"],"dot_shape":"circle","background_color":"#AAA","RDK_type":3,"aperture_type":2,"reinsert_type":2,"frame_rate":16.916666666666668,"frame_rate_array":[13,17,17,17,16,17,17,17,17,17,17,17,17,17,17,17,17,17,17,17,17,17,17,17,17,17,17,17,17,17,17,17,17,17,17,17,17,17,17,16,17,17,17,17,17,17,17,17,17,17,17,17,17,17,17,17,17,16,17,17,17,16,17,17,17,17,17,17,17,17,17,17,17,17,17,17,17,16,17,17,17,17,17,17,17,17,17,17,17,17,17,17,17,17,17,17,17,17,27,7,17,17,17,17,17,17,17,17,17,17,17,17,17,17,17,16,17,17,17,17],"number_of_frames":120,"aperture_center_x":640,"aperture_center_y":360,"fixation_cross":true,"fixation_cross_width":15,"fixation_cross_height":15,"fixation_cross_color":"#111","fixation_cross_thickness":1,"border":true,"border_thickness":2,"border_color":"transparent","canvas_width":1280,"canvas_height":720,"trial_type":"rdk","trial_index":11,"plugin_version":"2.0.0","time_elapsed":42328,"target_direction":180,"distractor_direction":270},{"rt":2681,"stimulus":"\n        <div class=\"response-container\">\n          <div class=\"response-instruction\">\n            <p>rotate the bar by using the left and right arrow keys.</p>\n            <p>when you are determined, press the Enter key.</p>\n          </div>\n          <div class=\"response-circle\">\n            <div class=\"response-fixation\"></div>\n            <div id=\"bar\" class=\"rotating-bar\"></div>\n          </div>\n        </div>\n      ","response":"Enter","trial_type":"html-keyboard-response","trial_index":12,"plugin_version":"2.1.0","time_elapsed":45010,"response_angle_css":295,"response_angle_rdk":155,"angular_error_target":-25,"angular_error_distractor":-115,"target_direction":180,"target_group":"black","reward_points":5},{"rt":null,"stimulus":"\n          <p style=\"color: #00FF00;\">Your reward: 5 points</p>\n        ","response":null,"trial_type":"html-keyboard-response","trial_index":13,"plugin_version":"2.1.0","time_elapsed":47020},{"rt":2853,"stimulus":"\n        <div class=\"instructions-container\">\n          <h2>End of Practice</h2>\n          <p>You have completed the practice trials.</p>\n          <p>Press <strong>Enter</strong> key to begin the main experiment.</p>\n        </div>\n      ","response":"Enter","trial_type":"html-keyboard-response","trial_index":14,"plugin_version":"2.1.0","time_elapsed":49874},{"rt":null,"stimulus":"<div class=\"fixation\" style=\"font-size: 60px;\">+</div>","response":null,"trial_type":"html-keyboard-response","trial_index":15,"plugin_version":"2.1.0","time_elapsed":50879},{"target_group":"white","condition_label":"W_H_vs_B_L_rep16","target_direction":245,"distractor_direction":124,"session_rotation":207,"rt":516,"response":"ArrowRight","correct":false,"choices":"ALL_KEYS","correct_choice":["a"],"trial_duration":2000,"flip_timestamps":[],"response_ends_trial":false,"number_of_apertures":200,"number_of_dots":[1,1,1,1,1,1,1,1,1,1,1,1,1,1,1,1,1,1,1,1,1,1,1,1,1,1,1,1,1,1,1,1,1,1,1,1,1,1,1,1,1,1,1,1,1,1,1,1,1,1,1,1,1,1,1,1,1,1,1,1,1,1,1,1,1,1,1,1,1,1,1,1,1,1,1,1,1,1,1,1,1,1,1,1,1,1,1,1,1,1,1,1,1,1,1,1,1,1,1,1,1,1,1,1,1,1,1,1,1,1,1,1,1,1,1,1,1,1,1,1,1,1,1,1,1,1,1,1,1,1,1,1,1,1,1,1,1,1,1,1,1,1,1,1,1,1,1,1,1,1,1,1,1,1,1,1,1,1,1,1,1,1,1,1,1,1,1,1,1,1,1,1,1,1,1,1,1,1,1,1,1,1,1,1,1,1,1,1,1,1,1,1,1,1,1,1,1,1,1,1],"number_of_sets":1,"coherent_direction":[124,124,124,124,124,124,124,245,245,124,245,124,245,124,245,124,124,245,124,245,245,245,245,124,245,245,245,245,124,124,245,245,124,245,245,124,245,245,245,245,245,124,245,124,245,124,245,124,245,124,245,245,245,245,124,245,245,124,124,124,124,245,124,124,124,245,245,245,124,245,245,245,245,124,245,245,124,245,124,245,245,245,245,245,124,245,124,124,245,245,245,245,124,124,245,124,124,245,124,124,124,245,245,124,245,124,124,124,124,124,124,245,124,124,124,124,124,124,124,124,124,245,245,245,245,124,124,245,124,124,124,245,124,124,124,124,124,124,124,245,245,124,124,124,245,245,245,245,124,245,124,124,124,245,245,124,245,245,245,124,124,245,245,124,124,245,124,124,245,124,124,245,245,124,245,245,245,245,124,245,124,245,124,245,245,124,245,245,245,124,245,124,245,124,124,245,245,124,245,124],"coherence":1,"opposite_coherence":0,"dot_radius":2,"dot_side_length":1,"dot_life":-1,"move_distance":1,"aperture_width":300,"aperture_height":300,"dot_color":["black","black","black","black","black","black","black","white","white","black","white","black","white","black","white","black","black","white","black","white","white","white","white","black","white","white","white","white","black","black","white","white","black","white","white","black","white","white","white","white","white","black","white","black","white","black","white","black","white","black","white","white","white","white","black","white","white","black","black","black","black","white","black","black","black","white","white","white","black","white","white","white","white","black","white","white","black","white","black","white","white","white","white","white","black","white","black","black","white","white","white","white","black","black","white","black","black","white","black","black","black","white","white","black","white","black","black","black","black","black","black","white","black","black","black","black","black","black","black","black","black","white","white","white","white","black","black","white","black","black","black","white","black","black","black","black","black","black","black","white","white","black","black","black","white","white","white","white","black","white","black","black","black","white","white","black","white","white","white","black","black","white","white","black","black","white","black","black","white","black","black","white","white","black","white","white","white","white","black","white","black","white","black","white","white","black","white","white","white","black","white","black","white","black","black","white","white","black","white","black"],"dot_shape":"circle","background_color":"#AAA","RDK_type":3,"aperture_type":2,"reinsert_type":2,"frame_rate":16.8,"frame_rate_array":[4,13,17,17,17,17,17,17,17,17,17,17,17,17,17,17,17,17,17,17,17,17,17,17,17,17,17,17,17,16,17,17,17,17,17,17,17,18,16,17,17,17,17,16,17,17,17,17,17,17,17,17,17,17,17,17,17,17,17,17,17,17,17,17,17,17,17,16,17,17,17,17,17,17,16,17,17,17,17,17,17,17,16,17,17,17,17,17,17,17,17,17,17,17,17,17,17,17,16,17,17,17,16,17,17,17,17,17,17,17,17,17,17,17,17,17,17,17,17,17],"number_of_frames":120,"aperture_center_x":640,"aperture_center_y":360,"fixation_cross":true,"fixation_cross_width":15,"fixation_cross_height":15,"fixation_cross_color":"#111","fixation_cross_thickness":1,"border":true,"border_thickness":2,"border_color":"transparent","canvas_width":1280,"canvas_height":720,"trial_type":"rdk","trial_index":16,"plugin_version":"2.0.0","time_elapsed":52883},{"rt":2125,"stimulus":"\n        <div class=\"response-container\">\n          <div class=\"response-instruction\">\n            <p>rotate the bar by using the left and right arrow keys.</p>\n            <p>when you are determined, press the Enter key.</p>\n          </div>\n          <div class=\"response-circle\">\n            <div class=\"response-fixation\"></div>\n            <div id=\"bar\" class=\"rotating-bar\"></div>\n          </div>\n        </div>\n      ","response":"Enter","trial_type":"html-keyboard-response","trial_index":17,"plugin_version":"2.1.0","time_elapsed":55009,"response_angle_css":311,"response_angle_rdk":139,"angular_error_target":-106,"angular_error_distractor":15,"target_direction":245,"target_group":"white","reward_points":0},{"rt":null,"stimulus":"\n          <p style=\"color: #FF3333;\">Your reward: 0 points</p>\n        ","response":null,"trial_type":"html-keyboard-response","trial_index":18,"plugin_version":"2.1.0","time_elapsed":57013},{"rt":null,"stimulus":"<div class=\"fixation\" style=\"font-size: 60px;\">+</div>","response":null,"trial_type":"html-keyboard-response","trial_index":19,"plugin_version":"2.1.0","time_elapsed":58015},{"target_group":"black","condition_label":"B_H_vs_W_L_rep22","target_direction":322,"distractor_direction":55,"session_rotation":207,"rt":254,"response":"ArrowRight","correct":false,"choices":"ALL_KEYS","correct_choice":["a"],"trial_duration":2000,"flip_timestamps":[],"response_ends_trial":false,"number_of_apertures":200,"number_of_dots":[1,1,1,1,1,1,1,1,1,1,1,1,1,1,1,1,1,1,1,1,1,1,1,1,1,1,1,1,1,1,1,1,1,1,1,1,1,1,1,1,1,1,1,1,1,1,1,1,1,1,1,1,1,1,1,1,1,1,1,1,1,1,1,1,1,1,1,1,1,1,1,1,1,1,1,1,1,1,1,1,1,1,1,1,1,1,1,1,1,1,1,1,1,1,1,1,1,1,1,1,1,1,1,1,1,1,1,1,1,1,1,1,1,1,1,1,1,1,1,1,1,1,1,1,1,1,1,1,1,1,1,1,1,1,1,1,1,1,1,1,1,1,1,1,1,1,1,1,1,1,1,1,1,1,1,1,1,1,1,1,1,1,1,1,1,1,1,1,1,1,1,1,1,1,1,1,1,1,1,1,1,1,1,1,1,1,1,1,1,1,1,1,1,1,1,1,1,1,1,1],"number_of_sets":1,"coherent_direction":[322,322,322,55,55,322,322,322,322,322,322,322,55,55,322,55,55,322,55,322,55,322,322,55,55,55,322,55,322,55,322,55,55,55,322,322,55,55,322,55,55,55,322,322,55,322,55,322,322,322,322,55,322,55,322,55,55,55,55,322,322,322,322,322,55,322,322,322,322,55,55,322,55,322,322,55,55,322,322,55,55,322,55,322,322,322,55,322,322,55,55,55,55,55,322,322,322,55,322,322,55,322,55,322,322,55,55,322,55,55,322,55,55,55,322,55,322,55,322,55,55,55,55,55,322,55,55,55,322,55,322,322,322,322,55,322,55,322,322,322,322,322,322,322,55,322,322,55,55,55,55,55,322,322,55,55,322,322,55,55,55,322,55,322,322,322,55,55,322,55,322,322,55,322,55,55,55,322,55,55,322,55,322,55,322,55,55,55,55,322,322,55,55,55,55,55,55,322,322,322],"coherence":1,"opposite_coherence":0,"dot_radius":2,"dot_side_length":1,"dot_life":-1,"move_distance":1,"aperture_width":300,"aperture_height":300,"dot_color":["black","black","black","white","white","black","black","black","black","black","black","black","white","white","black","white","white","black","white","black","white","black","black","white","white","white","black","white","black","white","black","white","white","white","black","black","white","white","black","white","white","white","black","black","white","black","white","black","black","black","black","white","black","white","black","white","white","white","white","black","black","black","black","black","white","black","black","black","black","white","white","black","white","black","black","white","white","black","black","white","white","black","white","black","black","black","white","black","black","white","white","white","white","white","black","black","black","white","black","black","white","black","white","black","black","white","white","black","white","white","black","white","white","white","black","white","black","white","black","white","white","white","white","white","black","white","white","white","black","white","black","black","black","black","white","black","white","black","black","black","black","black","black","black","white","black","black","white","white","white","white","white","black","black","white","white","black","black","white","white","white","black","white","black","black","black","white","white","black","white","black","black","white","black","white","white","white","black","white","white","black","white","black","white","black","white","white","white","white","black","black","white","white","white","white","white","white","black","black","black"],"dot_shape":"circle","background_color":"#AAA","RDK_type":3,"aperture_type":2,"reinsert_type":2,"frame_rate":16.75,"frame_rate_array":[9,16,16,17,17,17,17,17,17,17,17,17,16,17,17,17,17,17,16,17,17,17,17,16,17,16,17,16,17,16,17,17,17,17,17,17,17,17,17,17,17,17,17,17,17,17,16,17,17,17,17,17,17,17,17,17,17,17,17,17,17,17,16,17,17,17,17,17,17,17,16,17,16,17,17,16,16,17,16,17,16,17,16,17,17,17,17,17,17,16,17,17,16,17,17,17,17,17,17,16,17,17,17,17,17,17,17,17,17,17,17,17,17,17,16,17,16,17,17,17],"number_of_frames":120,"aperture_center_x":640,"aperture_center_y":360,"fixation_cross":true,"fixation_cross_width":15,"fixation_cross_height":15,"fixation_cross_color":"#111","fixation_cross_thickness":1,"border":true,"border_thickness":2,"border_color":"transparent","canvas_width":1280,"canvas_height":720,"trial_type":"rdk","trial_index":20,"plugin_version":"2.0.0","time_elapsed":60019},{"rt":2797,"stimulus":"\n        <div class=\"response-container\">\n          <div class=\"response-instruction\">\n            <p>rotate the bar by using the left and right arrow keys.</p>\n            <p>when you are determined, press the Enter key.</p>\n          </div>\n          <div class=\"response-circle\">\n            <div class=\"response-fixation\"></div>\n            <div id=\"bar\" class=\"rotating-bar\"></div>\n          </div>\n        </div>\n      ","response":"Enter","trial_type":"html-keyboard-response","trial_index":21,"plugin_version":"2.1.0","time_elapsed":62817,"response_angle_css":361,"response_angle_rdk":89,"angular_error_target":127,"angular_error_distractor":34,"target_direction":322,"target_group":"black","reward_points":0},{"rt":null,"stimulus":"\n          <p style=\"color: #FF3333;\">Your reward: 0 points</p>\n        ","response":null,"trial_type":"html-keyboard-response","trial_index":22,"plugin_version":"2.1.0","time_elapsed":64820},{"rt":null,"stimulus":"<div class=\"fixation\" style=\"font-size: 60px;\">+</div>","response":null,"trial_type":"html-keyboard-response","trial_index":23,"plugin_version":"2.1.0","time_elapsed":65826},{"target_group":"white","condition_label":"W_H_vs_B_L_rep15","target_direction":220,"distractor_direction":125,"session_rotation":207,"rt":594,"response":"ArrowRight","correct":false,"choices":"ALL_KEYS","correct_choice":["a"],"trial_duration":2000,"flip_timestamps":[],"response_ends_trial":false,"number_of_apertures":200,"number_of_dots":[1,1,1,1,1,1,1,1,1,1,1,1,1,1,1,1,1,1,1,1,1,1,1,1,1,1,1,1,1,1,1,1,1,1,1,1,1,1,1,1,1,1,1,1,1,1,1,1,1,1,1,1,1,1,1,1,1,1,1,1,1,1,1,1,1,1,1,1,1,1,1,1,1,1,1,1,1,1,1,1,1,1,1,1,1,1,1,1,1,1,1,1,1,1,1,1,1,1,1,1,1,1,1,1,1,1,1,1,1,1,1,1,1,1,1,1,1,1,1,1,1,1,1,1,1,1,1,1,1,1,1,1,1,1,1,1,1,1,1,1,1,1,1,1,1,1,1,1,1,1,1,1,1,1,1,1,1,1,1,1,1,1,1,1,1,1,1,1,1,1,1,1,1,1,1,1,1,1,1,1,1,1,1,1,1,1,1,1,1,1,1,1,1,1,1,1,1,1,1,1],"number_of_sets":1,"coherent_direction":[125,125,220,220,220,125,125,220,220,220,125,125,125,220,220,220,220,220,220,125,220,220,220,125,220,125,125,125,125,125,220,220,125,220,125,220,220,220,125,125,125,220,125,125,220,125,220,220,125,125,220,125,220,220,125,125,220,125,220,125,220,125,125,220,220,125,125,125,220,220,125,125,125,125,125,125,220,220,220,125,125,125,125,125,220,220,220,220,125,125,220,125,220,125,220,125,220,125,125,220,220,220,220,220,125,125,220,220,220,220,125,220,220,220,220,125,220,125,220,220,125,220,220,125,125,125,125,220,220,220,125,125,220,125,125,220,220,220,125,125,125,220,125,220,125,125,220,220,220,220,125,220,125,125,125,125,125,220,220,220,125,220,125,220,125,125,220,125,125,220,220,125,220,220,125,125,220,220,125,220,125,220,125,125,125,125,125,125,125,220,125,125,220,220,125,220,220,220,220,125],"coherence":1,"opposite_coherence":0,"dot_radius":2,"dot_side_length":1,"dot_life":-1,"move_distance":1,"aperture_width":300,"aperture_height":300,"dot_color":["black","black","white","white","white","black","black","white","white","white","black","black","black","white","white","white","white","white","white","black","white","white","white","black","white","black","black","black","black","black","white","white","black","white","black","white","white","white","black","black","black","white","black","black","white","black","white","white","black","black","white","black","white","white","black","black","white","black","white","black","white","black","black","white","white","black","black","black","white","white","black","black","black","black","black","black","white","white","white","black","black","black","black","black","white","white","white","white","black","black","white","black","white","black","white","black","white","black","black","white","white","white","white","white","black","black","white","white","white","white","black","white","white","white","white","black","white","black","white","white","black","white","white","black","black","black","black","white","white","white","black","black","white","black","black","white","white","white","black","black","black","white","black","white","black","black","white","white","white","white","black","white","black","black","black","black","black","white","white","white","black","white","black","white","black","black","white","black","black","white","white","black","white","white","black","black","white","white","black","white","black","white","black","black","black","black","black","black","black","white","black","black","white","white","black","white","white","white","white","black"],"dot_shape":"circle","background_color":"#AAA","RDK_type":3,"aperture_type":2,"reinsert_type":2,"frame_rate":16.71900826446281,"frame_rate_array":[7,17,17,16,18,16,17,17,16,17,16,17,17,16,17,17,16,17,16,17,17,17,17,17,17,17,17,17,17,17,17,17,17,17,17,17,17,17,17,17,17,16,17,17,17,17,17,17,17,16,17,17,16,17,17,17,17,17,17,17,17,17,17,17,16,17,16,17,17,17,17,16,18,16,17,16,17,17,17,17,17,17,17,17,17,16,17,16,17,16,18,16,17,16,17,18,17,16,17,17,17,17,16,17,16,17,17,17,16,16,18,16,17,16,17,17,16,17,16,17,17],"number_of_frames":121,"aperture_center_x":640,"aperture_center_y":360,"fixation_cross":true,"fixation_cross_width":15,"fixation_cross_height":15,"fixation_cross_color":"#111","fixation_cross_thickness":1,"border":true,"border_thickness":2,"border_color":"transparent","canvas_width":1280,"canvas_height":720,"trial_type":"rdk","trial_index":24,"plugin_version":"2.0.0","time_elapsed":67836},{"rt":1704,"stimulus":"\n        <div class=\"response-container\">\n          <div class=\"response-instruction\">\n            <p>rotate the bar by using the left and right arrow keys.</p>\n            <p>when you are determined, press the Enter key.</p>\n          </div>\n          <div class=\"response-circle\">\n            <div class=\"response-fixation\"></div>\n            <div id=\"bar\" class=\"rotating-bar\"></div>\n          </div>\n        </div>\n      ","response":"Enter","trial_type":"html-keyboard-response","trial_index":25,"plugin_version":"2.1.0","time_elapsed":69541,"response_angle_css":138,"response_angle_rdk":312,"angular_error_target":92,"angular_error_distractor":-173,"target_direction":220,"target_group":"white","reward_points":0},{"rt":null,"stimulus":"\n          <p style=\"color: #FF3333;\">Your reward: 0 points</p>\n        ","response":null,"trial_type":"html-keyboard-response","trial_index":26,"plugin_version":"2.1.0","time_elapsed":71549},{"rt":null,"stimulus":"<div class=\"fixation\" style=\"font-size: 60px;\">+</div>","response":null,"trial_type":"html-keyboard-response","trial_index":27,"plugin_version":"2.1.0","time_elapsed":72554},{"target_group":"white","condition_label":"W_H_vs_B_L_rep5","target_direction":230,"distractor_direction":131,"session_rotation":207,"rt":294,"response":"ArrowLeft","correct":false,"choices":"ALL_KEYS","correct_choice":["a"],"trial_duration":2000,"flip_timestamps":[],"response_ends_trial":false,"number_of_apertures":200,"number_of_dots":[1,1,1,1,1,1,1,1,1,1,1,1,1,1,1,1,1,1,1,1,1,1,1,1,1,1,1,1,1,1,1,1,1,1,1,1,1,1,1,1,1,1,1,1,1,1,1,1,1,1,1,1,1,1,1,1,1,1,1,1,1,1,1,1,1,1,1,1,1,1,1,1,1,1,1,1,1,1,1,1,1,1,1,1,1,1,1,1,1,1,1,1,1,1,1,1,1,1,1,1,1,1,1,1,1,1,1,1,1,1,1,1,1,1,1,1,1,1,1,1,1,1,1,1,1,1,1,1,1,1,1,1,1,1,1,1,1,1,1,1,1,1,1,1,1,1,1,1,1,1,1,1,1,1,1,1,1,1,1,1,1,1,1,1,1,1,1,1,1,1,1,1,1,1,1,1,1,1,1,1,1,1,1,1,1,1,1,1,1,1,1,1,1,1,1,1,1,1,1,1],"number_of_sets":1,"coherent_direction":[230,230,230,230,131,131,230,131,230,230,131,230,230,131,230,131,230,131,131,131,131,131,131,131,230,131,131,131,230,230,131,230,131,230,131,230,230,131,131,230,131,131,131,230,131,230,131,230,230,131,230,230,230,230,131,230,131,230,230,230,131,131,230,131,131,131,131,131,230,230,131,230,230,230,131,230,131,131,230,131,230,230,230,230,230,230,230,230,230,131,230,230,131,230,131,230,131,230,131,230,230,230,131,131,131,131,131,230,230,230,230,131,230,230,131,230,230,131,230,230,131,131,230,131,230,230,131,230,230,131,131,230,230,131,230,230,230,131,230,131,230,230,131,131,230,230,230,131,131,131,131,131,131,131,131,131,230,131,230,230,230,131,230,131,230,131,131,131,230,131,131,131,230,230,131,230,131,131,230,131,131,131,131,131,131,131,131,131,131,230,230,230,230,230,131,230,131,131,230,131],"coherence":1,"opposite_coherence":0,"dot_radius":2,"dot_side_length":1,"dot_life":-1,"move_distance":1,"aperture_width":300,"aperture_height":300,"dot_color":["white","white","white","white","black","black","white","black","white","white","black","white","white","black","white","black","white","black","black","black","black","black","black","black","white","black","black","black","white","white","black","white","black","white","black","white","white","black","black","white","black","black","black","white","black","white","black","white","white","black","white","white","white","white","black","white","black","white","white","white","black","black","white","black","black","black","black","black","white","white","black","white","white","white","black","white","black","black","white","black","white","white","white","white","white","white","white","white","white","black","white","white","black","white","black","white","black","white","black","white","white","white","black","black","black","black","black","white","white","white","white","black","white","white","black","white","white","black","white","white","black","black","white","black","white","white","black","white","white","black","black","white","white","black","white","white","white","black","white","black","white","white","black","black","white","white","white","black","black","black","black","black","black","black","black","black","white","black","white","white","white","black","white","black","white","black","black","black","white","black","black","black","white","white","black","white","black","black","white","black","black","black","black","black","black","black","black","black","black","white","white","white","white","white","black","white","black","black","white","black"],"dot_shape":"circle","background_color":"#AAA","RDK_type":3,"aperture_type":2,"reinsert_type":2,"frame_rate":16.867768595041323,"frame_rate_array":[12,17,17,17,17,16,17,16,17,17,17,17,16,17,17,17,17,17,17,17,17,17,17,16,17,16,17,17,17,17,17,17,16,17,17,17,17,17,17,17,17,17,17,17,17,17,17,17,18,16,17,17,17,17,17,16,17,17,17,17,17,17,16,17,17,17,17,17,17,17,17,17,17,17,17,17,17,17,17,17,17,17,17,17,17,17,16,17,17,16,17,17,17,17,17,17,17,17,17,17,17,17,17,17,17,17,18,16,17,17,17,16,17,17,17,17,17,17,17,17,17],"number_of_frames":121,"aperture_center_x":640,"aperture_center_y":360,"fixation_cross":true,"fixation_cross_width":15,"fixation_cross_height":15,"fixation_cross_color":"#111","fixation_cross_thickness":1,"border":true,"border_thickness":2,"border_color":"transparent","canvas_width":1280,"canvas_height":720,"trial_type":"rdk","trial_index":28,"plugin_version":"2.0.0","time_elapsed":74569},{"rt":1157,"stimulus":"\n        <div class=\"response-container\">\n          <div class=\"response-instruction\">\n            <p>rotate the bar by using the left and right arrow keys.</p>\n            <p>when you are determined, press the Enter key.</p>\n          </div>\n          <div class=\"response-circle\">\n            <div class=\"response-fixation\"></div>\n            <div id=\"bar\" class=\"rotating-bar\"></div>\n          </div>\n        </div>\n      ","response":"Enter","trial_type":"html-keyboard-response","trial_index":29,"plugin_version":"2.1.0","time_elapsed":75727,"response_angle_css":1,"response_angle_rdk":89,"angular_error_target":-141,"angular_error_distractor":-42,"target_direction":230,"target_group":"white","reward_points":0},{"rt":null,"stimulus":"\n          <p style=\"color: #FF3333;\">Your reward: 0 points</p>\n        ","response":null,"trial_type":"html-keyboard-response","trial_index":30,"plugin_version":"2.1.0","time_elapsed":77734},{"rt":null,"stimulus":"<div class=\"fixation\" style=\"font-size: 60px;\">+</div>","response":null,"trial_type":"html-keyboard-response","trial_index":31,"plugin_version":"2.1.0","time_elapsed":78735},{"target_group":"white","condition_label":"W_H_vs_B_L_rep1","target_direction":241,"distractor_direction":147,"session_rotation":207,"rt":-1,"response":"","correct":false,"choices":"ALL_KEYS","correct_choice":["a"],"trial_duration":2000,"flip_timestamps":[],"response_ends_trial":false,"number_of_apertures":200,"number_of_dots":[1,1,1,1,1,1,1,1,1,1,1,1,1,1,1,1,1,1,1,1,1,1,1,1,1,1,1,1,1,1,1,1,1,1,1,1,1,1,1,1,1,1,1,1,1,1,1,1,1,1,1,1,1,1,1,1,1,1,1,1,1,1,1,1,1,1,1,1,1,1,1,1,1,1,1,1,1,1,1,1,1,1,1,1,1,1,1,1,1,1,1,1,1,1,1,1,1,1,1,1,1,1,1,1,1,1,1,1,1,1,1,1,1,1,1,1,1,1,1,1,1,1,1,1,1,1,1,1,1,1,1,1,1,1,1,1,1,1,1,1,1,1,1,1,1,1,1,1,1,1,1,1,1,1,1,1,1,1,1,1,1,1,1,1,1,1,1,1,1,1,1,1,1,1,1,1,1,1,1,1,1,1,1,1,1,1,1,1,1,1,1,1,1,1,1,1,1,1,1,1],"number_of_sets":1,"coherent_direction":[147,147,147,147,147,241,147,147,147,147,241,241,147,241,147,147,147,241,147,147,241,241,241,147,241,241,147,147,147,147,241,147,241,241,147,147,241,147,241,147,147,147,147,241,241,147,241,147,147,241,241,241,147,241,147,147,241,241,147,147,241,241,147,241,147,241,241,147,147,147,241,147,147,241,147,241,241,147,241,241,241,241,147,147,241,147,147,241,241,147,241,241,241,147,147,147,147,241,147,147,241,147,147,147,241,147,241,241,241,147,241,241,241,147,147,241,241,241,241,147,147,241,147,241,241,241,147,147,147,147,241,147,241,147,241,147,241,147,241,241,147,241,241,241,147,241,147,241,241,147,147,241,241,241,241,241,147,241,147,241,147,241,241,241,241,147,241,241,147,147,241,147,147,147,147,147,147,147,241,147,241,147,241,147,241,241,241,241,147,241,241,147,147,147,241,241,241,241,147,241],"coherence":1,"opposite_coherence":0,"dot_radius":2,"dot_side_length":1,"dot_life":-1,"move_distance":1,"aperture_width":300,"aperture_height":300,"dot_color":["black","black","black","black","black","white","black","black","black","black","white","white","black","white","black","black","black","white","black","black","white","white","white","black","white","white","black","black","black","black","white","black","white","white","black","black","white","black","white","black","black","black","black","white","white","black","white","black","black","white","white","white","black","white","black","black","white","white","black","black","white","white","black","white","black","white","white","black","black","black","white","black","black","white","black","white","white","black","white","white","white","white","black","black","white","black","black","white","white","black","white","white","white","black","black","black","black","white","black","black","white","black","black","black","white","black","white","white","white","black","white","white","white","black","black","white","white","white","white","black","black","white","black","white","white","white","black","black","black","black","white","black","white","black","white","black","white","black","white","white","black","white","white","white","black","white","black","white","white","black","black","white","white","white","white","white","black","white","black","white","black","white","white","white","white","black","white","white","black","black","white","black","black","black","black","black","black","black","white","black","white","black","white","black","white","white","white","white","black","white","white","black","black","black","white","white","white","white","black","white"],"dot_shape":"circle","background_color":"#AAA","RDK_type":3,"aperture_type":2,"reinsert_type":2,"frame_rate":16.775,"frame_rate_array":[16,17,17,16,16,17,17,17,17,17,16,17,16,17,16,17,17,17,17,17,17,17,17,17,17,17,16,17,17,17,17,16,17,17,17,16,17,17,17,17,17,17,17,17,17,17,17,16,17,17,17,17,17,17,16,16,17,17,17,17,16,17,17,16,17,17,16,17,16,17,17,17,17,17,16,17,17,17,16,17,17,17,17,16,17,17,16,17,17,17,17,16,17,16,17,17,17,17,16,17,17,17,16,17,17,16,18,16,17,16,17,16,17,17,17,17,17,17,17,17],"number_of_frames":120,"aperture_center_x":640,"aperture_center_y":360,"fixation_cross":true,"fixation_cross_width":15,"fixation_cross_height":15,"fixation_cross_color":"#111","fixation_cross_thickness":1,"border":true,"border_thickness":2,"border_color":"transparent","canvas_width":1280,"canvas_height":720,"trial_type":"rdk","trial_index":32,"plugin_version":"2.0.0","time_elapsed":80737},{"rt":2337,"stimulus":"\n        <div class=\"response-container\">\n          <div class=\"response-instruction\">\n            <p>rotate the bar by using the left and right arrow keys.</p>\n            <p>when you are determined, press the Enter key.</p>\n          </div>\n          <div class=\"response-circle\">\n            <div class=\"response-fixation\"></div>\n            <div id=\"bar\" class=\"rotating-bar\"></div>\n          </div>\n        </div>\n      ","response":"Enter","trial_type":"html-keyboard-response","trial_index":33,"plugin_version":"2.1.0","time_elapsed":83074,"response_angle_css":150,"response_angle_rdk":300,"angular_error_target":59,"angular_error_distractor":153,"target_direction":241,"target_group":"white","reward_points":0},{"rt":null,"stimulus":"\n          <p style=\"color: #FF3333;\">Your reward: 0 points</p>\n        ","response":null,"trial_type":"html-keyboard-response","trial_index":34,"plugin_version":"2.1.0","time_elapsed":85088},{"rt":null,"stimulus":"<div class=\"fixation\" style=\"font-size: 60px;\">+</div>","response":null,"trial_type":"html-keyboard-response","trial_index":35,"plugin_version":"2.1.0","time_elapsed":86090},{"target_group":"white","condition_label":"W_H_vs_B_L_rep9","target_direction":248,"distractor_direction":149,"session_rotation":207,"rt":-1,"response":"","correct":false,"choices":"ALL_KEYS","correct_choice":["a"],"trial_duration":2000,"flip_timestamps":[],"response_ends_trial":false,"number_of_apertures":200,"number_of_dots":[1,1,1,1,1,1,1,1,1,1,1,1,1,1,1,1,1,1,1,1,1,1,1,1,1,1,1,1,1,1,1,1,1,1,1,1,1,1,1,1,1,1,1,1,1,1,1,1,1,1,1,1,1,1,1,1,1,1,1,1,1,1,1,1,1,1,1,1,1,1,1,1,1,1,1,1,1,1,1,1,1,1,1,1,1,1,1,1,1,1,1,1,1,1,1,1,1,1,1,1,1,1,1,1,1,1,1,1,1,1,1,1,1,1,1,1,1,1,1,1,1,1,1,1,1,1,1,1,1,1,1,1,1,1,1,1,1,1,1,1,1,1,1,1,1,1,1,1,1,1,1,1,1,1,1,1,1,1,1,1,1,1,1,1,1,1,1,1,1,1,1,1,1,1,1,1,1,1,1,1,1,1,1,1,1,1,1,1,1,1,1,1,1,1,1,1,1,1,1,1],"number_of_sets":1,"coherent_direction":[248,149,248,149,248,248,248,149,149,248,248,149,149,149,248,248,248,248,248,248,149,248,149,149,248,248,149,248,149,248,248,248,248,149,149,248,248,248,149,149,149,248,248,248,248,149,248,149,248,248,149,149,149,149,149,149,248,248,149,248,248,248,248,248,149,149,248,149,248,248,149,248,149,149,248,248,149,248,149,149,248,248,248,149,149,149,248,248,248,248,149,149,248,149,248,248,248,149,149,149,248,149,149,149,248,248,248,248,149,248,149,248,149,149,149,248,248,149,149,248,248,149,149,248,248,248,149,248,248,149,149,149,248,149,248,248,248,248,149,149,149,149,149,149,248,149,248,248,149,248,248,248,248,149,149,248,149,149,248,149,149,149,149,149,248,149,149,149,248,149,149,149,149,248,149,248,149,248,149,248,149,149,149,149,248,149,248,149,149,149,248,248,248,149,149,248,149,248,149,248],"coherence":1,"opposite_coherence":0,"dot_radius":2,"dot_side_length":1,"dot_life":-1,"move_distance":1,"aperture_width":300,"aperture_height":300,"dot_color":["white","black","white","black","white","white","white","black","black","white","white","black","black","black","white","white","white","white","white","white","black","white","black","black","white","white","black","white","black","white","white","white","white","black","black","white","white","white","black","black","black","white","white","white","white","black","white","black","white","white","black","black","black","black","black","black","white","white","black","white","white","white","white","white","black","black","white","black","white","white","black","white","black","black","white","white","black","white","black","black","white","white","white","black","black","black","white","white","white","white","black","black","white","black","white","white","white","black","black","black","white","black","black","black","white","white","white","white","black","white","black","white","black","black","black","white","white","black","black","white","white","black","black","white","white","white","black","white","white","black","black","black","white","black","white","white","white","white","black","black","black","black","black","black","white","black","white","white","black","white","white","white","white","black","black","white","black","black","white","black","black","black","black","black","white","black","black","black","white","black","black","black","black","white","black","white","black","white","black","white","black","black","black","black","white","black","white","black","black","black","white","white","white","black","black","white","black","white","black","white"],"dot_shape":"circle","background_color":"#AAA","RDK_type":3,"aperture_type":2,"reinsert_type":2,"frame_rate":16.783333333333335,"frame_rate_array":[11,17,16,17,17,17,16,17,17,17,16,17,16,17,17,17,16,16,17,17,18,16,17,16,17,16,17,17,16,17,17,17,17,17,17,17,17,17,17,17,16,17,17,17,17,17,16,17,16,17,16,17,17,17,16,17,16,17,16,17,17,17,17,17,17,17,17,17,17,17,17,17,17,17,17,17,17,17,17,17,16,17,17,17,17,17,17,17,17,17,17,16,17,17,17,17,17,17,17,17,17,17,17,17,17,16,17,17,17,17,16,17,17,17,17,17,17,17,17,17],"number_of_frames":120,"aperture_center_x":640,"aperture_center_y":360,"fixation_cross":true,"fixation_cross_width":15,"fixation_cross_height":15,"fixation_cross_color":"#111","fixation_cross_thickness":1,"border":true,"border_thickness":2,"border_color":"transparent","canvas_width":1280,"canvas_height":720,"trial_type":"rdk","trial_index":36,"plugin_version":"2.0.0","time_elapsed":88099},{"rt":3810,"stimulus":"\n        <div class=\"response-container\">\n          <div class=\"response-instruction\">\n            <p>rotate the bar by using the left and right arrow keys.</p>\n            <p>when you are determined, press the Enter key.</p>\n          </div>\n          <div class=\"response-circle\">\n            <div class=\"response-fixation\"></div>\n            <div id=\"bar\" class=\"rotating-bar\"></div>\n          </div>\n        </div>\n      ","response":"Enter","trial_type":"html-keyboard-response","trial_index":37,"plugin_version":"2.1.0","time_elapsed":91909,"response_angle_css":146,"response_angle_rdk":304,"angular_error_target":56,"angular_error_distractor":155,"target_direction":248,"target_group":"white","reward_points":0},{"rt":null,"stimulus":"\n          <p style=\"color: #FF3333;\">Your reward: 0 points</p>\n        ","response":null,"trial_type":"html-keyboard-response","trial_index":38,"plugin_version":"2.1.0","time_elapsed":93919},{"rt":null,"stimulus":"<div class=\"fixation\" style=\"font-size: 60px;\">+</div>","response":null,"trial_type":"html-keyboard-response","trial_index":39,"plugin_version":"2.1.0","time_elapsed":94923},{"target_group":"white","condition_label":"W_H_vs_B_L_rep3","target_direction":244,"distractor_direction":125,"session_rotation":207,"rt":-1,"response":"","correct":false,"choices":"ALL_KEYS","correct_choice":["a"],"trial_duration":2000,"flip_timestamps":[],"response_ends_trial":false,"number_of_apertures":200,"number_of_dots":[1,1,1,1,1,1,1,1,1,1,1,1,1,1,1,1,1,1,1,1,1,1,1,1,1,1,1,1,1,1,1,1,1,1,1,1,1,1,1,1,1,1,1,1,1,1,1,1,1,1,1,1,1,1,1,1,1,1,1,1,1,1,1,1,1,1,1,1,1,1,1,1,1,1,1,1,1,1,1,1,1,1,1,1,1,1,1,1,1,1,1,1,1,1,1,1,1,1,1,1,1,1,1,1,1,1,1,1,1,1,1,1,1,1,1,1,1,1,1,1,1,1,1,1,1,1,1,1,1,1,1,1,1,1,1,1,1,1,1,1,1,1,1,1,1,1,1,1,1,1,1,1,1,1,1,1,1,1,1,1,1,1,1,1,1,1,1,1,1,1,1,1,1,1,1,1,1,1,1,1,1,1,1,1,1,1,1,1,1,1,1,1,1,1,1,1,1,1,1,1],"number_of_sets":1,"coherent_direction":[125,125,244,244,244,125,125,244,244,125,244,125,125,244,244,244,244,244,244,125,125,125,125,244,244,125,244,125,125,125,244,125,125,244,125,244,125,125,244,125,125,125,125,125,125,125,244,125,244,125,125,244,125,125,244,244,244,125,244,125,125,244,125,244,125,244,125,125,244,125,125,125,244,244,244,244,125,125,125,244,244,244,125,125,125,125,125,244,125,125,244,244,125,244,244,125,244,244,244,244,125,125,244,125,125,244,125,244,125,125,244,244,244,125,244,125,244,244,125,244,125,244,244,125,125,125,125,244,244,244,125,125,244,244,125,244,244,244,244,125,244,125,125,244,244,125,125,244,244,244,244,125,244,244,125,125,244,244,244,125,125,244,125,244,244,244,125,125,244,244,125,125,244,244,244,244,244,244,244,125,244,125,125,125,244,125,244,244,244,244,244,125,125,125,125,125,244,125,125,125],"coherence":1,"opposite_coherence":0,"dot_radius":2,"dot_side_length":1,"dot_life":-1,"move_distance":1,"aperture_width":300,"aperture_height":300,"dot_color":["black","black","white","white","white","black","black","white","white","black","white","black","black","white","white","white","white","white","white","black","black","black","black","white","white","black","white","black","black","black","white","black","black","white","black","white","black","black","white","black","black","black","black","black","black","black","white","black","white","black","black","white","black","black","white","white","white","black","white","black","black","white","black","white","black","white","black","black","white","black","black","black","white","white","white","white","black","black","black","white","white","white","black","black","black","black","black","white","black","black","white","white","black","white","white","black","white","white","white","white","black","black","white","black","black","white","black","white","black","black","white","white","white","black","white","black","white","white","black","white","black","white","white","black","black","black","black","white","white","white","black","black","white","white","black","white","white","white","white","black","white","black","black","white","white","black","black","white","white","white","white","black","white","white","black","black","white","white","white","black","black","white","black","white","white","white","black","black","white","white","black","black","white","white","white","white","white","white","white","black","white","black","black","black","white","black","white","white","white","white","white","black","black","black","black","black","white","black","black","black"],"dot_shape":"circle","background_color":"#AAA","RDK_type":3,"aperture_type":2,"reinsert_type":2,"frame_rate":16.727272727272727,"frame_rate_array":[12,17,17,17,16,17,17,17,17,17,16,17,17,16,17,17,17,16,18,16,17,17,17,17,17,17,17,17,17,17,17,16,17,17,17,16,18,16,17,16,17,17,16,17,17,17,17,17,17,16,17,17,17,17,17,16,17,17,17,17,17,16,17,17,16,17,17,16,17,16,17,17,17,16,17,16,17,16,16,17,17,16,17,16,17,17,17,17,17,17,17,17,17,17,16,17,17,17,17,16,17,17,16,18,16,18,17,15,16,17,17,17,16,17,16,17,17,17,17,17,16],"number_of_frames":121,"aperture_center_x":640,"aperture_center_y":360,"fixation_cross":true,"fixation_cross_width":15,"fixation_cross_height":15,"fixation_cross_color":"#111","fixation_cross_thickness":1,"border":true,"border_thickness":2,"border_color":"transparent","canvas_width":1280,"canvas_height":720,"trial_type":"rdk","trial_index":40,"plugin_version":"2.0.0","time_elapsed":96938},{"rt":1923,"stimulus":"\n        <div class=\"response-container\">\n          <div class=\"response-instruction\">\n            <p>rotate the bar by using the left and right arrow keys.</p>\n            <p>when you are determined, press the Enter key.</p>\n          </div>\n          <div class=\"response-circle\">\n            <div class=\"response-fixation\"></div>\n            <div id=\"bar\" class=\"rotating-bar\"></div>\n          </div>\n        </div>\n      ","response":"Enter","trial_type":"html-keyboard-response","trial_index":41,"plugin_version":"2.1.0","time_elapsed":98870,"response_angle_css":217,"response_angle_rdk":233,"angular_error_target":-11,"angular_error_distractor":108,"target_direction":244,"target_group":"white","reward_points":7},{"rt":null,"stimulus":"\n          <p style=\"color: #00FF00;\">Your reward: 7 points</p>\n        ","response":null,"trial_type":"html-keyboard-response","trial_index":42,"plugin_version":"2.1.0","time_elapsed":100875},{"rt":null,"stimulus":"<div class=\"fixation\" style=\"font-size: 60px;\">+</div>","response":null,"trial_type":"html-keyboard-response","trial_index":43,"plugin_version":"2.1.0","time_elapsed":101891},{"target_group":"white","condition_label":"W_H_vs_B_L_rep18","target_direction":223,"distractor_direction":126,"session_rotation":207,"rt":586,"response":"ArrowRight","correct":false,"choices":"ALL_KEYS","correct_choice":["a"],"trial_duration":2000,"flip_timestamps":[],"response_ends_trial":false,"number_of_apertures":200,"number_of_dots":[1,1,1,1,1,1,1,1,1,1,1,1,1,1,1,1,1,1,1,1,1,1,1,1,1,1,1,1,1,1,1,1,1,1,1,1,1,1,1,1,1,1,1,1,1,1,1,1,1,1,1,1,1,1,1,1,1,1,1,1,1,1,1,1,1,1,1,1,1,1,1,1,1,1,1,1,1,1,1,1,1,1,1,1,1,1,1,1,1,1,1,1,1,1,1,1,1,1,1,1,1,1,1,1,1,1,1,1,1,1,1,1,1,1,1,1,1,1,1,1,1,1,1,1,1,1,1,1,1,1,1,1,1,1,1,1,1,1,1,1,1,1,1,1,1,1,1,1,1,1,1,1,1,1,1,1,1,1,1,1,1,1,1,1,1,1,1,1,1,1,1,1,1,1,1,1,1,1,1,1,1,1,1,1,1,1,1,1,1,1,1,1,1,1,1,1,1,1,1,1],"number_of_sets":1,"coherent_direction":[223,223,223,126,223,126,223,126,223,126,223,223,126,223,126,126,223,126,126,223,223,223,126,126,223,126,126,223,126,126,126,223,223,126,126,126,126,223,223,126,223,126,126,126,223,223,223,126,223,126,126,126,126,126,126,126,126,126,223,223,126,126,223,223,223,223,126,223,223,223,223,223,126,223,126,223,126,126,223,126,223,223,126,126,126,223,223,223,223,126,126,223,126,223,126,223,223,223,223,126,126,126,223,223,223,223,126,223,126,126,223,223,126,126,223,126,223,223,223,126,223,223,126,126,126,126,223,126,223,223,126,223,126,126,223,126,126,223,126,126,126,223,126,126,223,223,223,223,126,223,223,223,126,126,223,223,223,126,126,126,126,223,223,126,126,223,126,126,126,126,223,223,126,126,223,126,223,126,126,223,223,126,126,223,223,126,223,223,126,223,223,223,126,126,223,223,126,223,126,223],"coherence":1,"opposite_coherence":0,"dot_radius":2,"dot_side_length":1,"dot_life":-1,"move_distance":1,"aperture_width":300,"aperture_height":300,"dot_color":["white","white","white","black","white","black","white","black","white","black","white","white","black","white","black","black","white","black","black","white","white","white","black","black","white","black","black","white","black","black","black","white","white","black","black","black","black","white","white","black","white","black","black","black","white","white","white","black","white","black","black","black","black","black","black","black","black","black","white","white","black","black","white","white","white","white","black","white","white","white","white","white","black","white","black","white","black","black","white","black","white","white","black","black","black","white","white","white","white","black","black","white","black","white","black","white","white","white","white","black","black","black","white","white","white","white","black","white","black","black","white","white","black","black","white","black","white","white","white","black","white","white","black","black","black","black","white","black","white","white","black","white","black","black","white","black","black","white","black","black","black","white","black","black","white","white","white","white","black","white","white","white","black","black","white","white","white","black","black","black","black","white","white","black","black","white","black","black","black","black","white","white","black","black","white","black","white","black","black","white","white","black","black","white","white","black","white","white","black","white","white","white","black","black","white","white","black","white","black","white"],"dot_shape":"circle","background_color":"#AAA","RDK_type":3,"aperture_type":2,"reinsert_type":2,"frame_rate":16.866666666666667,"frame_rate_array":[11,17,17,16,17,17,17,17,17,17,16,17,17,17,17,16,17,17,17,17,16,17,17,17,17,17,17,17,17,17,17,17,17,17,17,17,17,17,17,17,17,17,17,17,17,17,17,17,17,17,17,17,17,17,17,17,17,17,17,16,17,17,17,17,17,17,17,17,16,17,17,17,17,17,17,17,17,17,17,17,17,17,17,17,17,17,17,16,17,17,17,17,17,17,17,16,17,17,17,17,17,17,17,17,17,17,17,17,16,17,17,17,16,17,17,17,17,17,17,17],"number_of_frames":120,"aperture_center_x":640,"aperture_center_y":360,"fixation_cross":true,"fixation_cross_width":15,"fixation_cross_height":15,"fixation_cross_color":"#111","fixation_cross_thickness":1,"border":true,"border_thickness":2,"border_color":"transparent","canvas_width":1280,"canvas_height":720,"trial_type":"rdk","trial_index":44,"plugin_version":"2.0.0","time_elapsed":103901},{"rt":2503,"stimulus":"\n        <div class=\"response-container\">\n          <div class=\"response-instruction\">\n            <p>rotate the bar by using the left and right arrow keys.</p>\n            <p>when you are determined, press the Enter key.</p>\n          </div>\n          <div class=\"response-circle\">\n            <div class=\"response-fixation\"></div>\n            <div id=\"bar\" class=\"rotating-bar\"></div>\n          </div>\n        </div>\n      ","response":"Enter","trial_type":"html-keyboard-response","trial_index":45,"plugin_version":"2.1.0","time_elapsed":106405,"response_angle_css":290,"response_angle_rdk":160,"angular_error_target":-63,"angular_error_distractor":34,"target_direction":223,"target_group":"white","reward_points":0},{"rt":null,"stimulus":"\n          <p style=\"color: #FF3333;\">Your reward: 0 points</p>\n        ","response":null,"trial_type":"html-keyboard-response","trial_index":46,"plugin_version":"2.1.0","time_elapsed":108415},{"rt":null,"stimulus":"<div class=\"fixation\" style=\"font-size: 60px;\">+</div>","response":null,"trial_type":"html-keyboard-response","trial_index":47,"plugin_version":"2.1.0","time_elapsed":109418},{"target_group":"white","condition_label":"W_H_vs_B_L_rep14","target_direction":222,"distractor_direction":120,"session_rotation":207,"rt":-1,"response":"","correct":false,"choices":"ALL_KEYS","correct_choice":["a"],"trial_duration":2000,"flip_timestamps":[],"response_ends_trial":false,"number_of_apertures":200,"number_of_dots":[1,1,1,1,1,1,1,1,1,1,1,1,1,1,1,1,1,1,1,1,1,1,1,1,1,1,1,1,1,1,1,1,1,1,1,1,1,1,1,1,1,1,1,1,1,1,1,1,1,1,1,1,1,1,1,1,1,1,1,1,1,1,1,1,1,1,1,1,1,1,1,1,1,1,1,1,1,1,1,1,1,1,1,1,1,1,1,1,1,1,1,1,1,1,1,1,1,1,1,1,1,1,1,1,1,1,1,1,1,1,1,1,1,1,1,1,1,1,1,1,1,1,1,1,1,1,1,1,1,1,1,1,1,1,1,1,1,1,1,1,1,1,1,1,1,1,1,1,1,1,1,1,1,1,1,1,1,1,1,1,1,1,1,1,1,1,1,1,1,1,1,1,1,1,1,1,1,1,1,1,1,1,1,1,1,1,1,1,1,1,1,1,1,1,1,1,1,1,1,1],"number_of_sets":1,"coherent_direction":[222,222,222,120,222,120,120,222,222,222,120,120,120,120,222,120,120,222,120,120,120,120,222,222,120,222,120,222,222,120,120,222,222,120,120,222,120,222,120,222,222,120,120,222,222,222,222,120,222,222,222,120,120,120,120,120,222,120,120,222,222,222,222,222,120,222,222,222,120,222,120,222,120,120,120,120,222,222,120,120,222,222,120,120,222,120,222,120,222,222,120,222,120,120,222,222,222,222,120,120,222,120,222,120,222,222,120,222,120,120,120,222,120,120,222,120,120,120,120,120,120,222,120,120,222,222,120,222,222,222,222,222,222,120,120,120,120,222,222,120,120,222,222,120,120,222,120,120,120,120,120,222,222,222,222,222,222,222,222,222,120,120,222,120,120,222,120,120,222,120,222,222,222,222,222,120,120,222,222,222,120,120,222,120,120,222,120,120,222,222,120,120,120,222,222,120,222,120,222,120],"coherence":1,"opposite_coherence":0,"dot_radius":2,"dot_side_length":1,"dot_life":-1,"move_distance":1,"aperture_width":300,"aperture_height":300,"dot_color":["white","white","white","black","white","black","black","white","white","white","black","black","black","black","white","black","black","white","black","black","black","black","white","white","black","white","black","white","white","black","black","white","white","black","black","white","black","white","black","white","white","black","black","white","white","white","white","black","white","white","white","black","black","black","black","black","white","black","black","white","white","white","white","white","black","white","white","white","black","white","black","white","black","black","black","black","white","white","black","black","white","white","black","black","white","black","white","black","white","white","black","white","black","black","white","white","white","white","black","black","white","black","white","black","white","white","black","white","black","black","black","white","black","black","white","black","black","black","black","black","black","white","black","black","white","white","black","white","white","white","white","white","white","black","black","black","black","white","white","black","black","white","white","black","black","white","black","black","black","black","black","white","white","white","white","white","white","white","white","white","black","black","white","black","black","white","black","black","white","black","white","white","white","white","white","black","black","white","white","white","black","black","white","black","black","white","black","black","white","white","black","black","black","white","white","black","white","black","white","black"],"dot_shape":"circle","background_color":"#AAA","RDK_type":3,"aperture_type":2,"reinsert_type":2,"frame_rate":16.636363636363637,"frame_rate_array":[4,12,17,17,16,17,16,17,16,16,16,17,17,17,17,17,16,17,17,17,16,17,16,17,17,17,16,17,16,17,17,16,17,17,17,16,17,17,16,17,17,17,16,17,17,17,17,17,17,17,16,17,17,17,17,17,17,17,17,17,17,16,17,17,17,17,17,16,17,17,17,16,17,17,17,16,17,16,17,17,17,17,17,16,17,16,17,17,17,16,17,16,17,17,17,16,16,17,17,17,17,17,17,17,17,17,17,17,17,17,17,17,17,17,17,17,17,17,17,17,17],"number_of_frames":121,"aperture_center_x":640,"aperture_center_y":360,"fixation_cross":true,"fixation_cross_width":15,"fixation_cross_height":15,"fixation_cross_color":"#111","fixation_cross_thickness":1,"border":true,"border_thickness":2,"border_color":"transparent","canvas_width":1280,"canvas_height":720,"trial_type":"rdk","trial_index":48,"plugin_version":"2.0.0","time_elapsed":111424},{"rt":2040,"stimulus":"\n        <div class=\"response-container\">\n          <div class=\"response-instruction\">\n            <p>rotate the bar by using the left and right arrow keys.</p>\n            <p>when you are determined, press the Enter key.</p>\n          </div>\n          <div class=\"response-circle\">\n            <div class=\"response-fixation\"></div>\n            <div id=\"bar\" class=\"rotating-bar\"></div>\n          </div>\n        </div>\n      ","response":"Enter","trial_type":"html-keyboard-response","trial_index":49,"plugin_version":"2.1.0","time_elapsed":113464,"response_angle_css":409,"response_angle_rdk":41,"angular_error_target":179,"angular_error_distractor":-79,"target_direction":222,"target_group":"white","reward_points":0},{"rt":null,"stimulus":"\n          <p style=\"color: #FF3333;\">Your reward: 0 points</p>\n        ","response":null,"trial_type":"html-keyboard-response","trial_index":50,"plugin_version":"2.1.0","time_elapsed":115475},{"rt":null,"stimulus":"<div class=\"fixation\" style=\"font-size: 60px;\">+</div>","response":null,"trial_type":"html-keyboard-response","trial_index":51,"plugin_version":"2.1.0","time_elapsed":116485},{"target_group":"black","condition_label":"B_H_vs_W_L_rep5","target_direction":300,"distractor_direction":61,"session_rotation":207,"rt":-1,"response":"","correct":false,"choices":"ALL_KEYS","correct_choice":["a"],"trial_duration":2000,"flip_timestamps":[],"response_ends_trial":false,"number_of_apertures":200,"number_of_dots":[1,1,1,1,1,1,1,1,1,1,1,1,1,1,1,1,1,1,1,1,1,1,1,1,1,1,1,1,1,1,1,1,1,1,1,1,1,1,1,1,1,1,1,1,1,1,1,1,1,1,1,1,1,1,1,1,1,1,1,1,1,1,1,1,1,1,1,1,1,1,1,1,1,1,1,1,1,1,1,1,1,1,1,1,1,1,1,1,1,1,1,1,1,1,1,1,1,1,1,1,1,1,1,1,1,1,1,1,1,1,1,1,1,1,1,1,1,1,1,1,1,1,1,1,1,1,1,1,1,1,1,1,1,1,1,1,1,1,1,1,1,1,1,1,1,1,1,1,1,1,1,1,1,1,1,1,1,1,1,1,1,1,1,1,1,1,1,1,1,1,1,1,1,1,1,1,1,1,1,1,1,1,1,1,1,1,1,1,1,1,1,1,1,1,1,1,1,1,1,1],"number_of_sets":1,"coherent_direction":[300,300,300,61,61,300,300,61,61,61,61,300,61,61,61,300,61,300,61,300,300,300,300,300,61,61,61,300,300,61,300,300,61,61,61,300,61,300,300,300,300,61,300,300,300,61,61,61,300,61,300,61,300,61,61,300,61,300,61,300,300,61,61,61,300,61,61,300,300,61,61,300,61,300,61,300,61,300,61,61,300,300,300,61,61,300,61,61,300,61,300,300,61,300,61,300,61,61,300,300,300,300,300,300,61,300,300,61,61,61,300,61,61,61,300,300,61,61,300,300,61,300,61,300,300,61,300,61,300,61,300,61,300,300,300,61,61,300,300,61,300,300,61,300,61,61,61,61,300,61,61,61,61,300,300,300,61,61,61,300,300,300,61,300,61,300,61,61,61,61,61,300,61,61,61,61,61,61,61,61,61,300,300,300,61,61,300,300,300,300,61,300,300,300,300,61,300,300,300,300],"coherence":1,"opposite_coherence":0,"dot_radius":2,"dot_side_length":1,"dot_life":-1,"move_distance":1,"aperture_width":300,"aperture_height":300,"dot_color":["black","black","black","white","white","black","black","white","white","white","white","black","white","white","white","black","white","black","white","black","black","black","black","black","white","white","white","black","black","white","black","black","white","white","white","black","white","black","black","black","black","white","black","black","black","white","white","white","black","white","black","white","black","white","white","black","white","black","white","black","black","white","white","white","black","white","white","black","black","white","white","black","white","black","white","black","white","black","white","white","black","black","black","white","white","black","white","white","black","white","black","black","white","black","white","black","white","white","black","black","black","black","black","black","white","black","black","white","white","white","black","white","white","white","black","black","white","white","black","black","white","black","white","black","black","white","black","white","black","white","black","white","black","black","black","white","white","black","black","white","black","black","white","black","white","white","white","white","black","white","white","white","white","black","black","black","white","white","white","black","black","black","white","black","white","black","white","white","white","white","white","black","white","white","white","white","white","white","white","white","white","black","black","black","white","white","black","black","black","black","white","black","black","black","black","white","black","black","black","black"],"dot_shape":"circle","background_color":"#AAA","RDK_type":3,"aperture_type":2,"reinsert_type":2,"frame_rate":16.710743801652892,"frame_rate_array":[3,16,17,17,17,17,17,17,17,17,17,17,17,17,16,17,16,17,16,17,17,17,17,16,17,17,16,17,17,17,17,17,16,17,17,17,17,17,16,17,16,17,17,17,17,17,17,17,17,17,17,17,17,17,17,17,17,17,17,16,17,17,17,17,17,17,17,17,16,17,17,16,17,17,17,17,16,17,17,17,17,17,16,17,17,17,17,17,17,17,17,17,17,17,17,16,17,17,17,16,16,17,16,17,17,16,17,16,17,17,17,17,17,17,16,17,17,17,17,17,17],"number_of_frames":121,"aperture_center_x":640,"aperture_center_y":360,"fixation_cross":true,"fixation_cross_width":15,"fixation_cross_height":15,"fixation_cross_color":"#111","fixation_cross_thickness":1,"border":true,"border_thickness":2,"border_color":"transparent","canvas_width":1280,"canvas_height":720,"trial_type":"rdk","trial_index":52,"plugin_version":"2.0.0","time_elapsed":118491},{"rt":1724,"stimulus":"\n        <div class=\"response-container\">\n          <div class=\"response-instruction\">\n            <p>rotate the bar by using the left and right arrow keys.</p>\n            <p>when you are determined, press the Enter key.</p>\n          </div>\n          <div class=\"response-circle\">\n            <div class=\"response-fixation\"></div>\n            <div id=\"bar\" class=\"rotating-bar\"></div>\n          </div>\n        </div>\n      ","response":"Enter","trial_type":"html-keyboard-response","trial_index":53,"plugin_version":"2.1.0","time_elapsed":120216,"response_angle_css":172,"response_angle_rdk":278,"angular_error_target":-22,"angular_error_distractor":-143,"target_direction":300,"target_group":"black","reward_points":5},{"rt":null,"stimulus":"\n          <p style=\"color: #00FF00;\">Your reward: 5 points</p>\n        ","response":null,"trial_type":"html-keyboard-response","trial_index":54,"plugin_version":"2.1.0","time_elapsed":122218},{"rt":null,"stimulus":"<div class=\"fixation\" style=\"font-size: 60px;\">+</div>","response":null,"trial_type":"html-keyboard-response","trial_index":55,"plugin_version":"2.1.0","time_elapsed":123223},{"target_group":"black","condition_label":"B_H_vs_W_L_rep23","target_direction":326,"distractor_direction":60,"session_rotation":207,"rt":-1,"response":"","correct":false,"choices":"ALL_KEYS","correct_choice":["a"],"trial_duration":2000,"flip_timestamps":[],"response_ends_trial":false,"number_of_apertures":200,"number_of_dots":[1,1,1,1,1,1,1,1,1,1,1,1,1,1,1,1,1,1,1,1,1,1,1,1,1,1,1,1,1,1,1,1,1,1,1,1,1,1,1,1,1,1,1,1,1,1,1,1,1,1,1,1,1,1,1,1,1,1,1,1,1,1,1,1,1,1,1,1,1,1,1,1,1,1,1,1,1,1,1,1,1,1,1,1,1,1,1,1,1,1,1,1,1,1,1,1,1,1,1,1,1,1,1,1,1,1,1,1,1,1,1,1,1,1,1,1,1,1,1,1,1,1,1,1,1,1,1,1,1,1,1,1,1,1,1,1,1,1,1,1,1,1,1,1,1,1,1,1,1,1,1,1,1,1,1,1,1,1,1,1,1,1,1,1,1,1,1,1,1,1,1,1,1,1,1,1,1,1,1,1,1,1,1,1,1,1,1,1,1,1,1,1,1,1,1,1,1,1,1,1],"number_of_sets":1,"coherent_direction":[60,60,60,60,60,326,326,60,60,60,60,60,326,60,326,326,60,60,326,60,60,60,60,326,60,326,60,60,60,60,326,60,326,326,60,60,60,326,326,326,326,326,60,326,60,60,326,60,326,326,60,326,326,60,60,326,326,60,326,326,326,326,60,60,326,60,60,326,326,60,326,60,326,60,60,60,326,326,326,60,60,60,60,326,60,326,326,60,326,326,326,60,60,60,326,326,60,326,326,60,326,60,326,60,60,326,60,60,60,326,326,326,326,326,60,60,60,326,326,326,60,326,326,326,60,326,60,60,326,60,326,326,60,60,60,60,326,326,60,326,60,326,326,60,326,60,326,60,326,326,326,60,60,326,326,326,60,60,326,326,60,326,60,60,60,326,326,326,326,326,326,60,326,60,326,60,60,326,326,326,60,60,326,60,60,60,60,60,326,326,326,60,60,326,60,326,326,60,326,326],"coherence":1,"opposite_coherence":0,"dot_radius":2,"dot_side_length":1,"dot_life":-1,"move_distance":1,"aperture_width":300,"aperture_height":300,"dot_color":["white","white","white","white","white","black","black","white","white","white","white","white","black","white","black","black","white","white","black","white","white","white","white","black","white","black","white","white","white","white","black","white","black","black","white","white","white","black","black","black","black","black","white","black","white","white","black","white","black","black","white","black","black","white","white","black","black","white","black","black","black","black","white","white","black","white","white","black","black","white","black","white","black","white","white","white","black","black","black","white","white","white","white","black","white","black","black","white","black","black","black","white","white","white","black","black","white","black","black","white","black","white","black","white","white","black","white","white","white","black","black","black","black","black","white","white","white","black","black","black","white","black","black","black","white","black","white","white","black","white","black","black","white","white","white","white","black","black","white","black","white","black","black","white","black","white","black","white","black","black","black","white","white","black","black","black","white","white","black","black","white","black","white","white","white","black","black","black","black","black","black","white","black","white","black","white","white","black","black","black","white","white","black","white","white","white","white","white","black","black","black","white","white","black","white","black","black","white","black","black"],"dot_shape":"circle","background_color":"#AAA","RDK_type":3,"aperture_type":2,"reinsert_type":2,"frame_rate":16.75,"frame_rate_array":[15,16,17,17,17,17,17,17,17,17,16,17,16,17,17,17,16,17,17,16,17,17,17,17,17,17,17,17,17,17,16,16,17,17,17,16,17,17,17,16,17,16,17,16,17,16,17,17,18,16,17,17,17,17,17,16,17,17,17,17,17,17,17,17,17,16,17,17,16,17,17,17,16,17,17,16,17,17,16,17,17,17,17,17,16,17,16,17,17,16,17,17,17,17,16,17,17,16,17,17,17,16,17,16,17,17,16,17,17,17,17,17,17,17,17,16,17,17,17,16],"number_of_frames":120,"aperture_center_x":640,"aperture_center_y":360,"fixation_cross":true,"fixation_cross_width":15,"fixation_cross_height":15,"fixation_cross_color":"#111","fixation_cross_thickness":1,"border":true,"border_thickness":2,"border_color":"transparent","canvas_width":1280,"canvas_height":720,"trial_type":"rdk","trial_index":56,"plugin_version":"2.0.0","time_elapsed":125225},{"rt":3856,"stimulus":"\n        <div class=\"response-container\">\n          <div class=\"response-instruction\">\n            <p>rotate the bar by using the left and right arrow keys.</p>\n            <p>when you are determined, press the Enter key.</p>\n          </div>\n          <div class=\"response-circle\">\n            <div class=\"response-fixation\"></div>\n            <div id=\"bar\" class=\"rotating-bar\"></div>\n          </div>\n        </div>\n      ","response":"Enter","trial_type":"html-keyboard-response","trial_index":57,"plugin_version":"2.1.0","time_elapsed":129081,"response_angle_css":173,"response_angle_rdk":277,"angular_error_target":-49,"angular_error_distractor":-143,"target_direction":326,"target_group":"black","reward_points":0},{"rt":null,"stimulus":"\n          <p style=\"color: #FF3333;\">Your reward: 0 points</p>\n        ","response":null,"trial_type":"html-keyboard-response","trial_index":58,"plugin_version":"2.1.0","time_elapsed":131084},{"rt":null,"stimulus":"<div class=\"fixation\" style=\"font-size: 60px;\">+</div>","response":null,"trial_type":"html-keyboard-response","trial_index":59,"plugin_version":"2.1.0","time_elapsed":132095},{"target_group":"black","condition_label":"B_H_vs_W_L_rep7","target_direction":298,"distractor_direction":34,"session_rotation":207,"rt":-1,"response":"","correct":false,"choices":"ALL_KEYS","correct_choice":["a"],"trial_duration":2000,"flip_timestamps":[],"response_ends_trial":false,"number_of_apertures":200,"number_of_dots":[1,1,1,1,1,1,1,1,1,1,1,1,1,1,1,1,1,1,1,1,1,1,1,1,1,1,1,1,1,1,1,1,1,1,1,1,1,1,1,1,1,1,1,1,1,1,1,1,1,1,1,1,1,1,1,1,1,1,1,1,1,1,1,1,1,1,1,1,1,1,1,1,1,1,1,1,1,1,1,1,1,1,1,1,1,1,1,1,1,1,1,1,1,1,1,1,1,1,1,1,1,1,1,1,1,1,1,1,1,1,1,1,1,1,1,1,1,1,1,1,1,1,1,1,1,1,1,1,1,1,1,1,1,1,1,1,1,1,1,1,1,1,1,1,1,1,1,1,1,1,1,1,1,1,1,1,1,1,1,1,1,1,1,1,1,1,1,1,1,1,1,1,1,1,1,1,1,1,1,1,1,1,1,1,1,1,1,1,1,1,1,1,1,1,1,1,1,1,1,1],"number_of_sets":1,"coherent_direction":[34,34,298,298,298,298,298,298,34,298,34,298,34,34,298,298,298,298,34,34,298,298,34,298,34,34,34,298,34,34,298,34,34,34,34,298,34,298,34,298,34,34,34,34,298,34,34,34,298,34,34,298,298,34,298,298,34,34,298,298,298,34,298,34,34,34,34,298,34,34,34,34,34,34,34,298,34,34,34,34,34,298,298,34,298,34,298,298,298,34,34,298,34,298,298,34,298,298,298,298,298,298,34,34,298,298,298,298,298,34,34,34,298,298,298,298,298,34,34,34,298,298,34,34,34,298,298,298,298,34,34,34,34,34,298,298,298,298,34,298,298,34,34,298,298,298,34,298,34,298,298,34,34,34,298,34,298,34,298,34,298,34,34,298,298,34,34,34,34,298,298,34,34,298,298,298,34,298,34,34,298,34,34,298,298,34,298,298,34,298,298,34,298,298,34,298,298,298,34,298],"coherence":1,"opposite_coherence":0,"dot_radius":2,"dot_side_length":1,"dot_life":-1,"move_distance":1,"aperture_width":300,"aperture_height":300,"dot_color":["white","white","black","black","black","black","black","black","white","black","white","black","white","white","black","black","black","black","white","white","black","black","white","black","white","white","white","black","white","white","black","white","white","white","white","black","white","black","white","black","white","white","white","white","black","white","white","white","black","white","white","black","black","white","black","black","white","white","black","black","black","white","black","white","white","white","white","black","white","white","white","white","white","white","white","black","white","white","white","white","white","black","black","white","black","white","black","black","black","white","white","black","white","black","black","white","black","black","black","black","black","black","white","white","black","black","black","black","black","white","white","white","black","black","black","black","black","white","white","white","black","black","white","white","white","black","black","black","black","white","white","white","white","white","black","black","black","black","white","black","black","white","white","black","black","black","white","black","white","black","black","white","white","white","black","white","black","white","black","white","black","white","white","black","black","white","white","white","white","black","black","white","white","black","black","black","white","black","white","white","black","white","white","black","black","white","black","black","white","black","black","white","black","black","white","black","black","black","white","black"],"dot_shape":"circle","background_color":"#AAA","RDK_type":3,"aperture_type":2,"reinsert_type":2,"frame_rate":16.85123966942149,"frame_rate_array":[10,17,16,17,17,16,17,17,17,17,17,17,17,17,17,17,16,17,17,17,17,16,17,17,17,17,17,17,17,17,17,17,17,17,17,17,17,17,17,17,17,16,17,17,17,17,17,17,17,17,17,17,17,17,17,17,17,17,17,17,17,17,17,17,16,17,17,17,17,17,16,17,16,17,16,17,17,17,17,17,17,17,17,17,17,17,17,17,17,17,17,17,17,17,17,17,17,17,17,17,17,17,17,17,16,17,17,17,17,17,17,17,16,17,17,17,17,17,17,17,17],"number_of_frames":121,"aperture_center_x":640,"aperture_center_y":360,"fixation_cross":true,"fixation_cross_width":15,"fixation_cross_height":15,"fixation_cross_color":"#111","fixation_cross_thickness":1,"border":true,"border_thickness":2,"border_color":"transparent","canvas_width":1280,"canvas_height":720,"trial_type":"rdk","trial_index":60,"plugin_version":"2.0.0","time_elapsed":134108},{"rt":2981,"stimulus":"\n        <div class=\"response-container\">\n          <div class=\"response-instruction\">\n            <p>rotate the bar by using the left and right arrow keys.</p>\n            <p>when you are determined, press the Enter key.</p>\n          </div>\n          <div class=\"response-circle\">\n            <div class=\"response-fixation\"></div>\n            <div id=\"bar\" class=\"rotating-bar\"></div>\n          </div>\n        </div>\n      ","response":"Enter","trial_type":"html-keyboard-response","trial_index":61,"plugin_version":"2.1.0","time_elapsed":137090,"response_angle_css":247,"response_angle_rdk":203,"angular_error_target":-95,"angular_error_distractor":169,"target_direction":298,"target_group":"black","reward_points":0},{"rt":null,"stimulus":"\n          <p style=\"color: #FF3333;\">Your reward: 0 points</p>\n        ","response":null,"trial_type":"html-keyboard-response","trial_index":62,"plugin_version":"2.1.0","time_elapsed":139092},{"rt":null,"stimulus":"<div class=\"fixation\" style=\"font-size: 60px;\">+</div>","response":null,"trial_type":"html-keyboard-response","trial_index":63,"plugin_version":"2.1.0","time_elapsed":140101},{"target_group":"white","condition_label":"W_H_vs_B_L_rep20","target_direction":240,"distractor_direction":134,"session_rotation":207,"rt":-1,"response":"","correct":false,"choices":"ALL_KEYS","correct_choice":["a"],"trial_duration":2000,"flip_timestamps":[],"response_ends_trial":false,"number_of_apertures":200,"number_of_dots":[1,1,1,1,1,1,1,1,1,1,1,1,1,1,1,1,1,1,1,1,1,1,1,1,1,1,1,1,1,1,1,1,1,1,1,1,1,1,1,1,1,1,1,1,1,1,1,1,1,1,1,1,1,1,1,1,1,1,1,1,1,1,1,1,1,1,1,1,1,1,1,1,1,1,1,1,1,1,1,1,1,1,1,1,1,1,1,1,1,1,1,1,1,1,1,1,1,1,1,1,1,1,1,1,1,1,1,1,1,1,1,1,1,1,1,1,1,1,1,1,1,1,1,1,1,1,1,1,1,1,1,1,1,1,1,1,1,1,1,1,1,1,1,1,1,1,1,1,1,1,1,1,1,1,1,1,1,1,1,1,1,1,1,1,1,1,1,1,1,1,1,1,1,1,1,1,1,1,1,1,1,1,1,1,1,1,1,1,1,1,1,1,1,1,1,1,1,1,1,1],"number_of_sets":1,"coherent_direction":[240,240,240,134,240,134,134,134,134,240,134,240,240,134,134,134,240,240,134,240,240,240,134,240,134,240,134,240,240,134,134,134,134,240,134,134,134,134,240,134,240,240,134,240,240,240,240,134,240,134,134,240,240,240,240,134,240,240,240,134,134,240,240,240,134,240,240,134,240,240,134,240,240,240,240,134,240,240,134,134,134,134,134,134,240,134,240,240,240,240,134,134,240,134,134,134,240,134,134,134,134,134,240,134,134,240,134,240,240,134,134,134,134,134,134,240,134,134,240,240,134,134,134,240,134,240,240,240,240,134,240,240,240,134,240,134,240,134,134,134,240,240,240,134,240,134,240,134,134,240,240,134,240,134,240,134,134,134,240,134,240,134,240,134,134,134,240,240,240,240,134,240,134,240,134,240,240,240,134,134,240,240,134,240,134,240,240,240,240,134,134,240,134,240,134,134,134,240,134,134],"coherence":1,"opposite_coherence":0,"dot_radius":2,"dot_side_length":1,"dot_life":-1,"move_distance":1,"aperture_width":300,"aperture_height":300,"dot_color":["white","white","white","black","white","black","black","black","black","white","black","white","white","black","black","black","white","white","black","white","white","white","black","white","black","white","black","white","white","black","black","black","black","white","black","black","black","black","white","black","white","white","black","white","white","white","white","black","white","black","black","white","white","white","white","black","white","white","white","black","black","white","white","white","black","white","white","black","white","white","black","white","white","white","white","black","white","white","black","black","black","black","black","black","white","black","white","white","white","white","black","black","white","black","black","black","white","black","black","black","black","black","white","black","black","white","black","white","white","black","black","black","black","black","black","white","black","black","white","white","black","black","black","white","black","white","white","white","white","black","white","white","white","black","white","black","white","black","black","black","white","white","white","black","white","black","white","black","black","white","white","black","white","black","white","black","black","black","white","black","white","black","white","black","black","black","white","white","white","white","black","white","black","white","black","white","white","white","black","black","white","white","black","white","black","white","white","white","white","black","black","white","black","white","black","black","black","white","black","black"],"dot_shape":"circle","background_color":"#AAA","RDK_type":3,"aperture_type":2,"reinsert_type":2,"frame_rate":16.793388429752067,"frame_rate_array":[6,16,17,17,17,17,17,17,16,17,17,17,17,16,17,17,17,17,17,17,17,17,17,17,17,17,16,17,16,17,17,17,17,17,17,17,17,17,16,17,17,17,17,17,17,17,17,17,17,17,17,17,17,17,17,17,17,17,17,17,17,17,17,17,17,17,17,17,17,16,17,17,17,17,17,17,17,17,17,17,17,17,17,17,17,17,17,17,17,17,16,17,17,16,17,17,16,17,17,17,16,17,17,16,17,17,17,17,17,17,17,17,17,17,16,17,17,17,17,16,17],"number_of_frames":121,"aperture_center_x":640,"aperture_center_y":360,"fixation_cross":true,"fixation_cross_width":15,"fixation_cross_height":15,"fixation_cross_color":"#111","fixation_cross_thickness":1,"border":true,"border_thickness":2,"border_color":"transparent","canvas_width":1280,"canvas_height":720,"trial_type":"rdk","trial_index":64,"plugin_version":"2.0.0","time_elapsed":142109},{"rt":4776,"stimulus":"\n        <div class=\"response-container\">\n          <div class=\"response-instruction\">\n            <p>rotate the bar by using the left and right arrow keys.</p>\n            <p>when you are determined, press the Enter key.</p>\n          </div>\n          <div class=\"response-circle\">\n            <div class=\"response-fixation\"></div>\n            <div id=\"bar\" class=\"rotating-bar\"></div>\n          </div>\n        </div>\n      ","response":"Enter","trial_type":"html-keyboard-response","trial_index":65,"plugin_version":"2.1.0","time_elapsed":146886,"response_angle_css":116,"response_angle_rdk":334,"angular_error_target":94,"angular_error_distractor":-160,"target_direction":240,"target_group":"white","reward_points":0},{"rt":null,"stimulus":"\n          <p style=\"color: #FF3333;\">Your reward: 0 points</p>\n        ","response":null,"trial_type":"html-keyboard-response","trial_index":66,"plugin_version":"2.1.0","time_elapsed":148891},{"rt":null,"stimulus":"<div class=\"fixation\" style=\"font-size: 60px;\">+</div>","response":null,"trial_type":"html-keyboard-response","trial_index":67,"plugin_version":"2.1.0","time_elapsed":149906},{"target_group":"white","condition_label":"W_H_vs_B_L_rep6","target_direction":238,"distractor_direction":127,"session_rotation":207,"rt":-1,"response":"","correct":false,"choices":"ALL_KEYS","correct_choice":["a"],"trial_duration":2000,"flip_timestamps":[],"response_ends_trial":false,"number_of_apertures":200,"number_of_dots":[1,1,1,1,1,1,1,1,1,1,1,1,1,1,1,1,1,1,1,1,1,1,1,1,1,1,1,1,1,1,1,1,1,1,1,1,1,1,1,1,1,1,1,1,1,1,1,1,1,1,1,1,1,1,1,1,1,1,1,1,1,1,1,1,1,1,1,1,1,1,1,1,1,1,1,1,1,1,1,1,1,1,1,1,1,1,1,1,1,1,1,1,1,1,1,1,1,1,1,1,1,1,1,1,1,1,1,1,1,1,1,1,1,1,1,1,1,1,1,1,1,1,1,1,1,1,1,1,1,1,1,1,1,1,1,1,1,1,1,1,1,1,1,1,1,1,1,1,1,1,1,1,1,1,1,1,1,1,1,1,1,1,1,1,1,1,1,1,1,1,1,1,1,1,1,1,1,1,1,1,1,1,1,1,1,1,1,1,1,1,1,1,1,1,1,1,1,1,1,1],"number_of_sets":1,"coherent_direction":[127,238,238,238,127,127,127,127,238,238,238,127,238,238,238,127,127,238,238,238,127,238,127,238,127,127,127,238,238,127,127,238,238,127,127,238,127,127,127,127,238,238,238,238,127,127,238,238,238,238,127,238,127,238,127,238,238,238,238,238,238,238,127,238,127,238,127,238,127,238,127,127,238,238,127,238,127,127,127,238,238,127,127,238,238,127,238,238,238,127,238,127,238,127,238,127,127,238,238,238,127,238,238,238,127,238,127,127,127,238,238,238,238,127,238,238,238,127,238,127,238,238,127,238,238,127,127,238,127,238,238,238,127,127,127,127,127,238,127,127,238,127,127,238,127,127,127,127,127,127,238,127,238,238,238,127,127,127,127,127,127,238,127,238,238,238,127,127,238,127,127,127,127,238,127,127,127,238,127,238,238,127,127,127,238,127,127,238,127,127,238,238,127,238,238,127,238,238,127,127],"coherence":1,"opposite_coherence":0,"dot_radius":2,"dot_side_length":1,"dot_life":-1,"move_distance":1,"aperture_width":300,"aperture_height":300,"dot_color":["black","white","white","white","black","black","black","black","white","white","white","black","white","white","white","black","black","white","white","white","black","white","black","white","black","black","black","white","white","black","black","white","white","black","black","white","black","black","black","black","white","white","white","white","black","black","white","white","white","white","black","white","black","white","black","white","white","white","white","white","white","white","black","white","black","white","black","white","black","white","black","black","white","white","black","white","black","black","black","white","white","black","black","white","white","black","white","white","white","black","white","black","white","black","white","black","black","white","white","white","black","white","white","white","black","white","black","black","black","white","white","white","white","black","white","white","white","black","white","black","white","white","black","white","white","black","black","white","black","white","white","white","black","black","black","black","black","white","black","black","white","black","black","white","black","black","black","black","black","black","white","black","white","white","white","black","black","black","black","black","black","white","black","white","white","white","black","black","white","black","black","black","black","white","black","black","black","white","black","white","white","black","black","black","white","black","black","white","black","black","white","white","black","white","white","black","white","white","black","black"],"dot_shape":"circle","background_color":"#AAA","RDK_type":3,"aperture_type":2,"reinsert_type":2,"frame_rate":16.65289256198347,"frame_rate_array":[2,16,16,17,17,16,17,16,17,17,16,17,17,17,17,16,17,17,17,16,17,17,17,16,17,17,16,17,16,17,17,17,17,16,16,18,16,16,17,16,17,17,17,17,17,16,17,17,17,17,17,17,17,16,17,17,17,17,17,16,17,16,17,17,17,17,17,16,17,17,17,17,17,17,16,17,17,17,17,17,17,17,17,16,17,17,17,17,17,17,17,17,16,17,17,16,17,17,17,16,17,17,17,17,17,17,17,17,17,17,17,17,16,17,16,17,16,17,17,17,17],"number_of_frames":121,"aperture_center_x":640,"aperture_center_y":360,"fixation_cross":true,"fixation_cross_width":15,"fixation_cross_height":15,"fixation_cross_color":"#111","fixation_cross_thickness":1,"border":true,"border_thickness":2,"border_color":"transparent","canvas_width":1280,"canvas_height":720,"trial_type":"rdk","trial_index":68,"plugin_version":"2.0.0","time_elapsed":151910},{"rt":1593,"stimulus":"\n        <div class=\"response-container\">\n          <div class=\"response-instruction\">\n            <p>rotate the bar by using the left and right arrow keys.</p>\n            <p>when you are determined, press the Enter key.</p>\n          </div>\n          <div class=\"response-circle\">\n            <div class=\"response-fixation\"></div>\n            <div id=\"bar\" class=\"rotating-bar\"></div>\n          </div>\n        </div>\n      ","response":"Enter","trial_type":"html-keyboard-response","trial_index":69,"plugin_version":"2.1.0","time_elapsed":153503,"response_angle_css":93,"response_angle_rdk":357,"angular_error_target":119,"angular_error_distractor":-130,"target_direction":238,"target_group":"white","reward_points":0},{"rt":null,"stimulus":"\n          <p style=\"color: #FF3333;\">Your reward: 0 points</p>\n        ","response":null,"trial_type":"html-keyboard-response","trial_index":70,"plugin_version":"2.1.0","time_elapsed":155518},{"rt":null,"stimulus":"<div class=\"fixation\" style=\"font-size: 60px;\">+</div>","response":null,"trial_type":"html-keyboard-response","trial_index":71,"plugin_version":"2.1.0","time_elapsed":156527},{"target_group":"black","condition_label":"B_H_vs_W_L_rep1","target_direction":306,"distractor_direction":60,"session_rotation":207,"rt":-1,"response":"","correct":false,"choices":"ALL_KEYS","correct_choice":["a"],"trial_duration":2000,"flip_timestamps":[],"response_ends_trial":false,"number_of_apertures":200,"number_of_dots":[1,1,1,1,1,1,1,1,1,1,1,1,1,1,1,1,1,1,1,1,1,1,1,1,1,1,1,1,1,1,1,1,1,1,1,1,1,1,1,1,1,1,1,1,1,1,1,1,1,1,1,1,1,1,1,1,1,1,1,1,1,1,1,1,1,1,1,1,1,1,1,1,1,1,1,1,1,1,1,1,1,1,1,1,1,1,1,1,1,1,1,1,1,1,1,1,1,1,1,1,1,1,1,1,1,1,1,1,1,1,1,1,1,1,1,1,1,1,1,1,1,1,1,1,1,1,1,1,1,1,1,1,1,1,1,1,1,1,1,1,1,1,1,1,1,1,1,1,1,1,1,1,1,1,1,1,1,1,1,1,1,1,1,1,1,1,1,1,1,1,1,1,1,1,1,1,1,1,1,1,1,1,1,1,1,1,1,1,1,1,1,1,1,1,1,1,1,1,1,1],"number_of_sets":1,"coherent_direction":[306,60,60,60,306,306,306,60,306,60,60,60,306,60,306,60,306,306,306,306,60,306,60,60,60,306,60,60,60,306,60,306,306,306,306,60,306,306,60,60,60,60,60,306,306,306,306,306,306,60,60,306,306,306,60,60,60,306,306,306,306,306,60,306,60,60,306,306,60,60,60,306,60,60,306,60,306,60,60,306,306,60,60,306,60,306,306,306,306,306,306,60,306,306,60,306,306,60,306,306,306,306,60,306,60,306,60,306,306,306,306,60,60,60,60,60,306,306,306,60,60,60,306,60,306,60,306,306,60,60,60,60,60,60,60,60,306,60,306,60,60,60,306,60,60,306,60,60,306,60,306,306,60,60,60,306,306,306,60,306,306,60,60,306,60,60,306,60,60,60,60,306,60,306,306,306,60,60,60,306,60,60,306,60,306,60,60,60,306,306,306,306,306,306,60,60,306,306,306,60],"coherence":1,"opposite_coherence":0,"dot_radius":2,"dot_side_length":1,"dot_life":-1,"move_distance":1,"aperture_width":300,"aperture_height":300,"dot_color":["black","white","white","white","black","black","black","white","black","white","white","white","black","white","black","white","black","black","black","black","white","black","white","white","white","black","white","white","white","black","white","black","black","black","black","white","black","black","white","white","white","white","white","black","black","black","black","black","black","white","white","black","black","black","white","white","white","black","black","black","black","black","white","black","white","white","black","black","white","white","white","black","white","white","black","white","black","white","white","black","black","white","white","black","white","black","black","black","black","black","black","white","black","black","white","black","black","white","black","black","black","black","white","black","white","black","white","black","black","black","black","white","white","white","white","white","black","black","black","white","white","white","black","white","black","white","black","black","white","white","white","white","white","white","white","white","black","white","black","white","white","white","black","white","white","black","white","white","black","white","black","black","white","white","white","black","black","black","white","black","black","white","white","black","white","white","black","white","white","white","white","black","white","black","black","black","white","white","white","black","white","white","black","white","black","white","white","white","black","black","black","black","black","black","white","white","black","black","black","white"],"dot_shape":"circle","background_color":"#AAA","RDK_type":3,"aperture_type":2,"reinsert_type":2,"frame_rate":16.858333333333334,"frame_rate_array":[13,17,16,17,17,17,17,17,16,17,17,17,17,17,17,17,17,17,17,17,17,17,17,17,17,17,17,17,17,17,17,17,16,17,17,17,17,17,17,17,17,17,17,16,17,17,17,17,17,17,17,17,17,17,17,17,16,17,17,17,17,17,17,17,17,17,17,17,17,17,17,17,16,17,17,16,17,16,17,17,17,17,17,17,16,17,17,17,17,17,16,17,17,17,17,17,16,17,17,17,17,17,17,16,17,17,17,17,17,17,17,16,17,17,17,17,17,17,17,17],"number_of_frames":120,"aperture_center_x":640,"aperture_center_y":360,"fixation_cross":true,"fixation_cross_width":15,"fixation_cross_height":15,"fixation_cross_color":"#111","fixation_cross_thickness":1,"border":true,"border_thickness":2,"border_color":"transparent","canvas_width":1280,"canvas_height":720,"trial_type":"rdk","trial_index":72,"plugin_version":"2.0.0","time_elapsed":158542},{"rt":2724,"stimulus":"\n        <div class=\"response-container\">\n          <div class=\"response-instruction\">\n            <p>rotate the bar by using the left and right arrow keys.</p>\n            <p>when you are determined, press the Enter key.</p>\n          </div>\n          <div class=\"response-circle\">\n            <div class=\"response-fixation\"></div>\n            <div id=\"bar\" class=\"rotating-bar\"></div>\n          </div>\n        </div>\n      ","response":"Enter","trial_type":"html-keyboard-response","trial_index":73,"plugin_version":"2.1.0","time_elapsed":161267,"response_angle_css":189,"response_angle_rdk":261,"angular_error_target":-45,"angular_error_distractor":-159,"target_direction":306,"target_group":"black","reward_points":0},{"rt":null,"stimulus":"\n          <p style=\"color: #FF3333;\">Your reward: 0 points</p>\n        ","response":null,"trial_type":"html-keyboard-response","trial_index":74,"plugin_version":"2.1.0","time_elapsed":163270},{"rt":null,"stimulus":"<div class=\"fixation\" style=\"font-size: 60px;\">+</div>","response":null,"trial_type":"html-keyboard-response","trial_index":75,"plugin_version":"2.1.0","time_elapsed":164287},{"target_group":"white","condition_label":"W_H_vs_B_L_rep13","target_direction":221,"distractor_direction":129,"session_rotation":207,"rt":-1,"response":"","correct":false,"choices":"ALL_KEYS","correct_choice":["a"],"trial_duration":2000,"flip_timestamps":[],"response_ends_trial":false,"number_of_apertures":200,"number_of_dots":[1,1,1,1,1,1,1,1,1,1,1,1,1,1,1,1,1,1,1,1,1,1,1,1,1,1,1,1,1,1,1,1,1,1,1,1,1,1,1,1,1,1,1,1,1,1,1,1,1,1,1,1,1,1,1,1,1,1,1,1,1,1,1,1,1,1,1,1,1,1,1,1,1,1,1,1,1,1,1,1,1,1,1,1,1,1,1,1,1,1,1,1,1,1,1,1,1,1,1,1,1,1,1,1,1,1,1,1,1,1,1,1,1,1,1,1,1,1,1,1,1,1,1,1,1,1,1,1,1,1,1,1,1,1,1,1,1,1,1,1,1,1,1,1,1,1,1,1,1,1,1,1,1,1,1,1,1,1,1,1,1,1,1,1,1,1,1,1,1,1,1,1,1,1,1,1,1,1,1,1,1,1,1,1,1,1,1,1,1,1,1,1,1,1,1,1,1,1,1,1],"number_of_sets":1,"coherent_direction":[221,221,129,221,129,129,221,129,221,129,129,221,129,221,129,129,129,129,221,221,221,221,221,221,221,221,221,221,129,129,129,221,129,129,129,129,221,221,129,221,221,129,129,221,129,129,129,221,129,221,221,221,129,129,129,129,129,129,221,221,221,129,221,221,221,129,129,221,221,221,221,129,221,129,221,129,129,129,129,129,221,129,221,129,129,129,221,221,129,221,221,221,129,221,221,129,129,129,221,129,129,221,129,221,221,221,221,221,221,221,221,129,221,221,129,221,221,129,129,221,129,129,129,129,129,129,221,221,221,129,129,221,221,129,221,129,129,221,221,221,129,129,129,129,129,129,221,221,129,221,221,129,129,129,129,221,129,221,129,129,129,221,221,221,129,129,221,129,129,221,129,129,221,221,221,129,221,221,221,221,129,129,129,129,221,221,129,221,221,129,221,129,221,129,129,221,221,221,221,129],"coherence":1,"opposite_coherence":0,"dot_radius":2,"dot_side_length":1,"dot_life":-1,"move_distance":1,"aperture_width":300,"aperture_height":300,"dot_color":["white","white","black","white","black","black","white","black","white","black","black","white","black","white","black","black","black","black","white","white","white","white","white","white","white","white","white","white","black","black","black","white","black","black","black","black","white","white","black","white","white","black","black","white","black","black","black","white","black","white","white","white","black","black","black","black","black","black","white","white","white","black","white","white","white","black","black","white","white","white","white","black","white","black","white","black","black","black","black","black","white","black","white","black","black","black","white","white","black","white","white","white","black","white","white","black","black","black","white","black","black","white","black","white","white","white","white","white","white","white","white","black","white","white","black","white","white","black","black","white","black","black","black","black","black","black","white","white","white","black","black","white","white","black","white","black","black","white","white","white","black","black","black","black","black","black","white","white","black","white","white","black","black","black","black","white","black","white","black","black","black","white","white","white","black","black","white","black","black","white","black","black","white","white","white","black","white","white","white","white","black","black","black","black","white","white","black","white","white","black","white","black","white","black","black","white","white","white","white","black"],"dot_shape":"circle","background_color":"#AAA","RDK_type":3,"aperture_type":2,"reinsert_type":2,"frame_rate":16.644628099173552,"frame_rate_array":[4,17,17,17,17,17,17,16,17,17,17,16,17,16,17,17,17,17,17,16,17,17,16,17,17,17,17,17,17,17,16,17,17,17,17,17,17,16,17,17,16,17,16,17,16,18,16,16,17,17,16,17,16,17,17,17,17,17,16,17,16,18,15,17,17,17,16,17,17,16,18,16,17,17,17,17,17,17,17,17,17,17,17,17,16,17,17,16,17,17,17,16,17,16,17,17,16,17,17,17,16,17,17,17,17,17,17,17,16,16,17,17,16,17,17,16,17,16,17,16,17],"number_of_frames":121,"aperture_center_x":640,"aperture_center_y":360,"fixation_cross":true,"fixation_cross_width":15,"fixation_cross_height":15,"fixation_cross_color":"#111","fixation_cross_thickness":1,"border":true,"border_thickness":2,"border_color":"transparent","canvas_width":1280,"canvas_height":720,"trial_type":"rdk","trial_index":76,"plugin_version":"2.0.0","time_elapsed":166295},{"rt":2497,"stimulus":"\n        <div class=\"response-container\">\n          <div class=\"response-instruction\">\n            <p>rotate the bar by using the left and right arrow keys.</p>\n            <p>when you are determined, press the Enter key.</p>\n          </div>\n          <div class=\"response-circle\">\n            <div class=\"response-fixation\"></div>\n            <div id=\"bar\" class=\"rotating-bar\"></div>\n          </div>\n        </div>\n      ","response":"Enter","trial_type":"html-keyboard-response","trial_index":77,"plugin_version":"2.1.0","time_elapsed":168793,"response_angle_css":393,"response_angle_rdk":57,"angular_error_target":-164,"angular_error_distractor":-72,"target_direction":221,"target_group":"white","reward_points":0},{"rt":null,"stimulus":"\n          <p style=\"color: #FF3333;\">Your reward: 0 points</p>\n        ","response":null,"trial_type":"html-keyboard-response","trial_index":78,"plugin_version":"2.1.0","time_elapsed":170808},{"rt":null,"stimulus":"<div class=\"fixation\" style=\"font-size: 60px;\">+</div>","response":null,"trial_type":"html-keyboard-response","trial_index":79,"plugin_version":"2.1.0","time_elapsed":171813},{"target_group":"black","condition_label":"B_H_vs_W_L_rep24","target_direction":321,"distractor_direction":68,"session_rotation":207,"rt":1901,"response":"ArrowRight","correct":false,"choices":"ALL_KEYS","correct_choice":["a"],"trial_duration":2000,"flip_timestamps":[],"response_ends_trial":false,"number_of_apertures":200,"number_of_dots":[1,1,1,1,1,1,1,1,1,1,1,1,1,1,1,1,1,1,1,1,1,1,1,1,1,1,1,1,1,1,1,1,1,1,1,1,1,1,1,1,1,1,1,1,1,1,1,1,1,1,1,1,1,1,1,1,1,1,1,1,1,1,1,1,1,1,1,1,1,1,1,1,1,1,1,1,1,1,1,1,1,1,1,1,1,1,1,1,1,1,1,1,1,1,1,1,1,1,1,1,1,1,1,1,1,1,1,1,1,1,1,1,1,1,1,1,1,1,1,1,1,1,1,1,1,1,1,1,1,1,1,1,1,1,1,1,1,1,1,1,1,1,1,1,1,1,1,1,1,1,1,1,1,1,1,1,1,1,1,1,1,1,1,1,1,1,1,1,1,1,1,1,1,1,1,1,1,1,1,1,1,1,1,1,1,1,1,1,1,1,1,1,1,1,1,1,1,1,1,1],"number_of_sets":1,"coherent_direction":[321,321,321,321,68,68,68,68,68,321,68,321,68,68,321,68,321,321,321,68,321,68,321,321,68,321,68,68,68,68,68,68,68,68,321,68,321,321,321,321,68,321,68,68,321,68,68,68,68,68,68,68,68,321,321,321,321,68,321,321,68,68,68,321,68,321,321,68,68,321,68,68,68,68,321,321,321,321,321,321,68,321,68,68,321,321,68,321,68,321,68,68,321,321,321,68,321,321,68,68,321,68,68,68,321,68,321,321,321,68,321,321,321,68,68,68,68,321,68,321,68,68,68,321,321,68,68,68,321,321,68,68,68,321,321,321,68,68,68,68,321,68,68,321,321,321,321,321,68,321,68,321,321,68,68,321,321,321,321,68,321,68,321,321,68,68,321,321,321,321,68,68,68,321,321,321,68,321,321,321,321,68,321,68,321,68,321,321,321,68,68,321,68,321,321,68,321,68,68,68],"coherence":1,"opposite_coherence":0,"dot_radius":2,"dot_side_length":1,"dot_life":-1,"move_distance":1,"aperture_width":300,"aperture_height":300,"dot_color":["black","black","black","black","white","white","white","white","white","black","white","black","white","white","black","white","black","black","black","white","black","white","black","black","white","black","white","white","white","white","white","white","white","white","black","white","black","black","black","black","white","black","white","white","black","white","white","white","white","white","white","white","white","black","black","black","black","white","black","black","white","white","white","black","white","black","black","white","white","black","white","white","white","white","black","black","black","black","black","black","white","black","white","white","black","black","white","black","white","black","white","white","black","black","black","white","black","black","white","white","black","white","white","white","black","white","black","black","black","white","black","black","black","white","white","white","white","black","white","black","white","white","white","black","black","white","white","white","black","black","white","white","white","black","black","black","white","white","white","white","black","white","white","black","black","black","black","black","white","black","white","blac