[{"rt":15567,"stimulus":"Welcome to the experiment. Press any key to begin.","response":"M","trial_type":"html-keyboard-response","trial_index":0,"plugin_version":"2.1.0","time_elapsed":15576},{"rt":377659,"stimulus":"\n        <div class=\"instructions-container\">\n          <h2>Instructions</h2>\n\n          <p>\n          In this experiment, you will see <strong>two Random Dot Kinematograms (RDKs)</strong> displayed simultaneously.\n          </p>\n\n          <p>\n          An RDK is a visual stimulus consisting of many small dots that move coherently in a single direction. \n          In this experiment, the dots will be either <strong>white</strong> or <strong>black</strong> \n          (see the short demo below for an example of an RDK stimulus).\n          </p>\n\n          <p>\n          On each trial, the two RDKs will move in different directions. \n          Your task is to decide <strong>which RDK appears to contain more dots</strong>.\n          </p>\n\n          <p>\n          The RDK that you judge to have more dots is called the <strong>target RDK</strong>. \n          For example, if the white RDK appears to have more dots than the black RDK, \n          you should report the motion direction of the white RDK.\n          </p>\n\n          <p>\n          After viewing the RDKs, you will rotate a bar to indicate the perceived direction of the target RDK \n          using the <strong>left</strong> and <strong>right arrow keys</strong>. \n          Press <strong>Enter</strong> when you are satisfied with your response.\n          </p>\n\n          <p>\n          You will receive points based on the <strong>accuracy of your response</strong>, \n          and your final <strong>bonus reward</strong> may depend on your overall performance. \n          Please try to respond as accurately as possible.\n          </p>\n\n          <p>\n          You will first complete <strong>three practice trials</strong>. \n          Press the <strong>Enter</strong> key to start the practice phase.\n          </p>\n\n          <canvas id=\"instruction-demo-rdk\" width=\"300\" height=\"300\"style=\"display:block;margin:12px auto; border-radius: 50%;\"></canvas>\n        </div>\n      ","response":"Enter","trial_type":"html-keyboard-response","trial_index":1,"plugin_version":"2.1.0","time_elapsed":393313},{"rt":null,"stimulus":"<div class=\"fixation\" style=\"font-size: 60px;\">+</div>","response":null,"trial_type":"html-keyboard-response","trial_index":2,"plugin_version":"2.1.0","time_elapsed":394322},{"target_group":"black","target_index":1,"condition_label":"B_H_vs_W_L","rt":-1,"response":"","correct":false,"choices":"ALL_KEYS","correct_choice":["a"],"trial_duration":2000,"flip_timestamps":[],"response_ends_trial":false,"number_of_apertures":2,"number_of_dots":[50,100],"number_of_sets":1,"coherent_direction":[10,100],"coherence":1,"opposite_coherence":0,"dot_radius":2,"dot_side_length":1,"dot_life":-1,"move_distance":1,"aperture_width":300,"aperture_height":300,"dot_color":["white","black"],"dot_shape":"circle","background_color":"#AAA","RDK_type":3,"aperture_type":2,"reinsert_type":2,"frame_rate":16.683333333333334,"frame_rate_array":[4,29,2,14,17,17,17,16,17,17,17,17,16,17,17,17,17,17,17,16,17,17,17,17,17,16,17,17,16,17,17,17,17,17,17,18,16,17,17,17,17,17,17,17,16,17,17,17,20,13,16,17,17,16,17,17,17,17,16,17,17,17,16,17,16,17,17,17,17,17,17,17,16,17,17,17,17,17,17,17,17,17,17,17,17,17,17,17,17,17,17,17,16,17,17,16,17,17,17,17,17,17,17,17,17,17,17,17,19,14,16,17,17,16,17,17,17,17,17,16],"number_of_frames":120,"aperture_center_x":640,"aperture_center_y":360,"fixation_cross":true,"fixation_cross_width":15,"fixation_cross_height":15,"fixation_cross_color":"#111","fixation_cross_thickness":1,"border":true,"border_thickness":2,"border_color":"transparent","canvas_width":1280,"canvas_height":720,"trial_type":"rdk","trial_index":3,"plugin_version":"2.0.0","time_elapsed":396339,"target_direction":100,"distractor_direction":10},{"rt":13730,"stimulus":"\n        <div class=\"response-container\">\n          <div class=\"response-instruction\">\n            <p>rotate the bar by using the left and right arrow keys.</p>\n            <p>when you are determined, press the Enter key.</p>\n          </div>\n          <div class=\"response-circle\">\n            <div class=\"response-fixation\"></div>\n            <div id=\"bar\" class=\"rotating-bar\"></div>\n          </div>\n        </div>\n      ","response":"Enter","trial_type":"html-keyboard-response","trial_index":4,"plugin_version":"2.1.0","time_elapsed":410070,"response_angle_css":-62,"response_angle_rdk":152,"angular_error_target":52,"angular_error_distractor":142,"target_direction":100,"target_group":"black","reward_points":0},{"rt":null,"stimulus":"\n          <p style=\"color: #FF3333;\">Your reward: 0 points</p>\n        ","response":null,"trial_type":"html-keyboard-response","trial_index":5,"plugin_version":"2.1.0","time_elapsed":412089},{"rt":null,"stimulus":"<div class=\"fixation\" style=\"font-size: 60px;\">+</div>","response":null,"trial_type":"html-keyboard-response","trial_index":6,"plugin_version":"2.1.0","time_elapsed":413093},{"target_group":"white","target_index":0,"condition_label":"W_H_vs_B_L","rt":-1,"response":"","correct":false,"choices":"ALL_KEYS","correct_choice":["a"],"trial_duration":2000,"flip_timestamps":[],"response_ends_trial":false,"number_of_apertures":2,"number_of_dots":[100,50],"number_of_sets":1,"coherent_direction":[150,30],"coherence":1,"opposite_coherence":0,"dot_radius":2,"dot_side_length":1,"dot_life":-1,"move_distance":1,"aperture_width":300,"aperture_height":300,"dot_color":["white","black"],"dot_shape":"circle","background_color":"#AAA","RDK_type":3,"aperture_type":2,"reinsert_type":2,"frame_rate":16.644628099173552,"frame_rate_array":[8,5,16,17,17,17,17,17,17,17,17,17,16,17,17,17,17,17,17,17,17,16,17,17,16,17,17,17,17,17,17,17,17,17,17,17,16,17,16,17,16,17,17,19,15,15,17,17,17,16,17,17,17,17,17,17,17,17,17,17,17,17,16,16,17,17,17,17,17,17,17,17,17,17,17,16,17,17,17,17,17,17,16,17,17,17,16,16,17,17,17,17,17,17,17,17,17,17,17,17,17,17,17,17,17,19,14,17,17,17,16,17,17,15,17,16,17,17,17,16,17],"number_of_frames":121,"aperture_center_x":640,"aperture_center_y":360,"fixation_cross":true,"fixation_cross_width":15,"fixation_cross_height":15,"fixation_cross_color":"#111","fixation_cross_thickness":1,"border":true,"border_thickness":2,"border_color":"transparent","canvas_width":1280,"canvas_height":720,"trial_type":"rdk","trial_index":7,"plugin_version":"2.0.0","time_elapsed":415115,"target_direction":150,"distractor_direction":30},{"rt":10926,"stimulus":"\n        <div class=\"response-container\">\n          <div class=\"response-instruction\">\n            <p>rotate the bar by using the left and right arrow keys.</p>\n            <p>when you are determined, press the Enter key.</p>\n          </div>\n          <div class=\"response-circle\">\n            <div class=\"response-fixation\"></div>\n            <div id=\"bar\" class=\"rotating-bar\"></div>\n          </div>\n        </div>\n      ","response":"Enter","trial_type":"html-keyboard-response","trial_index":8,"plugin_version":"2.1.0","time_elapsed":426043,"response_angle_css":289,"response_angle_rdk":161,"angular_error_target":11,"angular_error_distractor":131,"target_direction":150,"target_group":"white","reward_points":7},{"rt":null,"stimulus":"\n          <p style=\"color: #00FF00;\">Your reward: 7 points</p>\n        ","response":null,"trial_type":"html-keyboard-response","trial_index":9,"plugin_version":"2.1.0","time_elapsed":428060},{"rt":null,"stimulus":"<div class=\"fixation\" style=\"font-size: 60px;\">+</div>","response":null,"trial_type":"html-keyboard-response","trial_index":10,"plugin_version":"2.1.0","time_elapsed":429067},{"target_group":"black","target_index":1,"condition_label":"B_H_vs_W_L","rt":-1,"response":"","correct":false,"choices":"ALL_KEYS","correct_choice":["a"],"trial_duration":2000,"flip_timestamps":[],"response_ends_trial":false,"number_of_apertures":2,"number_of_dots":[50,100],"number_of_sets":1,"coherent_direction":[270,180],"coherence":1,"opposite_coherence":0,"dot_radius":2,"dot_side_length":1,"dot_life":-1,"move_distance":1,"aperture_width":300,"aperture_height":300,"dot_color":["white","black"],"dot_shape":"circle","background_color":"#AAA","RDK_type":3,"aperture_type":2,"reinsert_type":2,"frame_rate":16.733333333333334,"frame_rate_array":[9,11,16,16,17,17,16,18,16,17,17,17,17,16,17,17,17,16,17,17,17,17,17,17,16,17,16,17,17,17,16,17,17,17,17,17,17,17,17,17,17,17,17,17,17,17,16,17,16,17,17,21,12,17,17,17,17,17,17,17,17,18,15,17,17,17,16,17,17,17,17,17,16,17,17,17,17,17,17,17,17,17,17,17,17,16,17,17,16,17,17,17,17,17,17,17,17,17,17,17,17,17,17,17,17,17,17,17,17,17,17,19,14,17,17,18,16,16,17,17],"number_of_frames":120,"aperture_center_x":640,"aperture_center_y":360,"fixation_cross":true,"fixation_cross_width":15,"fixation_cross_height":15,"fixation_cross_color":"#111","fixation_cross_thickness":1,"border":true,"border_thickness":2,"border_color":"transparent","canvas_width":1280,"canvas_height":720,"trial_type":"rdk","trial_index":11,"plugin_version":"2.0.0","time_elapsed":431076,"target_direction":180,"distractor_direction":270},{"rt":8353,"stimulus":"\n        <div class=\"response-container\">\n          <div class=\"response-instruction\">\n            <p>rotate the bar by using the left and right arrow keys.</p>\n            <p>when you are determined, press the Enter key.</p>\n          </div>\n          <div class=\"response-circle\">\n            <div class=\"response-fixation\"></div>\n            <div id=\"bar\" class=\"rotating-bar\"></div>\n          </div>\n        </div>\n      ","response":"Enter","trial_type":"html-keyboard-response","trial_index":12,"plugin_version":"2.1.0","time_elapsed":439430,"response_angle_css":265,"response_angle_rdk":185,"angular_error_target":5,"angular_error_distractor":-85,"target_direction":180,"target_group":"black","reward_points":9},{"rt":null,"stimulus":"\n          <p style=\"color: #00FF00;\">Your reward: 9 points</p>\n        ","response":null,"trial_type":"html-keyboard-response","trial_index":13,"plugin_version":"2.1.0","time_elapsed":441443},{"rt":5261,"stimulus":"\n        <div class=\"instructions-container\">\n          <h2>End of Practice</h2>\n          <p>You have completed the practice trials.</p>\n          <p>Press <strong>Enter</strong> key to begin the main experiment.</p>\n        </div>\n      ","response":"Enter","trial_type":"html-keyboard-response","trial_index":14,"plugin_version":"2.1.0","time_elapsed":446706},{"rt":null,"stimulus":"<div class=\"fixation\" style=\"font-size: 60px;\">+</div>","response":null,"trial_type":"html-keyboard-response","trial_index":15,"plugin_version":"2.1.0","time_elapsed":447714},{"target_group":"black","condition_label":"B_H_vs_W_L_rep2","target_direction":258,"distractor_direction":3,"session_rotation":153,"rt":-1,"response":"","correct":false,"choices":"ALL_KEYS","correct_choice":["a"],"trial_duration":2000,"flip_timestamps":[],"response_ends_trial":false,"number_of_apertures":200,"number_of_dots":[1,1,1,1,1,1,1,1,1,1,1,1,1,1,1,1,1,1,1,1,1,1,1,1,1,1,1,1,1,1,1,1,1,1,1,1,1,1,1,1,1,1,1,1,1,1,1,1,1,1,1,1,1,1,1,1,1,1,1,1,1,1,1,1,1,1,1,1,1,1,1,1,1,1,1,1,1,1,1,1,1,1,1,1,1,1,1,1,1,1,1,1,1,1,1,1,1,1,1,1,1,1,1,1,1,1,1,1,1,1,1,1,1,1,1,1,1,1,1,1,1,1,1,1,1,1,1,1,1,1,1,1,1,1,1,1,1,1,1,1,1,1,1,1,1,1,1,1,1,1,1,1,1,1,1,1,1,1,1,1,1,1,1,1,1,1,1,1,1,1,1,1,1,1,1,1,1,1,1,1,1,1,1,1,1,1,1,1,1,1,1,1,1,1,1,1,1,1,1,1],"number_of_sets":1,"coherent_direction":[3,3,258,258,258,3,258,3,258,3,258,258,3,3,258,3,258,258,3,3,3,3,3,3,258,258,3,3,3,3,3,258,3,3,3,258,3,3,3,258,3,258,258,258,258,3,258,3,3,258,3,3,3,3,3,258,258,258,3,3,258,258,258,3,258,3,258,258,258,258,3,3,3,3,258,3,3,258,258,3,3,3,258,258,258,258,3,258,3,258,258,3,258,3,258,258,258,258,258,3,3,3,258,258,3,258,3,258,258,3,258,258,3,3,3,3,258,258,3,258,258,258,258,3,258,3,3,3,3,3,3,3,258,3,3,3,258,3,3,258,258,258,258,258,258,258,258,258,3,3,3,3,3,3,258,258,258,258,258,258,3,258,3,258,3,258,258,3,258,258,3,3,3,3,3,258,258,258,258,258,3,258,3,3,258,258,258,258,258,3,3,258,258,258,3,258,3,3,3,3],"coherence":1,"opposite_coherence":0,"dot_radius":2,"dot_side_length":1,"dot_life":-1,"move_distance":1,"aperture_width":300,"aperture_height":300,"dot_color":["white","white","black","black","black","white","black","white","black","white","black","black","white","white","black","white","black","black","white","white","white","white","white","white","black","black","white","white","white","white","white","black","white","white","white","black","white","white","white","black","white","black","black","black","black","white","black","white","white","black","white","white","white","white","white","black","black","black","white","white","black","black","black","white","black","white","black","black","black","black","white","white","white","white","black","white","white","black","black","white","white","white","black","black","black","black","white","black","white","black","black","white","black","white","black","black","black","black","black","white","white","white","black","black","white","black","white","black","black","white","black","black","white","white","white","white","black","black","white","black","black","black","black","white","black","white","white","white","white","white","white","white","black","white","white","white","black","white","white","black","black","black","black","black","black","black","black","black","white","white","white","white","white","white","black","black","black","black","black","black","white","black","white","black","white","black","black","white","black","black","white","white","white","white","white","black","black","black","black","black","white","black","white","white","black","black","black","black","black","white","white","black","black","black","white","black","white","white","white","white"],"dot_shape":"circle","background_color":"#AAA","RDK_type":3,"aperture_type":2,"reinsert_type":2,"frame_rate":16.708333333333332,"frame_rate_array":[4,14,17,16,17,17,17,27,7,17,17,16,17,16,17,18,15,17,17,16,17,17,16,17,16,17,17,17,16,17,16,17,17,17,17,17,17,17,16,18,16,17,16,17,16,17,17,17,17,17,17,17,17,17,17,17,17,17,16,17,17,17,16,17,17,17,17,23,10,17,17,17,17,17,17,17,17,17,17,17,17,17,16,17,17,17,17,17,17,17,17,17,17,17,17,17,17,17,17,17,17,16,17,17,17,17,17,17,17,17,16,17,17,17,17,17,17,17,17,16],"number_of_frames":120,"aperture_center_x":640,"aperture_center_y":360,"fixation_cross":true,"fixation_cross_width":15,"fixation_cross_height":15,"fixation_cross_color":"#111","fixation_cross_thickness":1,"border":true,"border_thickness":2,"border_color":"transparent","canvas_width":1280,"canvas_height":720,"trial_type":"rdk","trial_index":16,"plugin_version":"2.0.0","time_elapsed":449730},{"rt":4163,"stimulus":"\n        <div class=\"response-container\">\n          <div class=\"response-instruction\">\n            <p>rotate the bar by using the left and right arrow keys.</p>\n            <p>when you are determined, press the Enter key.</p>\n          </div>\n          <div class=\"response-circle\">\n            <div class=\"response-fixation\"></div>\n            <div id=\"bar\" class=\"rotating-bar\"></div>\n          </div>\n        </div>\n      ","response":"Enter","trial_type":"html-keyboard-response","trial_index":17,"plugin_version":"2.1.0","time_elapsed":453895,"response_angle_css":229,"response_angle_rdk":221,"angular_error_target":-37,"angular_error_distractor":-142,"target_direction":258,"target_group":"black","reward_points":2},{"rt":null,"stimulus":"\n          <p style=\"color: #FF3333;\">Your reward: 2 points</p>\n        ","response":null,"trial_type":"html-keyboard-response","trial_index":18,"plugin_version":"2.1.0","time_elapsed":455903},{"rt":null,"stimulus":"<div class=\"fixation\" style=\"font-size: 60px;\">+</div>","response":null,"trial_type":"html-keyboard-response","trial_index":19,"plugin_version":"2.1.0","time_elapsed":456910},{"target_group":"white","condition_label":"W_H_vs_B_L_rep22","target_direction":183,"distractor_direction":66,"session_rotation":153,"rt":-1,"response":"","correct":false,"choices":"ALL_KEYS","correct_choice":["a"],"trial_duration":2000,"flip_timestamps":[],"response_ends_trial":false,"number_of_apertures":200,"number_of_dots":[1,1,1,1,1,1,1,1,1,1,1,1,1,1,1,1,1,1,1,1,1,1,1,1,1,1,1,1,1,1,1,1,1,1,1,1,1,1,1,1,1,1,1,1,1,1,1,1,1,1,1,1,1,1,1,1,1,1,1,1,1,1,1,1,1,1,1,1,1,1,1,1,1,1,1,1,1,1,1,1,1,1,1,1,1,1,1,1,1,1,1,1,1,1,1,1,1,1,1,1,1,1,1,1,1,1,1,1,1,1,1,1,1,1,1,1,1,1,1,1,1,1,1,1,1,1,1,1,1,1,1,1,1,1,1,1,1,1,1,1,1,1,1,1,1,1,1,1,1,1,1,1,1,1,1,1,1,1,1,1,1,1,1,1,1,1,1,1,1,1,1,1,1,1,1,1,1,1,1,1,1,1,1,1,1,1,1,1,1,1,1,1,1,1,1,1,1,1,1,1],"number_of_sets":1,"coherent_direction":[183,183,66,66,66,183,66,66,66,183,66,66,183,66,183,66,183,66,66,183,66,183,183,183,183,66,66,183,66,183,66,183,183,183,183,66,183,66,66,66,66,66,183,66,66,66,66,66,183,183,66,183,183,183,66,66,66,66,66,183,183,66,66,183,183,66,66,183,66,66,183,183,66,66,66,66,183,183,183,183,183,66,66,183,66,183,183,66,183,183,66,66,66,66,66,183,183,66,66,183,66,183,183,183,66,66,66,66,183,66,183,183,183,183,66,66,183,183,66,183,183,183,66,66,183,66,66,183,183,66,183,66,66,66,66,183,183,183,66,183,66,183,183,183,66,66,183,183,66,66,183,66,183,183,183,183,66,66,183,66,66,183,66,183,66,183,66,183,183,183,183,183,66,183,183,66,183,183,183,183,66,66,66,183,66,66,183,183,183,183,66,66,183,66,66,183,183,66,183,66],"coherence":1,"opposite_coherence":0,"dot_radius":2,"dot_side_length":1,"dot_life":-1,"move_distance":1,"aperture_width":300,"aperture_height":300,"dot_color":["white","white","black","black","black","white","black","black","black","white","black","black","white","black","white","black","white","black","black","white","black","white","white","white","white","black","black","white","black","white","black","white","white","white","white","black","white","black","black","black","black","black","white","black","black","black","black","black","white","white","black","white","white","white","black","black","black","black","black","white","white","black","black","white","white","black","black","white","black","black","white","white","black","black","black","black","white","white","white","white","white","black","black","white","black","white","white","black","white","white","black","black","black","black","black","white","white","black","black","white","black","white","white","white","black","black","black","black","white","black","white","white","white","white","black","black","white","white","black","white","white","white","black","black","white","black","black","white","white","black","white","black","black","black","black","white","white","white","black","white","black","white","white","white","black","black","white","white","black","black","white","black","white","white","white","white","black","black","white","black","black","white","black","white","black","white","black","white","white","white","white","white","black","white","white","black","white","white","white","white","black","black","black","white","black","black","white","white","white","white","black","black","white","black","black","white","white","black","white","black"],"dot_shape":"circle","background_color":"#AAA","RDK_type":3,"aperture_type":2,"reinsert_type":2,"frame_rate":16.785123966942148,"frame_rate_array":[16,25,5,6,15,16,17,17,17,17,17,17,17,17,17,17,17,17,17,17,17,17,17,17,17,17,17,16,17,17,17,17,17,17,17,17,17,17,17,17,17,17,17,17,17,17,17,17,17,17,17,17,17,17,17,17,17,17,16,17,17,16,17,17,17,17,17,16,17,17,17,17,17,16,17,17,17,17,17,17,17,17,17,17,17,17,17,17,17,17,17,17,17,17,16,17,17,17,17,17,17,17,17,17,17,17,17,17,17,17,17,17,17,17,16,17,17,17,17,17,17],"number_of_frames":121,"aperture_center_x":640,"aperture_center_y":360,"fixation_cross":true,"fixation_cross_width":15,"fixation_cross_height":15,"fixation_cross_color":"#111","fixation_cross_thickness":1,"border":true,"border_thickness":2,"border_color":"transparent","canvas_width":1280,"canvas_height":720,"trial_type":"rdk","trial_index":20,"plugin_version":"2.0.0","time_elapsed":458929},{"rt":7321,"stimulus":"\n        <div class=\"response-container\">\n          <div class=\"response-instruction\">\n            <p>rotate the bar by using the left and right arrow keys.</p>\n            <p>when you are determined, press the Enter key.</p>\n          </div>\n          <div class=\"response-circle\">\n            <div class=\"response-fixation\"></div>\n            <div id=\"bar\" class=\"rotating-bar\"></div>\n          </div>\n        </div>\n      ","response":"Enter","trial_type":"html-keyboard-response","trial_index":21,"plugin_version":"2.1.0","time_elapsed":466251,"response_angle_css":-68,"response_angle_rdk":158,"angular_error_target":-25,"angular_error_distractor":92,"target_direction":183,"target_group":"white","reward_points":5},{"rt":null,"stimulus":"\n          <p style=\"color: #00FF00;\">Your reward: 5 points</p>\n        ","response":null,"trial_type":"html-keyboard-response","trial_index":22,"plugin_version":"2.1.0","time_elapsed":468267},{"rt":null,"stimulus":"<div class=\"fixation\" style=\"font-size: 60px;\">+</div>","response":null,"trial_type":"html-keyboard-response","trial_index":23,"plugin_version":"2.1.0","time_elapsed":469272},{"target_group":"black","condition_label":"B_H_vs_W_L_rep16","target_direction":253,"distractor_direction":11,"session_rotation":153,"rt":-1,"response":"","correct":false,"choices":"ALL_KEYS","correct_choice":["a"],"trial_duration":2000,"flip_timestamps":[],"response_ends_trial":false,"number_of_apertures":200,"number_of_dots":[1,1,1,1,1,1,1,1,1,1,1,1,1,1,1,1,1,1,1,1,1,1,1,1,1,1,1,1,1,1,1,1,1,1,1,1,1,1,1,1,1,1,1,1,1,1,1,1,1,1,1,1,1,1,1,1,1,1,1,1,1,1,1,1,1,1,1,1,1,1,1,1,1,1,1,1,1,1,1,1,1,1,1,1,1,1,1,1,1,1,1,1,1,1,1,1,1,1,1,1,1,1,1,1,1,1,1,1,1,1,1,1,1,1,1,1,1,1,1,1,1,1,1,1,1,1,1,1,1,1,1,1,1,1,1,1,1,1,1,1,1,1,1,1,1,1,1,1,1,1,1,1,1,1,1,1,1,1,1,1,1,1,1,1,1,1,1,1,1,1,1,1,1,1,1,1,1,1,1,1,1,1,1,1,1,1,1,1,1,1,1,1,1,1,1,1,1,1,1,1],"number_of_sets":1,"coherent_direction":[11,11,253,11,253,11,11,253,253,11,253,11,253,11,11,253,253,11,253,253,11,11,253,11,253,253,11,11,11,11,253,253,253,11,11,11,11,253,11,253,253,11,11,253,11,253,11,253,253,11,253,11,253,11,11,253,253,253,11,253,253,253,253,253,253,11,253,11,11,253,253,11,11,253,253,11,253,253,253,253,253,253,11,11,11,253,253,253,253,11,11,253,11,11,11,11,253,11,11,253,11,253,11,253,253,253,253,253,11,11,253,11,11,11,253,253,11,11,11,253,253,11,11,253,253,253,253,11,11,253,253,253,11,253,11,11,11,253,253,11,11,253,253,11,11,11,11,11,253,11,11,253,11,253,11,11,11,11,253,11,253,253,253,253,253,253,11,11,253,253,253,11,253,253,11,11,253,11,253,253,11,11,11,11,253,253,253,11,11,253,253,11,11,253,11,253,11,11,11,11],"coherence":1,"opposite_coherence":0,"dot_radius":2,"dot_side_length":1,"dot_life":-1,"move_distance":1,"aperture_width":300,"aperture_height":300,"dot_color":["white","white","black","white","black","white","white","black","black","white","black","white","black","white","white","black","black","white","black","black","white","white","black","white","black","black","white","white","white","white","black","black","black","white","white","white","white","black","white","black","black","white","white","black","white","black","white","black","black","white","black","white","black","white","white","black","black","black","white","black","black","black","black","black","black","white","black","white","white","black","black","white","white","black","black","white","black","black","black","black","black","black","white","white","white","black","black","black","black","white","white","black","white","white","white","white","black","white","white","black","white","black","white","black","black","black","black","black","white","white","black","white","white","white","black","black","white","white","white","black","black","white","white","black","black","black","black","white","white","black","black","black","white","black","white","white","white","black","black","white","white","black","black","white","white","white","white","white","black","white","white","black","white","black","white","white","white","white","black","white","black","black","black","black","black","black","white","white","black","black","black","white","black","black","white","white","black","white","black","black","white","white","white","white","black","black","black","white","white","black","black","white","white","black","white","black","white","white","white","white"],"dot_shape":"circle","background_color":"#AAA","RDK_type":3,"aperture_type":2,"reinsert_type":2,"frame_rate":16.716666666666665,"frame_rate_array":[23,2,8,17,17,16,17,17,16,17,17,17,17,17,17,16,17,17,17,17,16,17,17,17,17,16,16,17,17,17,17,17,16,17,17,17,17,17,17,17,17,17,17,17,17,17,17,16,17,17,17,17,17,17,17,17,17,17,17,17,17,17,16,17,17,17,17,17,17,17,17,17,17,17,17,17,17,17,17,17,17,16,17,16,17,17,17,17,17,17,17,17,16,17,17,17,17,17,16,17,17,16,17,17,16,16,17,17,17,17,18,16,17,17,17,17,17,17,17,17],"number_of_frames":120,"aperture_center_x":640,"aperture_center_y":360,"fixation_cross":true,"fixation_cross_width":15,"fixation_cross_height":15,"fixation_cross_color":"#111","fixation_cross_thickness":1,"border":true,"border_thickness":2,"border_color":"transparent","canvas_width":1280,"canvas_height":720,"trial_type":"rdk","trial_index":24,"plugin_version":"2.0.0","time_elapsed":471288},{"rt":5778,"stimulus":"\n        <div class=\"response-container\">\n          <div class=\"response-instruction\">\n            <p>rotate the bar by using the left and right arrow keys.</p>\n            <p>when you are determined, press the Enter key.</p>\n          </div>\n          <div class=\"response-circle\">\n            <div class=\"response-fixation\"></div>\n            <div id=\"bar\" class=\"rotating-bar\"></div>\n          </div>\n        </div>\n      ","response":"Enter","trial_type":"html-keyboard-response","trial_index":25,"plugin_version":"2.1.0","time_elapsed":477068,"response_angle_css":-138,"response_angle_rdk":228,"angular_error_target":-25,"angular_error_distractor":-143,"target_direction":253,"target_group":"black","reward_points":5},{"rt":null,"stimulus":"\n          <p style=\"color: #00FF00;\">Your reward: 5 points</p>\n        ","response":null,"trial_type":"html-keyboard-response","trial_index":26,"plugin_version":"2.1.0","time_elapsed":479083},{"rt":null,"stimulus":"<div class=\"fixation\" style=\"font-size: 60px;\">+</div>","response":null,"trial_type":"html-keyboard-response","trial_index":27,"plugin_version":"2.1.0","time_elapsed":480098},{"target_group":"black","condition_label":"B_H_vs_W_L_rep8","target_direction":284,"distractor_direction":15,"session_rotation":153,"rt":-1,"response":"","correct":false,"choices":"ALL_KEYS","correct_choice":["a"],"trial_duration":2000,"flip_timestamps":[],"response_ends_trial":false,"number_of_apertures":200,"number_of_dots":[1,1,1,1,1,1,1,1,1,1,1,1,1,1,1,1,1,1,1,1,1,1,1,1,1,1,1,1,1,1,1,1,1,1,1,1,1,1,1,1,1,1,1,1,1,1,1,1,1,1,1,1,1,1,1,1,1,1,1,1,1,1,1,1,1,1,1,1,1,1,1,1,1,1,1,1,1,1,1,1,1,1,1,1,1,1,1,1,1,1,1,1,1,1,1,1,1,1,1,1,1,1,1,1,1,1,1,1,1,1,1,1,1,1,1,1,1,1,1,1,1,1,1,1,1,1,1,1,1,1,1,1,1,1,1,1,1,1,1,1,1,1,1,1,1,1,1,1,1,1,1,1,1,1,1,1,1,1,1,1,1,1,1,1,1,1,1,1,1,1,1,1,1,1,1,1,1,1,1,1,1,1,1,1,1,1,1,1,1,1,1,1,1,1,1,1,1,1,1,1],"number_of_sets":1,"coherent_direction":[284,284,284,15,15,15,15,284,284,284,284,284,15,15,284,284,15,284,284,15,284,284,15,284,15,284,15,284,15,15,15,284,15,15,15,15,284,15,284,15,15,15,284,15,15,15,284,15,284,15,15,15,15,15,15,284,284,15,284,15,15,284,15,284,15,15,15,15,284,284,284,284,284,15,284,284,284,15,15,15,284,15,284,284,15,284,15,15,284,15,284,284,284,15,15,15,15,284,15,284,284,284,284,15,15,284,284,284,15,284,15,284,284,284,284,15,284,15,15,15,284,284,284,15,284,284,15,284,15,284,284,15,15,284,284,284,15,284,284,284,284,284,15,15,284,284,284,15,15,15,284,15,284,15,15,15,284,15,15,15,15,15,284,284,15,15,15,15,284,15,284,284,15,15,15,15,284,15,284,284,15,15,15,15,284,284,284,284,15,284,284,15,284,15,284,284,284,284,284,15],"coherence":1,"opposite_coherence":0,"dot_radius":2,"dot_side_length":1,"dot_life":-1,"move_distance":1,"aperture_width":300,"aperture_height":300,"dot_color":["black","black","black","white","white","white","white","black","black","black","black","black","white","white","black","black","white","black","black","white","black","black","white","black","white","black","white","black","white","white","white","black","white","white","white","white","black","white","black","white","white","white","black","white","white","white","black","white","black","white","white","white","white","white","white","black","black","white","black","white","white","black","white","black","white","white","white","white","black","black","black","black","black","white","black","black","black","white","white","white","black","white","black","black","white","black","white","white","black","white","black","black","black","white","white","white","white","black","white","black","black","black","black","white","white","black","black","black","white","black","white","black","black","black","black","white","black","white","white","white","black","black","black","white","black","black","white","black","white","black","black","white","white","black","black","black","white","black","black","black","black","black","white","white","black","black","black","white","white","white","black","white","black","white","white","white","black","white","white","white","white","white","black","black","white","white","white","white","black","white","black","black","white","white","white","white","black","white","black","black","white","white","white","white","black","black","black","black","white","black","black","white","black","white","black","black","black","black","black","white"],"dot_shape":"circle","background_color":"#AAA","RDK_type":3,"aperture_type":2,"reinsert_type":2,"frame_rate":16.74380165289256,"frame_rate_array":[11,7,9,17,16,17,17,18,16,18,16,17,17,17,25,9,17,17,17,17,17,17,17,17,17,17,16,17,17,17,18,16,17,17,17,17,17,17,17,17,17,17,17,17,17,17,17,17,17,17,17,17,17,17,17,17,17,17,17,17,17,17,16,17,17,17,16,17,17,17,17,17,17,17,17,17,17,17,17,17,17,17,17,17,17,17,17,17,17,16,17,17,17,17,17,17,17,17,17,17,17,17,17,17,17,17,17,17,17,16,17,17,17,17,17,17,17,17,18,15,17],"number_of_frames":121,"aperture_center_x":640,"aperture_center_y":360,"fixation_cross":true,"fixation_cross_width":15,"fixation_cross_height":15,"fixation_cross_color":"#111","fixation_cross_thickness":1,"border":true,"border_thickness":2,"border_color":"transparent","canvas_width":1280,"canvas_height":720,"trial_type":"rdk","trial_index":28,"plugin_version":"2.0.0","time_elapsed":482117},{"rt":5527,"stimulus":"\n        <div class=\"response-container\">\n          <div class=\"response-instruction\">\n            <p>rotate the bar by using the left and right arrow keys.</p>\n            <p>when you are determined, press the Enter key.</p>\n          </div>\n          <div class=\"response-circle\">\n            <div class=\"response-fixation\"></div>\n            <div id=\"bar\" class=\"rotating-bar\"></div>\n          </div>\n        </div>\n      ","response":"Enter","trial_type":"html-keyboard-response","trial_index":29,"plugin_version":"2.1.0","time_elapsed":487646,"response_angle_css":503,"response_angle_rdk":307,"angular_error_target":23,"angular_error_distractor":-68,"target_direction":284,"target_group":"black","reward_points":5},{"rt":null,"stimulus":"\n          <p style=\"color: #00FF00;\">Your reward: 5 points</p>\n        ","response":null,"trial_type":"html-keyboard-response","trial_index":30,"plugin_version":"2.1.0","time_elapsed":489648},{"rt":null,"stimulus":"<div class=\"fixation\" style=\"font-size: 60px;\">+</div>","response":null,"trial_type":"html-keyboard-response","trial_index":31,"plugin_version":"2.1.0","time_elapsed":490660},{"target_group":"white","condition_label":"W_H_vs_B_L_rep2","target_direction":175,"distractor_direction":84,"session_rotation":153,"rt":-1,"response":"","correct":false,"choices":"ALL_KEYS","correct_choice":["a"],"trial_duration":2000,"flip_timestamps":[],"response_ends_trial":false,"number_of_apertures":200,"number_of_dots":[1,1,1,1,1,1,1,1,1,1,1,1,1,1,1,1,1,1,1,1,1,1,1,1,1,1,1,1,1,1,1,1,1,1,1,1,1,1,1,1,1,1,1,1,1,1,1,1,1,1,1,1,1,1,1,1,1,1,1,1,1,1,1,1,1,1,1,1,1,1,1,1,1,1,1,1,1,1,1,1,1,1,1,1,1,1,1,1,1,1,1,1,1,1,1,1,1,1,1,1,1,1,1,1,1,1,1,1,1,1,1,1,1,1,1,1,1,1,1,1,1,1,1,1,1,1,1,1,1,1,1,1,1,1,1,1,1,1,1,1,1,1,1,1,1,1,1,1,1,1,1,1,1,1,1,1,1,1,1,1,1,1,1,1,1,1,1,1,1,1,1,1,1,1,1,1,1,1,1,1,1,1,1,1,1,1,1,1,1,1,1,1,1,1,1,1,1,1,1,1],"number_of_sets":1,"coherent_direction":[175,175,84,84,175,84,84,175,175,175,84,175,84,175,84,84,84,175,84,84,175,84,84,175,84,175,175,175,175,84,175,175,175,84,175,84,84,84,84,175,84,84,84,175,84,84,175,84,175,175,84,84,84,175,84,175,84,175,84,175,84,84,84,84,175,175,175,175,84,84,84,175,175,175,84,84,84,84,84,84,175,175,84,84,175,84,175,84,84,84,175,175,175,84,175,84,175,84,175,84,175,175,175,175,84,175,84,84,175,84,175,175,84,175,84,84,175,175,175,175,175,175,175,84,84,84,175,84,84,175,175,175,175,84,175,175,84,84,175,84,84,175,84,175,175,175,175,84,84,175,175,84,84,84,84,175,175,175,84,84,175,175,84,175,175,84,84,84,84,84,175,175,84,175,84,175,84,175,175,175,84,175,175,175,84,175,84,84,175,175,84,84,84,84,175,175,84,175,175,84],"coherence":1,"opposite_coherence":0,"dot_radius":2,"dot_side_length":1,"dot_life":-1,"move_distance":1,"aperture_width":300,"aperture_height":300,"dot_color":["white","white","black","black","white","black","black","white","white","white","black","white","black","white","black","black","black","white","black","black","white","black","black","white","black","white","white","white","white","black","white","white","white","black","white","black","black","black","black","white","black","black","black","white","black","black","white","black","white","white","black","black","black","white","black","white","black","white","black","white","black","black","black","black","white","white","white","white","black","black","black","white","white","white","black","black","black","black","black","black","white","white","black","black","white","black","white","black","black","black","white","white","white","black","white","black","white","black","white","black","white","white","white","white","black","white","black","black","white","black","white","white","black","white","black","black","white","white","white","white","white","white","white","black","black","black","white","black","black","white","white","white","white","black","white","white","black","black","white","black","black","white","black","white","white","white","white","black","black","white","white","black","black","black","black","white","white","white","black","black","white","white","black","white","white","black","black","black","black","black","white","white","black","white","black","white","black","white","white","white","black","white","white","white","black","white","black","black","white","white","black","black","black","black","white","white","black","white","white","black"],"dot_shape":"circle","background_color":"#AAA","RDK_type":3,"aperture_type":2,"reinsert_type":2,"frame_rate":16.68595041322314,"frame_rate_array":[9,9,10,17,16,17,16,18,17,17,16,17,17,17,17,17,17,17,23,11,17,17,17,17,17,17,16,17,17,17,18,15,17,17,17,16,17,16,17,17,17,17,17,17,17,17,16,17,17,17,17,17,17,17,17,17,17,16,17,17,17,16,17,16,17,17,16,17,17,17,17,17,17,17,17,17,17,17,17,17,17,17,17,24,9,18,16,17,17,17,17,17,17,17,16,17,17,17,17,17,17,17,17,17,17,17,19,14,17,17,17,16,17,17,17,17,17,17,17,17,17],"number_of_frames":121,"aperture_center_x":640,"aperture_center_y":360,"fixation_cross":true,"fixation_cross_width":15,"fixation_cross_height":15,"fixation_cross_color":"#111","fixation_cross_thickness":1,"border":true,"border_thickness":2,"border_color":"transparent","canvas_width":1280,"canvas_height":720,"trial_type":"rdk","trial_index":32,"plugin_version":"2.0.0","time_elapsed":492667},{"rt":7384,"stimulus":"\n        <div class=\"response-container\">\n          <div class=\"response-instruction\">\n            <p>rotate the bar by using the left and right arrow keys.</p>\n            <p>when you are determined, press the Enter key.</p>\n          </div>\n          <div class=\"response-circle\">\n            <div class=\"response-fixation\"></div>\n            <div id=\"bar\" class=\"rotating-bar\"></div>\n          </div>\n        </div>\n      ","response":"Enter","trial_type":"html-keyboard-response","trial_index":33,"plugin_version":"2.1.0","time_elapsed":500052,"response_angle_css":276,"response_angle_rdk":174,"angular_error_target":-1,"angular_error_distractor":90,"target_direction":175,"target_group":"white","reward_points":9},{"rt":null,"stimulus":"\n          <p style=\"color: #00FF00;\">Your reward: 9 points</p>\n        ","response":null,"trial_type":"html-keyboard-response","trial_index":34,"plugin_version":"2.1.0","time_elapsed":502062},{"rt":null,"stimulus":"<div class=\"fixation\" style=\"font-size: 60px;\">+</div>","response":null,"trial_type":"html-keyboard-response","trial_index":35,"plugin_version":"2.1.0","time_elapsed":503076},{"target_group":"white","condition_label":"W_H_vs_B_L_rep24","target_direction":183,"distractor_direction":89,"session_rotation":153,"rt":-1,"response":"","correct":false,"choices":"ALL_KEYS","correct_choice":["a"],"trial_duration":2000,"flip_timestamps":[],"response_ends_trial":false,"number_of_apertures":200,"number_of_dots":[1,1,1,1,1,1,1,1,1,1,1,1,1,1,1,1,1,1,1,1,1,1,1,1,1,1,1,1,1,1,1,1,1,1,1,1,1,1,1,1,1,1,1,1,1,1,1,1,1,1,1,1,1,1,1,1,1,1,1,1,1,1,1,1,1,1,1,1,1,1,1,1,1,1,1,1,1,1,1,1,1,1,1,1,1,1,1,1,1,1,1,1,1,1,1,1,1,1,1,1,1,1,1,1,1,1,1,1,1,1,1,1,1,1,1,1,1,1,1,1,1,1,1,1,1,1,1,1,1,1,1,1,1,1,1,1,1,1,1,1,1,1,1,1,1,1,1,1,1,1,1,1,1,1,1,1,1,1,1,1,1,1,1,1,1,1,1,1,1,1,1,1,1,1,1,1,1,1,1,1,1,1,1,1,1,1,1,1,1,1,1,1,1,1,1,1,1,1,1,1],"number_of_sets":1,"coherent_direction":[89,183,183,183,183,89,183,89,183,89,183,89,89,183,89,89,89,183,89,89,183,89,183,89,89,89,183,89,183,183,89,183,89,183,89,89,89,183,183,89,89,183,183,89,89,183,89,183,183,89,183,89,183,89,183,89,183,89,89,183,89,183,183,89,89,183,89,183,89,89,89,183,183,183,183,89,89,89,183,89,183,183,89,183,89,183,183,89,183,183,89,183,89,183,89,89,89,89,183,183,183,183,89,183,89,183,89,89,183,89,183,89,89,183,89,183,89,183,89,89,89,183,89,89,89,183,183,89,183,89,89,89,183,89,89,183,89,183,89,89,183,89,89,183,183,89,183,89,89,183,183,183,89,183,89,89,183,89,183,183,89,89,183,183,89,183,183,89,183,183,183,183,183,183,183,89,183,183,89,183,89,89,183,89,183,183,89,183,183,89,183,183,183,183,89,89,183,89,183,89],"coherence":1,"opposite_coherence":0,"dot_radius":2,"dot_side_length":1,"dot_life":-1,"move_distance":1,"aperture_width":300,"aperture_height":300,"dot_color":["black","white","white","white","white","black","white","black","white","black","white","black","black","white","black","black","black","white","black","black","white","black","white","black","black","black","white","black","white","white","black","white","black","white","black","black","black","white","white","black","black","white","white","black","black","white","black","white","white","black","white","black","white","black","white","black","white","black","black","white","black","white","white","black","black","white","black","white","black","black","black","white","white","white","white","black","black","black","white","black","white","white","black","white","black","white","white","black","white","white","black","white","black","white","black","black","black","black","white","white","white","white","black","white","black","white","black","black","white","black","white","black","black","white","black","white","black","white","black","black","black","white","black","black","black","white","white","black","white","black","black","black","white","black","black","white","black","white","black","black","white","black","black","white","white","black","white","black","black","white","white","white","black","white","black","black","white","black","white","white","black","black","white","white","black","white","white","black","white","white","white","white","white","white","white","black","white","white","black","white","black","black","white","black","white","white","black","white","white","black","white","white","white","white","black","black","white","black","white","black"],"dot_shape":"circle","background_color":"#AAA","RDK_type":3,"aperture_type":2,"reinsert_type":2,"frame_rate":16.694214876033058,"frame_rate_array":[9,3,12,17,17,16,17,18,15,17,17,17,17,17,17,17,17,17,16,17,17,17,17,17,16,17,17,17,17,17,17,17,17,17,17,17,17,17,17,17,16,17,17,17,17,17,17,17,17,17,18,16,17,17,17,17,17,17,17,22,11,18,18,14,17,17,17,17,17,17,17,17,17,17,17,17,17,17,17,17,17,17,17,17,21,12,17,17,17,17,17,17,17,17,17,17,17,17,17,17,16,17,17,17,17,17,17,17,17,17,17,17,17,17,17,17,17,17,17,22,11],"number_of_frames":121,"aperture_center_x":640,"aperture_center_y":360,"fixation_cross":true,"fixation_cross_width":15,"fixation_cross_height":15,"fixation_cross_color":"#111","fixation_cross_thickness":1,"border":true,"border_thickness":2,"border_color":"transparent","canvas_width":1280,"canvas_height":720,"trial_type":"rdk","trial_index":36,"plugin_version":"2.0.0","time_elapsed":505092},{"rt":3162,"stimulus":"\n        <div class=\"response-container\">\n          <div class=\"response-instruction\">\n            <p>rotate the bar by using the left and right arrow keys.</p>\n            <p>when you are determined, press the Enter key.</p>\n          </div>\n          <div class=\"response-circle\">\n            <div class=\"response-fixation\"></div>\n            <div id=\"bar\" class=\"rotating-bar\"></div>\n          </div>\n        </div>\n      ","response":"Enter","trial_type":"html-keyboard-response","trial_index":37,"plugin_version":"2.1.0","time_elapsed":508255,"response_angle_css":246,"response_angle_rdk":204,"angular_error_target":21,"angular_error_distractor":115,"target_direction":183,"target_group":"white","reward_points":5},{"rt":null,"stimulus":"\n          <p style=\"color: #00FF00;\">Your reward: 5 points</p>\n        ","response":null,"trial_type":"html-keyboard-response","trial_index":38,"plugin_version":"2.1.0","time_elapsed":510271},{"rt":null,"stimulus":"<div class=\"fixation\" style=\"font-size: 60px;\">+</div>","response":null,"trial_type":"html-keyboard-response","trial_index":39,"plugin_version":"2.1.0","time_elapsed":511275},{"target_group":"white","condition_label":"W_H_vs_B_L_rep15","target_direction":165,"distractor_direction":75,"session_rotation":153,"rt":-1,"response":"","correct":false,"choices":"ALL_KEYS","correct_choice":["a"],"trial_duration":2000,"flip_timestamps":[],"response_ends_trial":false,"number_of_apertures":200,"number_of_dots":[1,1,1,1,1,1,1,1,1,1,1,1,1,1,1,1,1,1,1,1,1,1,1,1,1,1,1,1,1,1,1,1,1,1,1,1,1,1,1,1,1,1,1,1,1,1,1,1,1,1,1,1,1,1,1,1,1,1,1,1,1,1,1,1,1,1,1,1,1,1,1,1,1,1,1,1,1,1,1,1,1,1,1,1,1,1,1,1,1,1,1,1,1,1,1,1,1,1,1,1,1,1,1,1,1,1,1,1,1,1,1,1,1,1,1,1,1,1,1,1,1,1,1,1,1,1,1,1,1,1,1,1,1,1,1,1,1,1,1,1,1,1,1,1,1,1,1,1,1,1,1,1,1,1,1,1,1,1,1,1,1,1,1,1,1,1,1,1,1,1,1,1,1,1,1,1,1,1,1,1,1,1,1,1,1,1,1,1,1,1,1,1,1,1,1,1,1,1,1,1],"number_of_sets":1,"coherent_direction":[165,165,75,165,75,165,75,75,75,75,75,75,165,75,165,75,75,75,75,165,165,165,75,75,75,165,165,165,75,75,75,165,165,75,165,165,165,165,165,165,75,165,75,165,75,75,165,75,165,75,75,75,165,75,165,75,165,75,165,165,165,165,75,75,165,75,75,75,75,75,75,75,165,165,75,165,165,165,165,165,165,165,75,165,75,75,75,165,165,165,75,165,165,75,165,75,165,165,165,75,75,165,165,75,75,75,75,165,165,165,75,165,165,165,75,165,75,75,75,165,165,165,75,75,75,75,165,165,75,165,75,75,75,75,75,75,165,75,165,75,165,165,165,75,75,165,75,165,75,75,165,165,75,165,165,75,165,75,165,75,75,75,75,165,165,75,165,165,75,75,75,75,165,165,75,165,165,165,165,165,165,75,165,165,165,75,165,75,75,165,165,75,75,165,75,75,75,75,165,165],"coherence":1,"opposite_coherence":0,"dot_radius":2,"dot_side_length":1,"dot_life":-1,"move_distance":1,"aperture_width":300,"aperture_height":300,"dot_color":["white","white","black","white","black","white","black","black","black","black","black","black","white","black","white","black","black","black","black","white","white","white","black","black","black","white","white","white","black","black","black","white","white","black","white","white","white","white","white","white","black","white","black","white","black","black","white","black","white","black","black","black","white","black","white","black","white","black","white","white","white","white","black","black","white","black","black","black","black","black","black","black","white","white","black","white","white","white","white","white","white","white","black","white","black","black","black","white","white","white","black","white","white","black","white","black","white","white","white","black","black","white","white","black","black","black","black","white","white","white","black","white","white","white","black","white","black","black","black","white","white","white","black","black","black","black","white","white","black","white","black","black","black","black","black","black","white","black","white","black","white","white","white","black","black","white","black","white","black","black","white","white","black","white","white","black","white","black","white","black","black","black","black","white","white","black","white","white","black","black","black","black","white","white","black","white","white","white","white","white","white","black","white","white","white","black","white","black","black","white","white","black","black","white","black","black","black","black","white","white"],"dot_shape":"circle","background_color":"#AAA","RDK_type":3,"aperture_type":2,"reinsert_type":2,"frame_rate":16.7,"frame_rate_array":[9,8,15,16,16,17,17,17,17,17,17,18,17,17,22,11,17,17,17,17,17,17,16,17,17,17,17,17,17,17,17,16,17,17,17,17,17,17,17,16,17,16,30,4,16,17,17,17,17,17,17,17,17,16,17,17,17,17,16,17,16,17,17,16,17,17,17,17,17,17,17,17,18,15,17,17,17,17,17,17,17,22,11,17,16,17,17,17,17,17,17,17,17,16,17,16,17,17,17,17,17,17,17,17,17,17,18,17,17,17,17,17,17,17,17,16,17,17,17,16],"number_of_frames":120,"aperture_center_x":640,"aperture_center_y":360,"fixation_cross":true,"fixation_cross_width":15,"fixation_cross_height":15,"fixation_cross_color":"#111","fixation_cross_thickness":1,"border":true,"border_thickness":2,"border_color":"transparent","canvas_width":1280,"canvas_height":720,"trial_type":"rdk","trial_index":40,"plugin_version":"2.0.0","time_elapsed":513284},{"rt":6263,"stimulus":"\n        <div class=\"response-container\">\n          <div class=\"response-instruction\">\n            <p>rotate the bar by using the left and right arrow keys.</p>\n            <p>when you are determined, press the Enter key.</p>\n          </div>\n          <div class=\"response-circle\">\n            <div class=\"response-fixation\"></div>\n            <div id=\"bar\" class=\"rotating-bar\"></div>\n          </div>\n        </div>\n      ","response":"Enter","trial_type":"html-keyboard-response","trial_index":41,"plugin_version":"2.1.0","time_elapsed":519548,"response_angle_css":414,"response_angle_rdk":36,"angular_error_target":-129,"angular_error_distractor":-39,"target_direction":165,"target_group":"white","reward_points":0},{"rt":null,"stimulus":"\n          <p style=\"color: #FF3333;\">Your reward: 0 points</p>\n        ","response":null,"trial_type":"html-keyboard-response","trial_index":42,"plugin_version":"2.1.0","time_elapsed":521562},{"rt":null,"stimulus":"<div class=\"fixation\" style=\"font-size: 60px;\">+</div>","response":null,"trial_type":"html-keyboard-response","trial_index":43,"plugin_version":"2.1.0","time_elapsed":522573},{"target_group":"white","condition_label":"W_H_vs_B_L_rep18","target_direction":193,"distractor_direction":70,"session_rotation":153,"rt":-1,"response":"","correct":false,"choices":"ALL_KEYS","correct_choice":["a"],"trial_duration":2000,"flip_timestamps":[],"response_ends_trial":false,"number_of_apertures":200,"number_of_dots":[1,1,1,1,1,1,1,1,1,1,1,1,1,1,1,1,1,1,1,1,1,1,1,1,1,1,1,1,1,1,1,1,1,1,1,1,1,1,1,1,1,1,1,1,1,1,1,1,1,1,1,1,1,1,1,1,1,1,1,1,1,1,1,1,1,1,1,1,1,1,1,1,1,1,1,1,1,1,1,1,1,1,1,1,1,1,1,1,1,1,1,1,1,1,1,1,1,1,1,1,1,1,1,1,1,1,1,1,1,1,1,1,1,1,1,1,1,1,1,1,1,1,1,1,1,1,1,1,1,1,1,1,1,1,1,1,1,1,1,1,1,1,1,1,1,1,1,1,1,1,1,1,1,1,1,1,1,1,1,1,1,1,1,1,1,1,1,1,1,1,1,1,1,1,1,1,1,1,1,1,1,1,1,1,1,1,1,1,1,1,1,1,1,1,1,1,1,1,1,1],"number_of_sets":1,"coherent_direction":[193,193,193,70,70,193,193,70,193,70,193,193,70,70,193,193,70,70,70,70,193,193,70,70,70,193,193,70,70,193,70,70,70,70,193,70,70,70,70,193,193,70,70,193,70,70,70,193,193,70,70,70,70,193,193,193,193,193,193,193,70,70,193,70,193,70,70,70,193,193,70,193,193,70,193,193,70,70,193,193,193,70,193,70,70,70,193,193,193,193,70,193,70,70,70,70,70,70,70,193,70,193,70,193,193,193,193,70,70,70,193,193,70,193,193,70,193,70,193,193,193,193,70,70,70,70,193,70,70,193,193,193,70,70,193,70,193,193,193,70,193,193,193,70,193,193,193,193,193,193,193,193,193,193,193,70,70,193,193,70,193,70,193,70,70,193,70,70,70,70,70,193,70,70,70,70,193,193,193,70,70,70,70,193,70,70,193,70,70,70,193,193,193,70,193,193,70,193,193,70],"coherence":1,"opposite_coherence":0,"dot_radius":2,"dot_side_length":1,"dot_life":-1,"move_distance":1,"aperture_width":300,"aperture_height":300,"dot_color":["white","white","white","black","black","white","white","black","white","black","white","white","black","black","white","white","black","black","black","black","white","white","black","black","black","white","white","black","black","white","black","black","black","black","white","black","black","black","black","white","white","black","black","white","black","black","black","white","white","black","black","black","black","white","white","white","white","white","white","white","black","black","white","black","white","black","black","black","white","white","black","white","white","black","white","white","black","black","white","white","white","black","white","black","black","black","white","white","white","white","black","white","black","black","black","black","black","black","black","white","black","white","black","white","white","white","white","black","black","black","white","white","black","white","white","black","white","black","white","white","white","white","black","black","black","black","white","black","black","white","white","white","black","black","white","black","white","white","white","black","white","white","white","black","white","white","white","white","white","white","white","white","white","white","white","black","black","white","white","black","white","black","white","black","black","white","black","black","black","black","black","white","black","black","black","black","white","white","white","black","black","black","black","white","black","black","white","black","black","black","white","white","white","black","white","white","black","white","white","black"],"dot_shape":"circle","background_color":"#AAA","RDK_type":3,"aperture_type":2,"reinsert_type":2,"frame_rate":16.710743801652892,"frame_rate_array":[13,7,22,3,13,17,17,17,17,17,17,17,17,17,17,17,17,17,17,17,17,17,17,17,17,17,17,17,17,17,17,17,17,17,16,17,17,17,17,17,17,16,17,17,17,17,17,17,17,17,17,23,10,17,17,17,17,17,17,17,17,17,17,17,17,17,17,17,17,17,17,17,16,17,17,17,17,17,17,17,17,17,16,17,17,17,17,17,17,17,16,17,17,17,17,17,17,17,17,16,17,17,17,17,17,17,17,17,17,17,17,17,17,17,17,17,17,17,16,17,17],"number_of_frames":121,"aperture_center_x":640,"aperture_center_y":360,"fixation_cross":true,"fixation_cross_width":15,"fixation_cross_height":15,"fixation_cross_color":"#111","fixation_cross_thickness":1,"border":true,"border_thickness":2,"border_color":"transparent","canvas_width":1280,"canvas_height":720,"trial_type":"rdk","trial_index":44,"plugin_version":"2.0.0","time_elapsed":524582},{"rt":1814,"stimulus":"\n        <div class=\"response-container\">\n          <div class=\"response-instruction\">\n            <p>rotate the bar by using the left and right arrow keys.</p>\n            <p>when you are determined, press the Enter key.</p>\n          </div>\n          <div class=\"response-circle\">\n            <div class=\"response-fixation\"></div>\n            <div id=\"bar\" class=\"rotating-bar\"></div>\n          </div>\n        </div>\n      ","response":"Enter","trial_type":"html-keyboard-response","trial_index":45,"plugin_version":"2.1.0","time_elapsed":526397,"response_angle_css":53,"response_angle_rdk":37,"angular_error_target":-156,"angular_error_distractor":-33,"target_direction":193,"target_group":"white","reward_points":0},{"rt":null,"stimulus":"\n          <p style=\"color: #FF3333;\">Your reward: 0 points</p>\n        ","response":null,"trial_type":"html-keyboard-response","trial_index":46,"plugin_version":"2.1.0","time_elapsed":528400},{"rt":null,"stimulus":"<div class=\"fixation\" style=\"font-size: 60px;\">+</div>","response":null,"trial_type":"html-keyboard-response","trial_index":47,"plugin_version":"2.1.0","time_elapsed":529415},{"target_group":"black","condition_label":"B_H_vs_W_L_rep4","target_direction":243,"distractor_direction":3,"session_rotation":153,"rt":-1,"response":"","correct":false,"choices":"ALL_KEYS","correct_choice":["a"],"trial_duration":2000,"flip_timestamps":[],"response_ends_trial":false,"number_of_apertures":200,"number_of_dots":[1,1,1,1,1,1,1,1,1,1,1,1,1,1,1,1,1,1,1,1,1,1,1,1,1,1,1,1,1,1,1,1,1,1,1,1,1,1,1,1,1,1,1,1,1,1,1,1,1,1,1,1,1,1,1,1,1,1,1,1,1,1,1,1,1,1,1,1,1,1,1,1,1,1,1,1,1,1,1,1,1,1,1,1,1,1,1,1,1,1,1,1,1,1,1,1,1,1,1,1,1,1,1,1,1,1,1,1,1,1,1,1,1,1,1,1,1,1,1,1,1,1,1,1,1,1,1,1,1,1,1,1,1,1,1,1,1,1,1,1,1,1,1,1,1,1,1,1,1,1,1,1,1,1,1,1,1,1,1,1,1,1,1,1,1,1,1,1,1,1,1,1,1,1,1,1,1,1,1,1,1,1,1,1,1,1,1,1,1,1,1,1,1,1,1,1,1,1,1,1],"number_of_sets":1,"coherent_direction":[243,243,243,3,243,3,243,3,3,3,243,243,3,243,243,3,3,243,243,3,243,243,243,3,243,3,3,243,243,243,3,243,3,243,243,243,3,3,3,243,243,243,3,3,3,3,3,3,243,3,3,243,3,3,243,3,243,3,243,243,243,243,243,243,243,3,3,243,243,243,3,243,243,3,243,243,243,243,243,3,243,243,243,243,243,243,3,243,243,3,3,243,3,3,3,3,243,3,3,3,243,3,243,3,3,243,243,3,3,243,3,3,3,3,3,243,243,243,243,3,3,243,3,3,243,3,3,3,243,243,3,243,243,3,3,243,3,3,3,3,3,3,3,243,243,3,3,3,3,243,3,243,3,243,3,3,3,3,3,243,243,3,3,243,243,3,3,243,3,3,3,3,243,243,243,3,3,243,243,3,243,3,243,243,243,243,3,243,3,3,3,243,3,243,243,243,3,243,243,243],"coherence":1,"opposite_coherence":0,"dot_radius":2,"dot_side_length":1,"dot_life":-1,"move_distance":1,"aperture_width":300,"aperture_height":300,"dot_color":["black","black","black","white","black","white","black","white","white","white","black","black","white","black","black","white","white","black","black","white","black","black","black","white","black","white","white","black","black","black","white","black","white","black","black","black","white","white","white","black","black","black","white","white","white","white","white","white","black","white","white","black","white","white","black","white","black","white","black","black","black","black","black","black","black","white","white","black","black","black","white","black","black","white","black","black","black","black","black","white","black","black","black","black","black","black","white","black","black","white","white","black","white","white","white","white","black","white","white","white","black","white","black","white","white","black","black","white","white","black","white","white","white","white","white","black","black","black","black","white","white","black","white","white","black","white","white","white","black","black","white","black","black","white","white","black","white","white","white","white","white","white","white","black","black","white","white","white","white","black","white","black","white","black","white","white","white","white","white","black","black","white","white","black","black","white","white","black","white","white","white","white","black","black","black","white","white","black","black","white","black","white","black","black","black","black","white","black","white","white","white","black","white","black","black","black","white","black","black","black"],"dot_shape":"circle","background_color":"#AAA","RDK_type":3,"aperture_type":2,"reinsert_type":2,"frame_rate":16.8099173553719,"frame_rate_array":[10,12,15,17,17,17,17,17,17,16,17,17,17,17,17,17,17,17,16,17,16,17,17,16,17,17,17,17,16,17,16,17,17,17,17,17,17,17,17,17,17,17,17,17,16,17,16,17,17,17,17,17,17,17,17,17,17,17,17,17,17,17,17,17,17,17,18,17,17,17,17,17,17,17,17,17,17,17,17,17,18,15,17,17,17,17,17,17,16,17,17,17,17,17,17,17,17,17,17,17,17,17,17,17,17,17,17,17,17,17,17,17,17,17,17,17,17,17,17,17,17],"number_of_frames":121,"aperture_center_x":640,"aperture_center_y":360,"fixation_cross":true,"fixation_cross_width":15,"fixation_cross_height":15,"fixation_cross_color":"#111","fixation_cross_thickness":1,"border":true,"border_thickness":2,"border_color":"transparent","canvas_width":1280,"canvas_height":720,"trial_type":"rdk","trial_index":48,"plugin_version":"2.0.0","time_elapsed":531429},{"rt":1411,"stimulus":"\n        <div class=\"response-container\">\n          <div class=\"response-instruction\">\n            <p>rotate the bar by using the left and right arrow keys.</p>\n            <p>when you are determined, press the Enter key.</p>\n          </div>\n          <div class=\"response-circle\">\n            <div class=\"response-fixation\"></div>\n            <div id=\"bar\" class=\"rotating-bar\"></div>\n          </div>\n        </div>\n      ","response":"Enter","trial_type":"html-keyboard-response","trial_index":49,"plugin_version":"2.1.0","time_elapsed":532841,"response_angle_css":216,"response_angle_rdk":234,"angular_error_target":-9,"angular_error_distractor":-129,"target_direction":243,"target_group":"black","reward_points":8},{"rt":null,"stimulus":"\n          <p style=\"color: #00FF00;\">Your reward: 8 points</p>\n        ","response":null,"trial_type":"html-keyboard-response","trial_index":50,"plugin_version":"2.1.0","time_elapsed":534843},{"rt":null,"stimulus":"<div class=\"fixation\" style=\"font-size: 60px;\">+</div>","response":null,"trial_type":"html-keyboard-response","trial_index":51,"plugin_version":"2.1.0","time_elapsed":535848},{"target_group":"black","condition_label":"B_H_vs_W_L_rep20","target_direction":266,"distractor_direction":11,"session_rotation":153,"rt":-1,"response":"","correct":false,"choices":"ALL_KEYS","correct_choice":["a"],"trial_duration":2000,"flip_timestamps":[],"response_ends_trial":false,"number_of_apertures":200,"number_of_dots":[1,1,1,1,1,1,1,1,1,1,1,1,1,1,1,1,1,1,1,1,1,1,1,1,1,1,1,1,1,1,1,1,1,1,1,1,1,1,1,1,1,1,1,1,1,1,1,1,1,1,1,1,1,1,1,1,1,1,1,1,1,1,1,1,1,1,1,1,1,1,1,1,1,1,1,1,1,1,1,1,1,1,1,1,1,1,1,1,1,1,1,1,1,1,1,1,1,1,1,1,1,1,1,1,1,1,1,1,1,1,1,1,1,1,1,1,1,1,1,1,1,1,1,1,1,1,1,1,1,1,1,1,1,1,1,1,1,1,1,1,1,1,1,1,1,1,1,1,1,1,1,1,1,1,1,1,1,1,1,1,1,1,1,1,1,1,1,1,1,1,1,1,1,1,1,1,1,1,1,1,1,1,1,1,1,1,1,1,1,1,1,1,1,1,1,1,1,1,1,1],"number_of_sets":1,"coherent_direction":[266,266,11,266,11,11,11,266,266,266,11,11,266,11,266,266,266,11,266,11,11,11,11,266,11,11,11,11,11,11,266,266,11,266,266,11,266,11,11,266,266,11,266,266,11,266,266,266,11,11,266,266,266,266,266,266,266,266,11,11,266,266,266,11,266,11,266,266,266,11,11,266,11,11,11,11,266,11,266,11,266,11,266,11,11,266,266,266,266,266,11,266,11,266,266,11,266,11,11,266,11,266,11,11,11,11,11,266,11,11,11,11,11,11,11,266,266,266,266,11,266,266,266,266,266,266,266,11,266,266,266,266,11,11,11,266,266,11,266,266,11,11,266,266,266,11,266,266,11,11,266,266,11,11,266,11,11,11,266,266,11,11,266,11,11,266,11,11,266,11,266,266,11,11,11,11,266,266,266,11,266,11,266,11,11,266,11,266,11,11,266,11,11,11,266,11,11,11,11,266],"coherence":1,"opposite_coherence":0,"dot_radius":2,"dot_side_length":1,"dot_life":-1,"move_distance":1,"aperture_width":300,"aperture_height":300,"dot_color":["black","black","white","black","white","white","white","black","black","black","white","white","black","white","black","black","black","white","black","white","white","white","white","black","white","white","white","white","white","white","black","black","white","black","black","white","black","white","white","black","black","white","black","black","white","black","black","black","white","white","black","black","black","black","black","black","black","black","white","white","black","black","black","white","black","white","black","black","black","white","white","black","white","white","white","white","black","white","black","white","black","white","black","white","white","black","black","black","black","black","white","black","white","black","black","white","black","white","white","black","white","black","white","white","white","white","white","black","white","white","white","white","white","white","white","black","black","black","black","white","black","black","black","black","black","black","black","white","black","black","black","black","white","white","white","black","black","white","black","black","white","white","black","black","black","white","black","black","white","white","black","black","white","white","black","white","white","white","black","black","white","white","black","white","white","black","white","white","black","white","black","black","white","white","white","white","black","black","black","white","black","white","black","white","white","black","white","black","white","white","black","white","white","white","black","white","white","white","white","black"],"dot_shape":"circle","background_color":"#AAA","RDK_type":3,"aperture_type":2,"reinsert_type":2,"frame_rate":16.75,"frame_rate_array":[9,8,17,23,9,17,17,17,17,17,17,16,17,16,17,17,17,17,16,17,17,17,17,17,17,17,17,17,17,17,17,17,17,17,17,17,17,17,16,17,17,17,17,17,17,17,17,17,17,17,17,17,17,17,17,17,17,17,17,17,17,17,17,16,17,17,17,17,23,11,17,17,16,17,17,17,17,17,16,17,19,15,17,18,15,17,17,17,17,17,17,17,17,17,17,17,17,17,17,17,17,18,15,17,18,15,17,17,17,17,17,17,17,17,17,17,17,17,16,17],"number_of_frames":120,"aperture_center_x":640,"aperture_center_y":360,"fixation_cross":true,"fixation_cross_width":15,"fixation_cross_height":15,"fixation_cross_color":"#111","fixation_cross_thickness":1,"border":true,"border_thickness":2,"border_color":"transparent","canvas_width":1280,"canvas_height":720,"trial_type":"rdk","trial_index":52,"plugin_version":"2.0.0","time_elapsed":537857},{"rt":5428,"stimulus":"\n        <div class=\"response-container\">\n          <div class=\"response-instruction\">\n            <p>rotate the bar by using the left and right arrow keys.</p>\n            <p>when you are determined, press the Enter key.</p>\n          </div>\n          <div class=\"response-circle\">\n            <div class=\"response-fixation\"></div>\n            <div id=\"bar\" class=\"rotating-bar\"></div>\n          </div>\n        </div>\n      ","response":"Enter","trial_type":"html-keyboard-response","trial_index":53,"plugin_version":"2.1.0","time_elapsed":543287,"response_angle_css":202,"response_angle_rdk":248,"angular_error_target":-18,"angular_error_distractor":-123,"target_direction":266,"target_group":"black","reward_points":6},{"rt":null,"stimulus":"\n          <p style=\"color: #00FF00;\">Your reward: 6 points</p>\n        ","response":null,"trial_type":"html-keyboard-response","trial_index":54,"plugin_version":"2.1.0","time_elapsed":545304},{"rt":null,"stimulus":"<div class=\"fixation\" style=\"font-size: 60px;\">+</div>","response":null,"trial_type":"html-keyboard-response","trial_index":55,"plugin_version":"2.1.0","time_elapsed":546315},{"target_group":"white","condition_label":"W_H_vs_B_L_rep23","target_direction":172,"distractor_direction":67,"session_rotation":153,"rt":-1,"response":"","correct":false,"choices":"ALL_KEYS","correct_choice":["a"],"trial_duration":2000,"flip_timestamps":[],"response_ends_trial":false,"number_of_apertures":200,"number_of_dots":[1,1,1,1,1,1,1,1,1,1,1,1,1,1,1,1,1,1,1,1,1,1,1,1,1,1,1,1,1,1,1,1,1,1,1,1,1,1,1,1,1,1,1,1,1,1,1,1,1,1,1,1,1,1,1,1,1,1,1,1,1,1,1,1,1,1,1,1,1,1,1,1,1,1,1,1,1,1,1,1,1,1,1,1,1,1,1,1,1,1,1,1,1,1,1,1,1,1,1,1,1,1,1,1,1,1,1,1,1,1,1,1,1,1,1,1,1,1,1,1,1,1,1,1,1,1,1,1,1,1,1,1,1,1,1,1,1,1,1,1,1,1,1,1,1,1,1,1,1,1,1,1,1,1,1,1,1,1,1,1,1,1,1,1,1,1,1,1,1,1,1,1,1,1,1,1,1,1,1,1,1,1,1,1,1,1,1,1,1,1,1,1,1,1,1,1,1,1,1,1],"number_of_sets":1,"coherent_direction":[67,67,67,67,172,172,67,172,67,172,172,67,67,172,172,172,67,67,172,67,172,172,67,172,67,172,172,67,67,67,67,172,172,172,172,67,172,67,67,172,67,172,67,67,172,172,67,67,67,67,67,172,172,67,172,172,67,67,67,172,67,172,172,172,67,172,67,172,67,67,67,67,67,67,172,67,67,172,172,172,67,67,172,172,67,67,172,172,67,67,67,172,172,67,172,67,172,172,172,172,172,67,172,67,172,67,172,172,172,172,67,172,172,172,67,67,172,67,172,172,67,172,172,67,172,67,67,172,67,67,172,172,172,172,67,67,172,67,67,172,172,172,67,172,172,172,172,172,67,172,67,172,172,67,172,172,67,172,67,67,172,172,67,172,67,67,172,67,67,172,172,67,172,67,67,172,67,172,67,67,172,67,172,172,67,172,172,172,67,67,67,67,67,67,67,67,67,67,67,172],"coherence":1,"opposite_coherence":0,"dot_radius":2,"dot_side_length":1,"dot_life":-1,"move_distance":1,"aperture_width":300,"aperture_height":300,"dot_color":["black","black","black","black","white","white","black","white","black","white","white","black","black","white","white","white","black","black","white","black","white","white","black","white","black","white","white","black","black","black","black","white","white","white","white","black","white","black","black","white","black","white","black","black","white","white","black","black","black","black","black","white","white","black","white","white","black","black","black","white","black","white","white","white","black","white","black","white","black","black","black","black","black","black","white","black","black","white","white","white","black","black","white","white","black","black","white","white","black","black","black","white","white","black","white","black","white","white","white","white","white","black","white","black","white","black","white","white","white","white","black","white","white","white","black","black","white","black","white","white","black","white","white","black","white","black","black","white","black","black","white","white","white","white","black","black","white","black","black","white","white","white","black","white","white","white","white","white","black","white","black","white","white","black","white","white","black","white","black","black","white","white","black","white","black","black","white","black","black","white","white","black","white","black","black","white","black","white","black","black","white","black","white","white","black","white","white","white","black","black","black","black","black","black","black","black","black","black","black","white"],"dot_shape":"circle","background_color":"#AAA","RDK_type":3,"aperture_type":2,"reinsert_type":2,"frame_rate":16.758333333333333,"frame_rate_array":[28,2,8,16,16,17,17,17,17,17,17,17,17,17,16,17,16,16,18,16,17,17,18,17,17,17,17,17,17,17,17,17,17,17,17,17,16,17,17,17,17,17,17,16,17,17,16,17,17,17,17,17,17,17,17,17,17,17,16,16,17,16,17,17,17,17,17,17,17,17,17,16,17,17,16,16,17,19,14,17,17,17,17,17,17,17,17,17,17,17,17,17,17,17,17,17,16,17,17,17,17,17,17,17,17,17,17,17,17,17,17,17,16,17,17,17,17,17,17,17],"number_of_frames":120,"aperture_center_x":640,"aperture_center_y":360,"fixation_cross":true,"fixation_cross_width":15,"fixation_cross_height":15,"fixation_cross_color":"#111","fixation_cross_thickness":1,"border":true,"border_thickness":2,"border_color":"transparent","canvas_width":1280,"canvas_height":720,"trial_type":"rdk","trial_index":56,"plugin_version":"2.0.0","time_elapsed":548337},{"rt":4381,"stimulus":"\n        <div class=\"response-container\">\n          <div class=\"response-instruction\">\n            <p>rotate the bar by using the left and right arrow keys.</p>\n            <p>when you are determined, press the Enter key.</p>\n          </div>\n          <div class=\"response-circle\">\n            <div class=\"response-fixation\"></div>\n            <div id=\"bar\" class=\"rotating-bar\"></div>\n          </div>\n        </div>\n      ","response":"Enter","trial_type":"html-keyboard-response","trial_index":57,"plugin_version":"2.1.0","time_elapsed":552720,"response_angle_css":408,"response_angle_rdk":42,"angular_error_target":-130,"angular_error_distractor":-25,"target_direction":172,"target_group":"white","reward_points":0},{"rt":null,"stimulus":"\n          <p style=\"color: #FF3333;\">Your reward: 0 points</p>\n        ","response":null,"trial_type":"html-keyboard-response","trial_index":58,"plugin_version":"2.1.0","time_elapsed":554723},{"rt":null,"stimulus":"<div class=\"fixation\" style=\"font-size: 60px;\">+</div>","response":null,"trial_type":"html-keyboard-response","trial_index":59,"plugin_version":"2.1.0","time_elapsed":555734},{"target_group":"black","condition_label":"B_H_vs_W_L_rep7","target_direction":255,"distractor_direction":0,"session_rotation":153,"rt":-1,"response":"","correct":false,"choices":"ALL_KEYS","correct_choice":["a"],"trial_duration":2000,"flip_timestamps":[],"response_ends_trial":false,"number_of_apertures":200,"number_of_dots":[1,1,1,1,1,1,1,1,1,1,1,1,1,1,1,1,1,1,1,1,1,1,1,1,1,1,1,1,1,1,1,1,1,1,1,1,1,1,1,1,1,1,1,1,1,1,1,1,1,1,1,1,1,1,1,1,1,1,1,1,1,1,1,1,1,1,1,1,1,1,1,1,1,1,1,1,1,1,1,1,1,1,1,1,1,1,1,1,1,1,1,1,1,1,1,1,1,1,1,1,1,1,1,1,1,1,1,1,1,1,1,1,1,1,1,1,1,1,1,1,1,1,1,1,1,1,1,1,1,1,1,1,1,1,1,1,1,1,1,1,1,1,1,1,1,1,1,1,1,1,1,1,1,1,1,1,1,1,1,1,1,1,1,1,1,1,1,1,1,1,1,1,1,1,1,1,1,1,1,1,1,1,1,1,1,1,1,1,1,1,1,1,1,1,1,1,1,1,1,1],"number_of_sets":1,"coherent_direction":[255,0,255,255,0,0,0,0,255,0,0,255,255,255,255,255,255,255,0,255,0,0,255,255,255,0,0,0,0,255,255,0,0,0,255,0,255,0,255,255,255,0,0,255,255,255,0,255,255,0,0,255,255,255,0,0,0,0,255,0,255,255,255,255,0,255,0,0,0,255,255,0,255,255,255,255,0,0,0,0,255,0,255,0,0,255,0,255,0,0,255,255,255,0,0,255,0,255,0,0,255,0,0,255,255,0,255,0,0,0,255,0,255,0,0,255,0,255,0,0,0,255,255,255,255,0,255,0,0,0,0,255,0,255,255,0,0,0,255,0,255,255,255,255,0,0,255,255,0,0,255,0,0,255,0,255,0,0,255,0,0,255,255,255,0,0,0,0,0,255,255,255,255,0,255,0,0,255,0,0,255,255,255,0,255,255,0,0,0,0,0,255,255,255,0,255,255,255,255,255],"coherence":1,"opposite_coherence":0,"dot_radius":2,"dot_side_length":1,"dot_life":-1,"move_distance":1,"aperture_width":300,"aperture_height":300,"dot_color":["black","white","black","black","white","white","white","white","black","white","white","black","black","black","black","black","black","black","white","black","white","white","black","black","black","white","white","white","white","black","black","white","white","white","black","white","black","white","black","black","black","white","white","black","black","black","white","black","black","white","white","black","black","black","white","white","white","white","black","white","black","black","black","black","white","black","white","white","white","black","black","white","black","black","black","black","white","white","white","white","black","white","black","white","white","black","white","black","white","white","black","black","black","white","white","black","white","black","white","white","black","white","white","black","black","white","black","white","white","white","black","white","black","white","white","black","white","black","white","white","white","black","black","black","black","white","black","white","white","white","white","black","white","black","black","white","white","white","black","white","black","black","black","black","white","white","black","black","white","white","black","white","white","black","white","black","white","white","black","white","white","black","black","black","white","white","white","white","white","black","black","black","black","white","black","white","white","black","white","white","black","black","black","white","black","black","white","white","white","white","white","black","black","black","white","black","black","black","black","black"],"dot_shape":"circle","background_color":"#AAA","RDK_type":3,"aperture_type":2,"reinsert_type":2,"frame_rate":16.741666666666667,"frame_rate_array":[13,8,13,16,17,16,17,17,17,16,17,17,17,17,17,17,18,15,17,17,17,17,17,17,17,17,17,24,9,17,17,17,17,17,16,17,17,17,17,17,17,17,17,17,16,17,17,17,17,16,17,17,17,17,17,17,17,17,17,17,16,18,16,17,17,17,17,17,17,17,17,17,17,17,17,17,16,17,17,17,17,17,17,16,17,17,17,17,17,18,16,17,17,17,17,17,22,11,17,16,17,17,17,17,17,17,17,17,17,17,16,17,17,17,17,17,17,17,17,17],"number_of_frames":120,"aperture_center_x":640,"aperture_center_y":360,"fixation_cross":true,"fixation_cross_width":15,"fixation_cross_height":15,"fixation_cross_color":"#111","fixation_cross_thickness":1,"border":true,"border_thickness":2,"border_color":"transparent","canvas_width":1280,"canvas_height":720,"trial_type":"rdk","trial_index":60,"plugin_version":"2.0.0","time_elapsed":557749},{"rt":4066,"stimulus":"\n        <div class=\"response-container\">\n          <div class=\"response-instruction\">\n            <p>rotate the bar by using the left and right arrow keys.</p>\n            <p>when you are determined, press the Enter key.</p>\n          </div>\n          <div class=\"response-circle\">\n            <div class=\"response-fixation\"></div>\n            <div id=\"bar\" class=\"rotating-bar\"></div>\n          </div>\n        </div>\n      ","response":"Enter","trial_type":"html-keyboard-response","trial_index":61,"plugin_version":"2.1.0","time_elapsed":561817,"response_angle_css":210,"response_angle_rdk":240,"angular_error_target":-15,"angular_error_distractor":-120,"target_direction":255,"target_group":"black","reward_points":7},{"rt":null,"stimulus":"\n          <p style=\"color: #00FF00;\">Your reward: 7 points</p>\n        ","response":null,"trial_type":"html-keyboard-response","trial_index":62,"plugin_version":"2.1.0","time_elapsed":563826},{"rt":null,"stimulus":"<div class=\"fixation\" style=\"font-size: 60px;\">+</div>","response":null,"trial_type":"html-keyboard-response","trial_index":63,"plugin_version":"2.1.0","time_elapsed":564834},{"target_group":"white","condition_label":"W_H_vs_B_L_rep8","target_direction":168,"distractor_direction":73,"session_rotation":153,"rt":-1,"response":"","correct":false,"choices":"ALL_KEYS","correct_choice":["a"],"trial_duration":2000,"flip_timestamps":[],"response_ends_trial":false,"number_of_apertures":200,"number_of_dots":[1,1,1,1,1,1,1,1,1,1,1,1,1,1,1,1,1,1,1,1,1,1,1,1,1,1,1,1,1,1,1,1,1,1,1,1,1,1,1,1,1,1,1,1,1,1,1,1,1,1,1,1,1,1,1,1,1,1,1,1,1,1,1,1,1,1,1,1,1,1,1,1,1,1,1,1,1,1,1,1,1,1,1,1,1,1,1,1,1,1,1,1,1,1,1,1,1,1,1,1,1,1,1,1,1,1,1,1,1,1,1,1,1,1,1,1,1,1,1,1,1,1,1,1,1,1,1,1,1,1,1,1,1,1,1,1,1,1,1,1,1,1,1,1,1,1,1,1,1,1,1,1,1,1,1,1,1,1,1,1,1,1,1,1,1,1,1,1,1,1,1,1,1,1,1,1,1,1,1,1,1,1,1,1,1,1,1,1,1,1,1,1,1,1,1,1,1,1,1,1],"number_of_sets":1,"coherent_direction":[73,168,73,73,73,168,73,73,73,168,73,73,73,168,73,168,73,73,73,73,168,73,168,168,168,73,168,168,73,73,168,168,168,168,73,73,73,168,73,73,73,168,168,168,168,168,168,73,168,73,73,73,168,168,168,73,73,73,168,73,168,168,168,73,73,73,73,73,73,73,73,73,168,73,168,168,168,73,168,168,168,168,168,168,73,73,73,168,168,73,168,73,168,73,168,168,168,168,168,168,73,168,73,73,168,168,73,168,73,168,73,168,168,73,168,168,73,73,168,73,73,168,168,73,168,168,73,73,73,73,168,73,168,168,168,73,73,73,73,168,168,73,168,168,168,73,168,168,168,168,73,73,73,73,73,73,168,73,73,168,168,73,73,168,168,73,73,168,168,73,168,73,168,73,168,168,73,73,168,168,73,73,73,168,73,73,168,73,168,73,73,168,168,168,168,168,168,73,73,168],"coherence":1,"opposite_coherence":0,"dot_radius":2,"dot_side_length":1,"dot_life":-1,"move_distance":1,"aperture_width":300,"aperture_height":300,"dot_color":["black","white","black","black","black","white","black","black","black","white","black","black","black","white","black","white","black","black","black","black","white","black","white","white","white","black","white","white","black","black","white","white","white","white","black","black","black","white","black","black","black","white","white","white","white","white","white","black","white","black","black","black","white","white","white","black","black","black","white","black","white","white","white","black","black","black","black","black","black","black","black","black","white","black","white","white","white","black","white","white","white","white","white","white","black","black","black","white","white","black","white","black","white","black","white","white","white","white","white","white","black","white","black","black","white","white","black","white","black","white","black","white","white","black","white","white","black","black","white","black","black","white","white","black","white","white","black","black","black","black","white","black","white","white","white","black","black","black","black","white","white","black","white","white","white","black","white","white","white","white","black","black","black","black","black","black","white","black","black","white","white","black","black","white","white","black","black","white","white","black","white","black","white","black","white","white","black","black","white","white","black","black","black","white","black","black","white","black","white","black","black","white","white","white","white","white","white","black","black","white"],"dot_shape":"circle","background_color":"#AAA","RDK_type":3,"aperture_type":2,"reinsert_type":2,"frame_rate":16.793388429752067,"frame_rate_array":[13,11,14,16,17,17,16,17,17,17,17,17,17,17,17,16,17,17,17,16,17,17,17,17,17,17,17,17,17,17,17,17,17,17,17,17,17,17,17,17,17,17,17,17,17,17,17,17,17,17,17,17,17,17,17,17,16,17,16,17,17,17,17,17,18,15,17,16,17,17,17,17,17,17,17,16,17,17,17,17,17,17,17,16,17,16,17,17,17,17,17,17,17,17,17,17,17,17,17,17,17,17,17,17,17,17,17,17,17,17,17,16,17,17,17,17,17,17,17,17,17],"number_of_frames":121,"aperture_center_x":640,"aperture_center_y":360,"fixation_cross":true,"fixation_cross_width":15,"fixation_cross_height":15,"fixation_cross_color":"#111","fixation_cross_thickness":1,"border":true,"border_thickness":2,"border_color":"transparent","canvas_width":1280,"canvas_height":720,"trial_type":"rdk","trial_index":64,"plugin_version":"2.0.0","time_elapsed":566849},{"rt":5938,"stimulus":"\n        <div class=\"response-container\">\n          <div class=\"response-instruction\">\n            <p>rotate the bar by using the left and right arrow keys.</p>\n            <p>when you are determined, press the Enter key.</p>\n          </div>\n          <div class=\"response-circle\">\n            <div class=\"response-fixation\"></div>\n            <div id=\"bar\" class=\"rotating-bar\"></div>\n          </div>\n        </div>\n      ","response":"Enter","trial_type":"html-keyboard-response","trial_index":65,"plugin_version":"2.1.0","time_elapsed":572799,"response_angle_css":274,"response_angle_rdk":176,"angular_error_target":8,"angular_error_distractor":103,"target_direction":168,"target_group":"white","reward_points":8},{"rt":null,"stimulus":"\n          <p style=\"color: #00FF00;\">Your reward: 8 points</p>\n        ","response":null,"trial_type":"html-keyboard-response","trial_index":66,"plugin_version":"2.1.0","time_elapsed":574812},{"rt":null,"stimulus":"<div class=\"fixation\" style=\"font-size: 60px;\">+</div>","response":null,"trial_type":"html-keyboard-response","trial_index":67,"plugin_version":"2.1.0","time_elapsed":575822},{"target_group":"black","condition_label":"B_H_vs_W_L_rep5","target_direction":255,"distractor_direction":9,"session_rotation":153,"rt":-1,"response":"","correct":false,"choices":"ALL_KEYS","correct_choice":["a"],"trial_duration":2000,"flip_timestamps":[],"response_ends_trial":false,"number_of_apertures":200,"number_of_dots":[1,1,1,1,1,1,1,1,1,1,1,1,1,1,1,1,1,1,1,1,1,1,1,1,1,1,1,1,1,1,1,1,1,1,1,1,1,1,1,1,1,1,1,1,1,1,1,1,1,1,1,1,1,1,1,1,1,1,1,1,1,1,1,1,1,1,1,1,1,1,1,1,1,1,1,1,1,1,1,1,1,1,1,1,1,1,1,1,1,1,1,1,1,1,1,1,1,1,1,1,1,1,1,1,1,1,1,1,1,1,1,1,1,1,1,1,1,1,1,1,1,1,1,1,1,1,1,1,1,1,1,1,1,1,1,1,1,1,1,1,1,1,1,1,1,1,1,1,1,1,1,1,1,1,1,1,1,1,1,1,1,1,1,1,1,1,1,1,1,1,1,1,1,1,1,1,1,1,1,1,1,1,1,1,1,1,1,1,1,1,1,1,1,1,1,1,1,1,1,1],"number_of_sets":1,"coherent_direction":[9,9,9,255,255,255,255,255,255,9,255,255,255,255,9,255,255,255,9,9,255,9,255,9,9,255,9,255,255,255,9,255,9,9,255,9,255,255,9,9,255,255,9,9,255,255,255,9,255,255,255,9,9,255,9,9,255,9,9,9,9,255,9,9,9,9,9,9,9,9,255,9,255,255,255,9,255,255,9,255,9,255,255,255,255,9,9,9,255,9,9,255,255,9,255,255,255,255,9,9,255,9,255,9,255,9,9,9,255,9,9,9,255,9,255,9,9,9,9,9,255,255,9,9,255,9,9,255,255,9,255,255,255,255,9,255,255,255,255,9,255,255,9,255,9,9,9,255,255,9,255,9,255,255,255,255,255,9,9,9,255,255,255,9,255,9,255,9,9,255,9,9,255,9,9,255,9,9,9,255,9,255,255,255,9,9,9,9,9,9,255,255,9,255,9,255,255,9,9,255],"coherence":1,"opposite_coherence":0,"dot_radius":2,"dot_side_length":1,"dot_life":-1,"move_distance":1,"aperture_width":300,"aperture_height":300,"dot_color":["white","white","white","black","black","black","black","black","black","white","black","black","black","black","white","black","black","black","white","white","black","white","black","white","white","black","white","black","black","black","white","black","white","white","black","white","black","black","white","white","black","black","white","white","black","black","black","white","black","black","black","white","white","black","white","white","black","white","white","white","white","black","white","white","white","white","white","white","white","white","black","white","black","black","black","white","black","black","white","black","white","black","black","black","black","white","white","white","black","white","white","black","black","white","black","black","black","black","white","white","black","white","black","white","black","white","white","white","black","white","white","white","black","white","black","white","white","white","white","white","black","black","white","white","black","white","white","black","black","white","black","black","black","black","white","black","black","black","black","white","black","black","white","black","white","white","white","black","black","white","black","white","black","black","black","black","black","white","white","white","black","black","black","white","black","white","black","white","white","black","white","white","black","white","white","black","white","white","white","black","white","black","black","black","white","white","white","white","white","white","black","black","white","black","white","black","black","white","white","black"],"dot_shape":"circle","background_color":"#AAA","RDK_type":3,"aperture_type":2,"reinsert_type":2,"frame_rate":16.833333333333332,"frame_rate_array":[12,10,18,16,17,17,17,17,17,17,17,17,17,17,17,16,17,17,17,17,17,17,17,17,17,17,17,17,17,17,17,17,17,17,17,17,17,17,17,17,17,17,17,17,17,17,17,17,17,17,17,17,17,17,17,17,17,17,17,17,17,16,17,16,16,17,17,17,17,17,17,17,17,17,16,17,17,17,17,17,17,16,17,17,17,17,17,17,16,17,17,17,17,17,17,17,17,17,17,17,17,17,17,17,16,17,17,17,17,17,17,17,17,17,17,17,17,17,17,17],"number_of_frames":120,"aperture_center_x":640,"aperture_center_y":360,"fixation_cross":true,"fixation_cross_width":15,"fixation_cross_height":15,"fixation_cross_color":"#111","fixation_cross_thickness":1,"border":true,"border_thickness":2,"border_color":"transparent","canvas_width":1280,"canvas_height":720,"trial_type":"rdk","trial_index":68,"plugin_version":"2.0.0","time_elapsed":577836},{"rt":6956,"stimulus":"\n        <div class=\"response-container\">\n          <div class=\"response-instruction\">\n            <p>rotate the bar by using the left and right arrow keys.</p>\n            <p>when you are determined, press the Enter key.</p>\n          </div>\n          <div class=\"response-circle\">\n            <div class=\"response-fixation\"></div>\n            <div id=\"bar\" class=\"rotating-bar\"></div>\n          </div>\n        </div>\n      ","response":"Enter","trial_type":"html-keyboard-response","trial_index":69,"plugin_version":"2.1.0","time_elapsed":584793,"response_angle_css":211,"response_angle_rdk":239,"angular_error_target":-16,"angular_error_distractor":-130,"target_direction":255,"target_group":"black","reward_points":6},{"rt":null,"stimulus":"\n          <p style=\"color: #00FF00;\">Your reward: 6 points</p>\n        ","response":null,"trial_type":"html-keyboard-response","trial_index":70,"plugin_version":"2.1.0","time_elapsed":586811},{"rt":null,"stimulus":"<div class=\"fixation\" style=\"font-size: 60px;\">+</div>","response":null,"trial_type":"html-keyboard-response","trial_index":71,"plugin_version":"2.1.0","time_elapsed":587816},{"target_group":"black","condition_label":"B_H_vs_W_L_rep1","target_direction":256,"distractor_direction":355,"session_rotation":153,"rt":-1,"response":"","correct":false,"choices":"ALL_KEYS","correct_choice":["a"],"trial_duration":2000,"flip_timestamps":[],"response_ends_trial":false,"number_of_apertures":200,"number_of_dots":[1,1,1,1,1,1,1,1,1,1,1,1,1,1,1,1,1,1,1,1,1,1,1,1,1,1,1,1,1,1,1,1,1,1,1,1,1,1,1,1,1,1,1,1,1,1,1,1,1,1,1,1,1,1,1,1,1,1,1,1,1,1,1,1,1,1,1,1,1,1,1,1,1,1,1,1,1,1,1,1,1,1,1,1,1,1,1,1,1,1,1,1,1,1,1,1,1,1,1,1,1,1,1,1,1,1,1,1,1,1,1,1,1,1,1,1,1,1,1,1,1,1,1,1,1,1,1,1,1,1,1,1,1,1,1,1,1,1,1,1,1,1,1,1,1,1,1,1,1,1,1,1,1,1,1,1,1,1,1,1,1,1,1,1,1,1,1,1,1,1,1,1,1,1,1,1,1,1,1,1,1,1,1,1,1,1,1,1,1,1,1,1,1,1,1,1,1,1,1,1],"number_of_sets":1,"coherent_direction":[256,355,256,355,355,256,355,256,256,355,256,355,256,256,355,355,256,355,355,355,256,355,355,256,355,256,256,355,256,256,256,355,256,355,355,256,355,355,355,355,355,355,355,256,256,256,256,355,355,256,256,355,256,256,355,256,355,256,355,355,256,355,355,355,256,355,256,355,256,355,256,256,355,256,256,355,355,355,355,256,256,256,355,355,256,256,256,256,355,355,355,256,355,256,256,256,256,355,355,256,355,256,355,256,256,256,355,256,355,355,256,256,355,256,355,355,355,355,355,256,256,256,355,256,256,256,355,355,355,256,355,256,256,256,355,256,256,355,355,256,355,256,256,355,355,256,355,256,355,256,355,256,256,355,256,256,256,355,355,256,256,355,355,355,256,256,256,355,256,355,256,355,256,256,355,355,256,355,256,355,256,355,355,256,256,355,256,355,355,355,256,355,355,355,256,256,355,355,256,256],"coherence":1,"opposite_coherence":0,"dot_radius":2,"dot_side_length":1,"dot_life":-1,"move_distance":1,"aperture_width":300,"aperture_height":300,"dot_color":["black","white","black","white","white","black","white","black","black","white","black","white","black","black","white","white","black","white","white","white","black","white","white","black","white","black","black","white","black","black","black","white","black","white","white","black","white","white","white","white","white","white","white","black","black","black","black","white","white","black","black","white","black","black","white","black","white","black","white","white","black","white","white","white","black","white","black","white","black","white","black","black","white","black","black","white","white","white","white","black","black","black","white","white","black","black","black","black","white","white","white","black","white","black","black","black","black","white","white","black","white","black","white","black","black","black","white","black","white","white","black","black","white","black","white","white","white","white","white","black","black","black","white","black","black","black","white","white","white","black","white","black","black","black","white","black","black","white","white","black","white","black","black","white","white","black","white","black","white","black","white","black","black","white","black","black","black","white","white","black","black","white","white","white","black","black","black","white","black","white","black","white","black","black","white","white","black","white","black","white","black","white","white","black","black","white","black","white","white","white","black","white","white","white","black","black","white","white","black","black"],"dot_shape":"circle","background_color":"#AAA","RDK_type":3,"aperture_type":2,"reinsert_type":2,"frame_rate":16.866666666666667,"frame_rate_array":[11,13,17,16,17,17,17,17,17,17,17,17,17,17,17,17,17,17,17,17,17,17,17,17,17,17,17,17,17,17,17,17,17,17,17,17,17,17,17,17,17,17,17,17,17,17,17,16,17,17,17,17,17,17,16,17,17,17,17,17,17,16,17,17,17,17,17,16,17,17,17,17,17,17,17,17,17,17,17,17,17,17,17,17,17,17,17,17,17,17,17,16,17,17,17,17,17,17,17,17,17,17,17,17,17,17,17,17,17,17,17,17,17,17,17,17,17,17,17,17],"number_of_frames":120,"aperture_center_x":640,"aperture_center_y":360,"fixation_cross":true,"fixation_cross_width":15,"fixation_cross_height":15,"fixation_cross_color":"#111","fixation_cross_thickness":1,"border":true,"border_thickness":2,"border_color":"transparent","canvas_width":1280,"canvas_height":720,"trial_type":"rdk","trial_index":72,"plugin_version":"2.0.0","time_elapsed":589832},{"rt":3928,"stimulus":"\n        <div class=\"response-container\">\n          <div class=\"response-instruction\">\n            <p>rotate the bar by using the left and right arrow keys.</p>\n            <p>when you are determined, press the Enter key.</p>\n          </div>\n          <div class=\"response-circle\">\n            <div class=\"response-fixation\"></div>\n            <div id=\"bar\" class=\"rotating-bar\"></div>\n          </div>\n        </div>\n      ","response":"Enter","trial_type":"html-keyboard-response","trial_index":73,"plugin_version":"2.1.0","time_elapsed":593761,"response_angle_css":196,"response_angle_rdk":254,"angular_error_target":-2,"angular_error_distractor":-101,"target_direction":256,"target_group":"black","reward_points":9},{"rt":null,"stimulus":"\n          <p style=\"color: #00FF00;\">Your reward: 9 points</p>\n        ","response":null,"trial_type":"html-keyboard-response","trial_index":74,"plugin_version":"2.1.0","time_elapsed":595769},{"rt":null,"stimulus":"<div class=\"fixation\" style=\"font-size: 60px;\">+</div>","response":null,"trial_type":"html-keyboard-response","trial_index":75,"plugin_version":"2.1.0","time_elapsed":596774},{"target_group":"white","condition_label":"W_H_vs_B_L_rep25","target_direction":194,"distractor_direction":89,"session_rotation":153,"rt":-1,"response":"","correct":false,"choices":"ALL_KEYS","correct_choice":["a"],"trial_duration":2000,"flip_timestamps":[],"response_ends_trial":false,"number_of_apertures":200,"number_of_dots":[1,1,1,1,1,1,1,1,1,1,1,1,1,1,1,1,1,1,1,1,1,1,1,1,1,1,1,1,1,1,1,1,1,1,1,1,1,1,1,1,1,1,1,1,1,1,1,1,1,1,1,1,1,1,1,1,1,1,1,1,1,1,1,1,1,1,1,1,1,1,1,1,1,1,1,1,1,1,1,1,1,1,1,1,1,1,1,1,1,1,1,1,1,1,1,1,1,1,1,1,1,1,1,1,1,1,1,1,1,1,1,1,1,1,1,1,1,1,1,1,1,1,1,1,1,1,1,1,1,1,1,1,1,1,1,1,1,1,1,1,1,1,1,1,1,1,1,1,1,1,1,1,1,1,1,1,1,1,1,1,1,1,1,1,1,1,1,1,1,1,1,1,1,1,1,1,1,1,1,1,1,1,1,1,1,1,1,1,1,1,1,1,1,1,1,1,1,1,1,1],"number_of_sets":1,"coherent_direction":[89,194,194,89,194,194,194,194,194,89,194,194,194,89,194,89,194,89,194,194,194,89,194,89,194,194,194,194,194,89,89,89,194,89,194,194,194,89,89,194,89,89,89,194,89,89,89,89,194,194,89,194,89,89,89,89,89,194,194,89,194,89,89,89,194,194,89,89,89,194,194,89,89,194,89,194,89,194,194,89,194,89,89,194,89,194,194,194,194,194,89,89,194,89,89,194,89,194,194,194,89,89,194,194,89,194,89,194,89,89,194,194,89,194,89,194,194,89,89,194,194,89,89,194,89,89,194,89,194,194,89,89,89,194,89,89,194,194,89,194,194,194,194,194,194,194,89,89,89,89,89,89,89,194,89,194,89,89,89,194,89,194,89,194,194,89,194,89,89,89,89,194,194,89,194,89,89,89,194,194,194,89,194,194,89,194,194,89,89,89,194,89,194,194,194,89,89,194,89,89],"coherence":1,"opposite_coherence":0,"dot_radius":2,"dot_side_length":1,"dot_life":-1,"move_distance":1,"aperture_width":300,"aperture_height":300,"dot_color":["black","white","white","black","white","white","white","white","white","black","white","white","white","black","white","black","white","black","white","white","white","black","white","black","white","white","white","white","white","black","black","black","white","black","white","white","white","black","black","white","black","black","black","white","black","black","black","black","white","white","black","white","black","black","black","black","black","white","white","black","white","black","black","black","white","white","black","black","black","white","white","black","black","white","black","white","black","white","white","black","white","black","black","white","black","white","white","white","white","white","black","black","white","black","black","white","black","white","white","white","black","black","white","white","black","white","black","white","black","black","white","white","black","white","black","white","white","black","black","white","white","black","black","white","black","black","white","black","white","white","black","black","black","white","black","black","white","white","black","white","white","white","white","white","white","white","black","black","black","black","black","black","black","white","black","white","black","black","black","white","black","white","black","white","white","black","white","black","black","black","black","white","white","black","white","black","black","black","white","white","white","black","white","white","black","white","white","black","black","black","white","black","white","white","white","black","black","white","black","black"],"dot_shape":"circle","background_color":"#AAA","RDK_type":3,"aperture_type":2,"reinsert_type":2,"frame_rate":16.793388429752067,"frame_rate_array":[13,17,16,17,17,17,16,16,17,23,14,15,16,16,17,17,17,17,17,17,17,17,17,17,16,17,17,17,17,17,16,17,17,16,17,17,16,17,17,17,17,17,15,17,17,17,17,17,17,17,17,16,17,16,17,17,17,17,17,17,17,17,17,17,17,16,17,17,17,18,16,17,17,16,17,19,14,16,17,16,17,17,17,17,17,17,17,17,18,16,17,16,17,17,17,16,17,17,17,17,17,19,15,17,16,17,17,17,17,17,18,16,17,17,17,17,17,16,17,17,17],"number_of_frames":121,"aperture_center_x":640,"aperture_center_y":360,"fixation_cross":true,"fixation_cross_width":15,"fixation_cross_height":15,"fixation_cross_color":"#111","fixation_cross_thickness":1,"border":true,"border_thickness":2,"border_color":"transparent","canvas_width":1280,"canvas_height":720,"trial_type":"rdk","trial_index":76,"plugin_version":"2.0.0","time_elapsed":598798},{"rt":5957,"stimulus":"\n        <div class=\"response-container\">\n          <div class=\"response-instruction\">\n            <p>rotate the bar by using the left and right arrow keys.</p>\n            <p>when you are determined, press the Enter key.</p>\n          </div>\n          <div class=\"response-circle\">\n            <div class=\"response-fixation\"></div>\n            <div id=\"bar\" class=\"rotating-bar\"></div>\n          </div>\n        </div>\n      ","response":"Enter","trial_type":"html-keyboard-response","trial_index":77,"plugin_version":"2.1.0","time_elapsed":604755,"response_angle_css":254,"response_angle_rdk":196,"angular_error_target":2,"angular_error_distractor":107,"target_direction":194,"target_group":"white","reward_points":9},{"rt":null,"stimulus":"\n          <p style=\"color: #00FF00;\">Your reward: 9 points</p>\n        ","response":null,"trial_type":"html-keyboard-response","trial_index":78,"plugin_version":"2.1.0","time_elapsed":606769},{"rt":null,"stimulus":"<div class=\"fixation\" style=\"font-size: 60px;\">+</div>","response":null,"trial_type":"html-keyboard-response","trial_index":79,"plugin_version":"2.1.0","time_elapsed":607779},{"target_group":"white","condition_label":"W_H_vs_B_L_rep13","target_direction":196,"distractor_direction":83,"session_rotation":153,"rt":-1,"response":"","correct":false,"choices":"ALL_KEYS","correct_choice":["a"],"trial_duration":2000,"flip_timestamps":[],"response_ends_trial":false,"number_of_apertures":200,"number_of_dots":[1,1,1,1,1,1,1,1,1,1,1,1,1,1,1,1,1,1,1,1,1,1,1,1,1,1,1,1,1,1,1,1,1,1,1,1,1,1,1,1,1,1,1,1,1,1,1,1,1,1,1,1,1,1,1,1,1,1,1,1,1,1,1,1,1,1,1,1,1,1,1,1,1,1,1,1,1,1,1,1,1,1,1,1,1,1,1,1,1,1,1,1,1,1,1,1,1,1,1,1,1,1,1,1,1,1,1,1,1,1,1,1,1,1,1,1,1,1,1,1,1,1,1,1,1,1,1,1,1,1,1,1,1,1,1,1,1,1,1,1,1,1,1,1,1,1,1,1,1,1,1,1,1,1,1,1,1,1,1,1,1,1,1,1,1,1,1,1,1,1,1,1,1,1,1,1,1,1,1,1,1,1,1,1,1,1,1,1,1,1,1,1,1,1,1,1,1,1,1,1],"number_of_sets":1,"coherent_direction":[196,196,196,196,83,196,83,196,196,196,83,196,196,196,83,196,83,196,83,196,196,196,196,196,196,83,196,83,196,83,83,196,83,83,196,196,83,83,196,83,196,196,196,196,83,83,196,196,196,196,83,83,83,196,83,196,83,83,196,196,83,196,196,196,83,83,196,83,83,196,196,196,83,196,196,83,83,196,196,196,196,196,196,83,196,83,83,196,196,83,83,83,83,83,83,196,196,83,83,83,196,196,83,83,196,83,196,196,83,196,196,83,83,83,83,83,196,83,83,83,83,196,196,83,83,83,83,83,83,83,83,196,196,83,83,83,83,196,196,83,196,196,196,196,196,196,196,83,196,83,196,83,196,196,83,196,196,83,83,196,83,196,196,196,83,196,83,196,196,196,83,83,83,83,83,83,83,196,83,83,83,83,83,83,83,196,83,196,83,83,83,196,83,196,83,83,83,196,196,196],"coherence":1,"opposite_coherence":0,"dot_radius":2,"dot_side_length":1,"dot_life":-1,"move_distance":1,"aperture_width":300,"aperture_height":300,"dot_color":["white","white","white","white","black","white","black","white","white","white","black","white","white","white","black","white","black","white","black","white","white","white","white","white","white","black","white","black","white","black","black","white","black","black","white","white","black","black","white","black","white","white","white","white","black","black","white","white","white","white","black","black","black","white","black","white","black","black","white","white","black","white","white","white","black","black","white","black","black","white","white","white","black","white","white","black","black","white","white","white","white","white","white","black","white","black","black","white","white","black","black","black","black","black","black","white","white","black","black","black","white","white","black","black","white","black","white","white","black","white","white","black","black","black","black","black","white","black","black","black","black","white","white","black","black","black","black","black","black","black","black","white","white","black","black","black","black","white","white","black","white","white","white","white","white","white","white","black","white","black","white","black","white","white","black","white","white","black","black","white","black","white","white","white","black","white","black","white","white","white","black","black","black","black","black","black","black","white","black","black","black","black","black","black","black","white","black","white","black","black","black","white","black","white","black","black","black","white","white","white"],"dot_shape":"circle","background_color":"#AAA","RDK_type":3,"aperture_type":2,"reinsert_type":2,"frame_rate":16.775,"frame_rate_array":[12,8,16,17,17,22,12,17,17,17,17,17,17,17,17,17,17,16,17,17,17,17,17,17,17,17,17,17,17,17,17,17,17,17,18,15,17,17,17,17,17,17,17,17,17,17,17,17,17,17,17,17,17,17,16,17,17,17,17,17,17,17,16,17,16,17,17,17,17,17,17,17,17,22,11,17,17,17,17,17,17,17,17,17,17,16,17,17,17,17,17,17,16,17,17,17,17,17,16,17,17,17,17,17,17,17,16,16,17,17,17,17,17,17,17,16,17,17,17,17],"number_of_frames":120,"aperture_center_x":640,"aperture_center_y":360,"fixation_cross":true,"fixation_cross_width":15,"fixation_cross_height":15,"fixation_cross_color":"#111","fixation_cross_thickness":1,"border":true,"border_thickness":2,"border_color":"transparent","canvas_width":1280,"canvas_height":720,"trial_type":"rdk","trial_index":80,"plugin_version":"2.0.0","time_elapsed":609791},{"rt":4709,"stimulus":"\n        <div class=\"response-container\">\n          <div class=\"response-instruction\">\n            <p>rotate the bar by using the left and right a