[{"rt":88419,"stimulus":"Welcome to the experiment. Press any key to begin.","response":" ","trial_type":"html-keyboard-response","trial_index":0,"plugin_version":"2.1.0","time_elapsed":88423},{"rt":174093,"stimulus":"\n        <div class=\"instructions-container\">\n          <h2>Instructions</h2>\n\n          <p>\n          In this experiment, you will see <strong>two Random Dot Kinematograms (RDKs)</strong> displayed simultaneously.\n          </p>\n\n          <p>\n          An RDK is a visual stimulus consisting of many small dots that move coherently in a single direction. \n          In this experiment, the dots will be either <strong>white</strong> or <strong>black</strong> \n          (see the short demo below for an example of an RDK stimulus).\n          </p>\n\n          <p>\n          On each trial, the two RDKs will move in different directions. \n          Your task is to decide <strong>which RDK appears to contain more dots</strong>.\n          </p>\n\n          <p>\n          The RDK that you judge to have more dots is called the <strong>target RDK</strong>. \n          For example, if the white RDK appears to have more dots than the black RDK, \n          you should report the motion direction of the white RDK.\n          </p>\n\n          <p>\n          After viewing the RDKs, you will rotate a bar to indicate the perceived direction of the target RDK \n          using the <strong>left</strong> and <strong>right arrow keys</strong>. \n          Press <strong>Enter</strong> when you are satisfied with your response.\n          </p>\n\n          <p>\n          You will receive points based on the <strong>accuracy of your response</strong>, \n          and your final <strong>bonus reward</strong> may depend on your overall performance. \n          Please try to respond as accurately as possible.\n          </p>\n\n          <p>\n          You will first complete <strong>three practice trials</strong>. \n          Press the <strong>Enter</strong> key to start the practice phase.\n          </p>\n\n          <canvas id=\"instruction-demo-rdk\" width=\"300\" height=\"300\"style=\"display:block;margin:12px auto; border-radius: 50%;\"></canvas>\n        </div>\n      ","response":"Enter","trial_type":"html-keyboard-response","trial_index":1,"plugin_version":"2.1.0","time_elapsed":262520},{"rt":null,"stimulus":"<div class=\"fixation\" style=\"font-size: 60px;\">+</div>","response":null,"trial_type":"html-keyboard-response","trial_index":2,"plugin_version":"2.1.0","time_elapsed":263524},{"target_group":"black","target_index":1,"condition_label":"B_H_vs_W_L","rt":-1,"response":"","correct":false,"choices":"ALL_KEYS","correct_choice":["a"],"trial_duration":2000,"flip_timestamps":[],"response_ends_trial":false,"number_of_apertures":2,"number_of_dots":[50,100],"number_of_sets":1,"coherent_direction":[10,100],"coherence":1,"opposite_coherence":0,"dot_radius":2,"dot_side_length":1,"dot_life":-1,"move_distance":1,"aperture_width":300,"aperture_height":300,"dot_color":["white","black"],"dot_shape":"circle","background_color":"#AAA","RDK_type":3,"aperture_type":2,"reinsert_type":2,"frame_rate":16.741666666666667,"frame_rate_array":[5,18,18,16,17,17,16,16,17,17,17,17,17,17,17,17,17,17,17,16,17,17,17,17,17,17,17,17,17,17,17,17,17,17,17,17,17,17,17,16,17,16,17,17,17,16,16,17,17,17,16,17,16,17,17,17,17,17,16,17,17,16,17,17,17,16,17,17,17,17,17,17,17,16,17,16,17,17,17,17,17,17,17,16,17,17,17,17,17,17,16,17,17,17,17,17,17,17,17,17,16,17,16,17,17,17,17,17,17,17,16,17,17,17,16,17,17,17,17,17],"number_of_frames":120,"aperture_center_x":960,"aperture_center_y":540,"fixation_cross":true,"fixation_cross_width":15,"fixation_cross_height":15,"fixation_cross_color":"#111","fixation_cross_thickness":1,"border":true,"border_thickness":2,"border_color":"transparent","canvas_width":1920,"canvas_height":1080,"trial_type":"rdk","trial_index":3,"plugin_version":"2.0.0","time_elapsed":265537,"target_direction":100,"distractor_direction":10},{"rt":24383,"stimulus":"\n        <div class=\"response-container\">\n          <div class=\"response-instruction\">\n            <p>rotate the bar by using the left and right arrow keys.</p>\n            <p>when you are determined, press the Enter key.</p>\n          </div>\n          <div class=\"response-circle\">\n            <div class=\"response-fixation\"></div>\n            <div id=\"bar\" class=\"rotating-bar\"></div>\n          </div>\n        </div>\n      ","response":"Enter","trial_type":"html-keyboard-response","trial_index":4,"plugin_version":"2.1.0","time_elapsed":289923,"response_angle_css":-14,"response_angle_rdk":104,"angular_error_target":4,"angular_error_distractor":94,"target_direction":100,"target_group":"black","reward_points":9},{"rt":null,"stimulus":"\n          <p style=\"color: #00FF00;\">Your reward: 9 points</p>\n        ","response":null,"trial_type":"html-keyboard-response","trial_index":5,"plugin_version":"2.1.0","time_elapsed":291932},{"rt":null,"stimulus":"<div class=\"fixation\" style=\"font-size: 60px;\">+</div>","response":null,"trial_type":"html-keyboard-response","trial_index":6,"plugin_version":"2.1.0","time_elapsed":292948},{"target_group":"white","target_index":0,"condition_label":"W_H_vs_B_L","rt":-1,"response":"","correct":false,"choices":"ALL_KEYS","correct_choice":["a"],"trial_duration":2000,"flip_timestamps":[],"response_ends_trial":false,"number_of_apertures":2,"number_of_dots":[100,50],"number_of_sets":1,"coherent_direction":[150,30],"coherence":1,"opposite_coherence":0,"dot_radius":2,"dot_side_length":1,"dot_life":-1,"move_distance":1,"aperture_width":300,"aperture_height":300,"dot_color":["white","black"],"dot_shape":"circle","background_color":"#AAA","RDK_type":3,"aperture_type":2,"reinsert_type":2,"frame_rate":16.741666666666667,"frame_rate_array":[10,17,17,17,17,16,17,16,17,17,17,17,16,17,16,17,16,16,17,16,17,17,16,17,17,17,17,17,17,17,17,16,17,16,17,17,17,17,17,16,17,17,17,17,17,17,17,17,16,17,16,17,16,17,17,17,17,17,17,17,17,17,17,17,17,16,17,16,17,17,16,17,17,17,17,17,16,17,16,17,17,17,17,17,17,17,17,17,17,17,17,16,17,17,17,17,16,17,17,17,16,17,16,17,17,17,17,17,17,17,16,17,17,17,17,17,17,17,17,17],"number_of_frames":120,"aperture_center_x":960,"aperture_center_y":540,"fixation_cross":true,"fixation_cross_width":15,"fixation_cross_height":15,"fixation_cross_color":"#111","fixation_cross_thickness":1,"border":true,"border_thickness":2,"border_color":"transparent","canvas_width":1920,"canvas_height":1080,"trial_type":"rdk","trial_index":7,"plugin_version":"2.0.0","time_elapsed":294962,"target_direction":150,"distractor_direction":30},{"rt":3118,"stimulus":"\n        <div class=\"response-container\">\n          <div class=\"response-instruction\">\n            <p>rotate the bar by using the left and right arrow keys.</p>\n            <p>when you are determined, press the Enter key.</p>\n          </div>\n          <div class=\"response-circle\">\n            <div class=\"response-fixation\"></div>\n            <div id=\"bar\" class=\"rotating-bar\"></div>\n          </div>\n        </div>\n      ","response":"Enter","trial_type":"html-keyboard-response","trial_index":8,"plugin_version":"2.1.0","time_elapsed":298083,"response_angle_css":286,"response_angle_rdk":164,"angular_error_target":14,"angular_error_distractor":134,"target_direction":150,"target_group":"white","reward_points":7},{"rt":null,"stimulus":"\n          <p style=\"color: #00FF00;\">Your reward: 7 points</p>\n        ","response":null,"trial_type":"html-keyboard-response","trial_index":9,"plugin_version":"2.1.0","time_elapsed":300095},{"rt":null,"stimulus":"<div class=\"fixation\" style=\"font-size: 60px;\">+</div>","response":null,"trial_type":"html-keyboard-response","trial_index":10,"plugin_version":"2.1.0","time_elapsed":301112},{"target_group":"black","target_index":1,"condition_label":"B_H_vs_W_L","rt":31,"response":"ArrowRight","correct":false,"choices":"ALL_KEYS","correct_choice":["a"],"trial_duration":2000,"flip_timestamps":[],"response_ends_trial":false,"number_of_apertures":2,"number_of_dots":[50,100],"number_of_sets":1,"coherent_direction":[270,180],"coherence":1,"opposite_coherence":0,"dot_radius":2,"dot_side_length":1,"dot_life":-1,"move_distance":1,"aperture_width":300,"aperture_height":300,"dot_color":["white","black"],"dot_shape":"circle","background_color":"#AAA","RDK_type":3,"aperture_type":2,"reinsert_type":2,"frame_rate":16.766666666666666,"frame_rate_array":[9,18,17,17,17,17,17,16,17,17,17,17,17,17,17,17,17,17,17,16,17,16,17,17,17,17,17,17,17,17,17,17,17,16,17,17,17,17,17,17,17,17,16,17,17,17,17,17,16,17,17,17,17,17,17,17,17,16,17,17,16,17,17,16,16,17,17,17,16,17,17,17,17,17,16,17,16,17,17,17,17,16,17,16,17,17,17,17,17,16,17,17,17,17,17,17,17,16,17,16,17,16,17,16,17,17,17,17,17,17,17,17,17,17,17,17,16,17,17,17],"number_of_frames":120,"aperture_center_x":960,"aperture_center_y":540,"fixation_cross":true,"fixation_cross_width":15,"fixation_cross_height":15,"fixation_cross_color":"#111","fixation_cross_thickness":1,"border":true,"border_thickness":2,"border_color":"transparent","canvas_width":1920,"canvas_height":1080,"trial_type":"rdk","trial_index":11,"plugin_version":"2.0.0","time_elapsed":303126,"target_direction":180,"distractor_direction":270},{"rt":6881,"stimulus":"\n        <div class=\"response-container\">\n          <div class=\"response-instruction\">\n            <p>rotate the bar by using the left and right arrow keys.</p>\n            <p>when you are determined, press the Enter key.</p>\n          </div>\n          <div class=\"response-circle\">\n            <div class=\"response-fixation\"></div>\n            <div id=\"bar\" class=\"rotating-bar\"></div>\n          </div>\n        </div>\n      ","response":"Enter","trial_type":"html-keyboard-response","trial_index":12,"plugin_version":"2.1.0","time_elapsed":310009,"response_angle_css":232,"response_angle_rdk":218,"angular_error_target":38,"angular_error_distractor":-52,"target_direction":180,"target_group":"black","reward_points":2},{"rt":null,"stimulus":"\n          <p style=\"color: #FF3333;\">Your reward: 2 points</p>\n        ","response":null,"trial_type":"html-keyboard-response","trial_index":13,"plugin_version":"2.1.0","time_elapsed":312025},{"rt":33499,"stimulus":"\n        <div class=\"instructions-container\">\n          <h2>End of Practice</h2>\n          <p>You have completed the practice trials.</p>\n          <p>Press <strong>Enter</strong> key to begin the main experiment.</p>\n        </div>\n      ","response":"Enter","trial_type":"html-keyboard-response","trial_index":14,"plugin_version":"2.1.0","time_elapsed":345527},{"rt":null,"stimulus":"<div class=\"fixation\" style=\"font-size: 60px;\">+</div>","response":null,"trial_type":"html-keyboard-response","trial_index":15,"plugin_version":"2.1.0","time_elapsed":346533},{"target_group":"white","condition_label":"W_H_vs_B_L_rep23","target_direction":268,"distractor_direction":175,"session_rotation":256,"rt":-1,"response":"","correct":false,"choices":"ALL_KEYS","correct_choice":["a"],"trial_duration":2000,"flip_timestamps":[],"response_ends_trial":false,"number_of_apertures":200,"number_of_dots":[1,1,1,1,1,1,1,1,1,1,1,1,1,1,1,1,1,1,1,1,1,1,1,1,1,1,1,1,1,1,1,1,1,1,1,1,1,1,1,1,1,1,1,1,1,1,1,1,1,1,1,1,1,1,1,1,1,1,1,1,1,1,1,1,1,1,1,1,1,1,1,1,1,1,1,1,1,1,1,1,1,1,1,1,1,1,1,1,1,1,1,1,1,1,1,1,1,1,1,1,1,1,1,1,1,1,1,1,1,1,1,1,1,1,1,1,1,1,1,1,1,1,1,1,1,1,1,1,1,1,1,1,1,1,1,1,1,1,1,1,1,1,1,1,1,1,1,1,1,1,1,1,1,1,1,1,1,1,1,1,1,1,1,1,1,1,1,1,1,1,1,1,1,1,1,1,1,1,1,1,1,1,1,1,1,1,1,1,1,1,1,1,1,1,1,1,1,1,1,1],"number_of_sets":1,"coherent_direction":[268,268,175,268,268,175,268,268,175,268,175,175,175,268,268,268,175,268,268,268,268,175,268,175,175,175,268,175,175,268,268,175,268,175,175,268,175,268,175,268,268,268,268,175,268,268,268,268,175,175,175,268,175,175,175,175,268,268,175,268,268,268,175,268,268,268,175,268,175,268,175,175,268,268,268,268,175,175,175,268,175,268,175,268,268,175,175,268,175,175,268,175,268,268,175,175,175,268,175,268,175,175,268,268,268,268,175,268,175,175,175,175,175,175,175,175,268,175,268,268,175,175,268,175,268,175,268,268,268,268,268,175,268,175,175,175,268,175,175,175,268,268,175,175,175,175,268,268,175,268,268,268,175,268,175,175,268,175,175,175,268,268,175,175,268,268,175,175,268,268,175,268,175,268,268,268,268,175,175,268,175,268,268,175,175,175,268,175,268,268,175,175,175,175,268,175,268,268,175,175],"coherence":1,"opposite_coherence":0,"dot_radius":2,"dot_side_length":1,"dot_life":-1,"move_distance":1,"aperture_width":300,"aperture_height":300,"dot_color":["white","white","black","white","white","black","white","white","black","white","black","black","black","white","white","white","black","white","white","white","white","black","white","black","black","black","white","black","black","white","white","black","white","black","black","white","black","white","black","white","white","white","white","black","white","white","white","white","black","black","black","white","black","black","black","black","white","white","black","white","white","white","black","white","white","white","black","white","black","white","black","black","white","white","white","white","black","black","black","white","black","white","black","white","white","black","black","white","black","black","white","black","white","white","black","black","black","white","black","white","black","black","white","white","white","white","black","white","black","black","black","black","black","black","black","black","white","black","white","white","black","black","white","black","white","black","white","white","white","white","white","black","white","black","black","black","white","black","black","black","white","white","black","black","black","black","white","white","black","white","white","white","black","white","black","black","white","black","black","black","white","white","black","black","white","white","black","black","white","white","black","white","black","white","white","white","white","black","black","white","black","white","white","black","black","black","white","black","white","white","black","black","black","black","white","black","white","white","black","black"],"dot_shape":"circle","background_color":"#AAA","RDK_type":3,"aperture_type":2,"reinsert_type":2,"frame_rate":16.616666666666667,"frame_rate_array":[11,10,17,17,16,17,17,17,17,18,17,17,16,16,17,16,19,15,17,17,16,17,16,17,17,17,15,17,16,17,17,18,16,17,16,17,17,17,17,16,16,17,16,17,17,17,16,17,16,17,17,17,17,18,16,17,17,17,17,16,17,17,17,17,17,16,17,17,16,17,16,17,16,17,16,17,18,15,17,17,17,17,16,17,17,17,16,17,16,16,16,17,17,17,17,17,18,15,17,17,17,16,17,16,17,18,16,16,17,16,17,17,18,16,17,17,16,17,17,16],"number_of_frames":120,"aperture_center_x":960,"aperture_center_y":540,"fixation_cross":true,"fixation_cross_width":15,"fixation_cross_height":15,"fixation_cross_color":"#111","fixation_cross_thickness":1,"border":true,"border_thickness":2,"border_color":"transparent","canvas_width":1920,"canvas_height":1080,"trial_type":"rdk","trial_index":16,"plugin_version":"2.0.0","time_elapsed":348548},{"rt":5008,"stimulus":"\n        <div class=\"response-container\">\n          <div class=\"response-instruction\">\n            <p>rotate the bar by using the left and right arrow keys.</p>\n            <p>when you are determined, press the Enter key.</p>\n          </div>\n          <div class=\"response-circle\">\n            <div class=\"response-fixation\"></div>\n            <div id=\"bar\" class=\"rotating-bar\"></div>\n          </div>\n        </div>\n      ","response":"Enter","trial_type":"html-keyboard-response","trial_index":17,"plugin_version":"2.1.0","time_elapsed":353558,"response_angle_css":294,"response_angle_rdk":156,"angular_error_target":-112,"angular_error_distractor":-19,"target_direction":268,"target_group":"white","reward_points":0},{"rt":null,"stimulus":"\n          <p style=\"color: #FF3333;\">Your reward: 0 points</p>\n        ","response":null,"trial_type":"html-keyboard-response","trial_index":18,"plugin_version":"2.1.0","time_elapsed":355564},{"rt":null,"stimulus":"<div class=\"fixation\" style=\"font-size: 60px;\">+</div>","response":null,"trial_type":"html-keyboard-response","trial_index":19,"plugin_version":"2.1.0","time_elapsed":356583},{"target_group":"black","condition_label":"B_H_vs_W_L_rep4","target_direction":4,"distractor_direction":119,"session_rotation":256,"rt":-1,"response":"","correct":false,"choices":"ALL_KEYS","correct_choice":["a"],"trial_duration":2000,"flip_timestamps":[],"response_ends_trial":false,"number_of_apertures":200,"number_of_dots":[1,1,1,1,1,1,1,1,1,1,1,1,1,1,1,1,1,1,1,1,1,1,1,1,1,1,1,1,1,1,1,1,1,1,1,1,1,1,1,1,1,1,1,1,1,1,1,1,1,1,1,1,1,1,1,1,1,1,1,1,1,1,1,1,1,1,1,1,1,1,1,1,1,1,1,1,1,1,1,1,1,1,1,1,1,1,1,1,1,1,1,1,1,1,1,1,1,1,1,1,1,1,1,1,1,1,1,1,1,1,1,1,1,1,1,1,1,1,1,1,1,1,1,1,1,1,1,1,1,1,1,1,1,1,1,1,1,1,1,1,1,1,1,1,1,1,1,1,1,1,1,1,1,1,1,1,1,1,1,1,1,1,1,1,1,1,1,1,1,1,1,1,1,1,1,1,1,1,1,1,1,1,1,1,1,1,1,1,1,1,1,1,1,1,1,1,1,1,1,1],"number_of_sets":1,"coherent_direction":[119,119,4,119,119,119,4,4,4,119,119,119,119,4,4,4,119,4,4,119,119,119,119,4,119,4,4,4,119,119,119,4,4,119,4,119,4,4,119,119,119,119,4,119,4,4,4,4,119,119,4,4,4,4,119,119,4,119,119,4,4,4,4,4,119,4,119,4,4,119,4,119,4,119,4,4,119,4,119,119,4,119,119,119,4,119,4,4,119,119,4,119,4,119,119,4,119,119,119,119,119,119,4,119,4,119,119,4,119,4,119,119,119,119,4,4,4,119,4,4,4,4,119,4,4,119,4,119,4,119,4,4,4,119,4,4,119,4,4,119,119,4,4,4,4,4,119,119,119,119,4,119,119,119,4,4,119,4,4,4,4,119,119,4,4,4,4,119,119,4,119,119,119,119,4,4,119,119,4,119,119,119,119,4,119,4,119,119,4,4,119,4,4,119,119,4,119,4,4,4],"coherence":1,"opposite_coherence":0,"dot_radius":2,"dot_side_length":1,"dot_life":-1,"move_distance":1,"aperture_width":300,"aperture_height":300,"dot_color":["white","white","black","white","white","white","black","black","black","white","white","white","white","black","black","black","white","black","black","white","white","white","white","black","white","black","black","black","white","white","white","black","black","white","black","white","black","black","white","white","white","white","black","white","black","black","black","black","white","white","black","black","black","black","white","white","black","white","white","black","black","black","black","black","white","black","white","black","black","white","black","white","black","white","black","black","white","black","white","white","black","white","white","white","black","white","black","black","white","white","black","white","black","white","white","black","white","white","white","white","white","white","black","white","black","white","white","black","white","black","white","white","white","white","black","black","black","white","black","black","black","black","white","black","black","white","black","white","black","white","black","black","black","white","black","black","white","black","black","white","white","black","black","black","black","black","white","white","white","white","black","white","white","white","black","black","white","black","black","black","black","white","white","black","black","black","black","white","white","black","white","white","white","white","black","black","white","white","black","white","white","white","white","black","white","black","white","white","black","black","white","black","black","white","white","black","white","black","black","black"],"dot_shape":"circle","background_color":"#AAA","RDK_type":3,"aperture_type":2,"reinsert_type":2,"frame_rate":16.708333333333332,"frame_rate_array":[8,17,18,16,17,17,17,17,16,16,16,17,17,17,17,17,17,17,17,17,17,17,17,17,17,17,17,16,18,17,17,15,17,17,17,17,16,17,17,16,17,17,17,17,17,17,17,17,16,17,16,18,17,17,16,15,17,17,17,17,17,16,17,18,16,17,17,16,17,17,16,16,17,17,17,17,17,17,17,17,17,17,17,16,17,17,16,17,16,18,16,17,16,17,17,17,16,16,18,16,16,18,17,17,16,17,15,17,17,17,17,17,17,18,17,17,16,16,16,17],"number_of_frames":120,"aperture_center_x":960,"aperture_center_y":540,"fixation_cross":true,"fixation_cross_width":15,"fixation_cross_height":15,"fixation_cross_color":"#111","fixation_cross_thickness":1,"border":true,"border_thickness":2,"border_color":"transparent","canvas_width":1920,"canvas_height":1080,"trial_type":"rdk","trial_index":20,"plugin_version":"2.0.0","time_elapsed":358594},{"rt":6153,"stimulus":"\n        <div class=\"response-container\">\n          <div class=\"response-instruction\">\n            <p>rotate the bar by using the left and right arrow keys.</p>\n            <p>when you are determined, press the Enter key.</p>\n          </div>\n          <div class=\"response-circle\">\n            <div class=\"response-fixation\"></div>\n            <div id=\"bar\" class=\"rotating-bar\"></div>\n          </div>\n        </div>\n      ","response":"Enter","trial_type":"html-keyboard-response","trial_index":21,"plugin_version":"2.1.0","time_elapsed":364748,"response_angle_css":-58,"response_angle_rdk":148,"angular_error_target":144,"angular_error_distractor":29,"target_direction":4,"target_group":"black","reward_points":0},{"rt":null,"stimulus":"\n          <p style=\"color: #FF3333;\">Your reward: 0 points</p>\n        ","response":null,"trial_type":"html-keyboard-response","trial_index":22,"plugin_version":"2.1.0","time_elapsed":366763},{"rt":null,"stimulus":"<div class=\"fixation\" style=\"font-size: 60px;\">+</div>","response":null,"trial_type":"html-keyboard-response","trial_index":23,"plugin_version":"2.1.0","time_elapsed":367778},{"target_group":"white","condition_label":"W_H_vs_B_L_rep10","target_direction":287,"distractor_direction":194,"session_rotation":256,"rt":-1,"response":"","correct":false,"choices":"ALL_KEYS","correct_choice":["a"],"trial_duration":2000,"flip_timestamps":[],"response_ends_trial":false,"number_of_apertures":200,"number_of_dots":[1,1,1,1,1,1,1,1,1,1,1,1,1,1,1,1,1,1,1,1,1,1,1,1,1,1,1,1,1,1,1,1,1,1,1,1,1,1,1,1,1,1,1,1,1,1,1,1,1,1,1,1,1,1,1,1,1,1,1,1,1,1,1,1,1,1,1,1,1,1,1,1,1,1,1,1,1,1,1,1,1,1,1,1,1,1,1,1,1,1,1,1,1,1,1,1,1,1,1,1,1,1,1,1,1,1,1,1,1,1,1,1,1,1,1,1,1,1,1,1,1,1,1,1,1,1,1,1,1,1,1,1,1,1,1,1,1,1,1,1,1,1,1,1,1,1,1,1,1,1,1,1,1,1,1,1,1,1,1,1,1,1,1,1,1,1,1,1,1,1,1,1,1,1,1,1,1,1,1,1,1,1,1,1,1,1,1,1,1,1,1,1,1,1,1,1,1,1,1,1],"number_of_sets":1,"coherent_direction":[287,287,287,194,287,287,287,287,194,194,194,194,287,287,194,287,194,287,194,287,194,194,287,194,287,287,194,194,194,194,287,194,287,287,287,287,194,287,194,194,194,287,287,287,287,287,194,194,287,194,194,287,194,287,287,287,194,287,194,287,287,287,194,287,287,194,194,194,194,287,194,287,194,194,287,194,194,194,287,194,287,194,194,287,287,194,287,194,287,287,194,194,194,287,194,287,287,287,287,194,194,287,287,287,287,194,194,287,287,194,287,287,287,194,194,194,194,287,194,194,287,287,194,194,287,194,194,287,194,287,194,287,287,287,194,194,287,194,194,194,287,287,287,194,194,287,194,194,194,287,287,194,194,194,287,194,194,287,287,194,194,287,194,287,287,194,194,194,194,194,287,287,287,287,287,287,194,194,194,287,287,194,194,194,287,287,194,194,287,287,194,287,287,194,194,287,194,287,287,194],"coherence":1,"opposite_coherence":0,"dot_radius":2,"dot_side_length":1,"dot_life":-1,"move_distance":1,"aperture_width":300,"aperture_height":300,"dot_color":["white","white","white","black","white","white","white","white","black","black","black","black","white","white","black","white","black","white","black","white","black","black","white","black","white","white","black","black","black","black","white","black","white","white","white","white","black","white","black","black","black","white","white","white","white","white","black","black","white","black","black","white","black","white","white","white","black","white","black","white","white","white","black","white","white","black","black","black","black","white","black","white","black","black","white","black","black","black","white","black","white","black","black","white","white","black","white","black","white","white","black","black","black","white","black","white","white","white","white","black","black","white","white","white","white","black","black","white","white","black","white","white","white","black","black","black","black","white","black","black","white","white","black","black","white","black","black","white","black","white","black","white","white","white","black","black","white","black","black","black","white","white","white","black","black","white","black","black","black","white","white","black","black","black","white","black","black","white","white","black","black","white","black","white","white","black","black","black","black","black","white","white","white","white","white","white","black","black","black","white","white","black","black","black","white","white","black","black","white","white","black","white","white","black","black","white","black","white","white","black"],"dot_shape":"circle","background_color":"#AAA","RDK_type":3,"aperture_type":2,"reinsert_type":2,"frame_rate":16.766666666666666,"frame_rate_array":[9,18,18,17,17,16,16,17,17,17,17,17,17,17,17,16,17,17,18,16,17,16,17,19,15,16,17,17,17,17,17,16,17,16,17,17,17,17,17,17,17,17,16,17,16,17,17,17,17,16,17,17,16,17,17,17,17,17,17,17,17,17,16,17,17,17,17,17,17,17,17,17,17,17,17,17,16,17,17,17,16,17,17,17,16,17,16,17,17,17,17,17,17,17,17,17,18,17,15,17,17,16,16,17,17,17,17,17,16,17,18,17,17,16,16,16,17,17,18,16],"number_of_frames":120,"aperture_center_x":960,"aperture_center_y":540,"fixation_cross":true,"fixation_cross_width":15,"fixation_cross_height":15,"fixation_cross_color":"#111","fixation_cross_thickness":1,"border":true,"border_thickness":2,"border_color":"transparent","canvas_width":1920,"canvas_height":1080,"trial_type":"rdk","trial_index":24,"plugin_version":"2.0.0","time_elapsed":369787},{"rt":5366,"stimulus":"\n        <div class=\"response-container\">\n          <div class=\"response-instruction\">\n            <p>rotate the bar by using the left and right arrow keys.</p>\n            <p>when you are determined, press the Enter key.</p>\n          </div>\n          <div class=\"response-circle\">\n            <div class=\"response-fixation\"></div>\n            <div id=\"bar\" class=\"rotating-bar\"></div>\n          </div>\n        </div>\n      ","response":"Enter","trial_type":"html-keyboard-response","trial_index":25,"plugin_version":"2.1.0","time_elapsed":375155,"response_angle_css":-123,"response_angle_rdk":213,"angular_error_target":-74,"angular_error_distractor":19,"target_direction":287,"target_group":"white","reward_points":0},{"rt":null,"stimulus":"\n          <p style=\"color: #FF3333;\">Your reward: 0 points</p>\n        ","response":null,"trial_type":"html-keyboard-response","trial_index":26,"plugin_version":"2.1.0","time_elapsed":377158},{"rt":null,"stimulus":"<div class=\"fixation\" style=\"font-size: 60px;\">+</div>","response":null,"trial_type":"html-keyboard-response","trial_index":27,"plugin_version":"2.1.0","time_elapsed":378174},{"target_group":"white","condition_label":"W_H_vs_B_L_rep16","target_direction":293,"distractor_direction":198,"session_rotation":256,"rt":-1,"response":"","correct":false,"choices":"ALL_KEYS","correct_choice":["a"],"trial_duration":2000,"flip_timestamps":[],"response_ends_trial":false,"number_of_apertures":200,"number_of_dots":[1,1,1,1,1,1,1,1,1,1,1,1,1,1,1,1,1,1,1,1,1,1,1,1,1,1,1,1,1,1,1,1,1,1,1,1,1,1,1,1,1,1,1,1,1,1,1,1,1,1,1,1,1,1,1,1,1,1,1,1,1,1,1,1,1,1,1,1,1,1,1,1,1,1,1,1,1,1,1,1,1,1,1,1,1,1,1,1,1,1,1,1,1,1,1,1,1,1,1,1,1,1,1,1,1,1,1,1,1,1,1,1,1,1,1,1,1,1,1,1,1,1,1,1,1,1,1,1,1,1,1,1,1,1,1,1,1,1,1,1,1,1,1,1,1,1,1,1,1,1,1,1,1,1,1,1,1,1,1,1,1,1,1,1,1,1,1,1,1,1,1,1,1,1,1,1,1,1,1,1,1,1,1,1,1,1,1,1,1,1,1,1,1,1,1,1,1,1,1,1],"number_of_sets":1,"coherent_direction":[198,198,293,293,198,198,293,198,293,198,293,293,198,198,293,293,198,293,198,293,198,293,198,198,293,198,198,198,198,198,198,293,198,198,198,198,293,293,198,198,293,293,293,198,293,293,198,293,293,293,293,198,198,198,293,293,293,293,198,293,293,198,293,198,198,198,293,293,198,293,293,293,293,293,198,293,293,293,293,198,198,293,198,293,198,293,198,293,198,293,293,198,198,198,293,293,198,293,198,293,198,198,198,293,198,198,293,198,293,198,198,293,198,293,198,293,293,293,198,198,293,293,198,293,198,293,198,293,198,198,293,198,198,293,198,198,198,293,293,198,198,293,198,293,198,198,198,293,198,293,198,198,198,198,198,198,198,293,293,293,293,293,198,293,293,293,293,293,198,293,198,198,198,293,293,198,198,293,293,293,198,293,293,293,198,293,198,293,293,293,293,198,198,293,293,198,198,198,198,293],"coherence":1,"opposite_coherence":0,"dot_radius":2,"dot_side_length":1,"dot_life":-1,"move_distance":1,"aperture_width":300,"aperture_height":300,"dot_color":["black","black","white","white","black","black","white","black","white","black","white","white","black","black","white","white","black","white","black","white","black","white","black","black","white","black","black","black","black","black","black","white","black","black","black","black","white","white","black","black","white","white","white","black","white","white","black","white","white","white","white","black","black","black","white","white","white","white","black","white","white","black","white","black","black","black","white","white","black","white","white","white","white","white","black","white","white","white","white","black","black","white","black","white","black","white","black","white","black","white","white","black","black","black","white","white","black","white","black","white","black","black","black","white","black","black","white","black","white","black","black","white","black","white","black","white","white","white","black","black","white","white","black","white","black","white","black","white","black","black","white","black","black","white","black","black","black","white","white","black","black","white","black","white","black","black","black","white","black","white","black","black","black","black","black","black","black","white","white","white","white","white","black","white","white","white","white","white","black","white","black","black","black","white","white","black","black","white","white","white","black","white","white","white","black","white","black","white","white","white","white","black","black","white","white","black","black","black","black","white"],"dot_shape":"circle","background_color":"#AAA","RDK_type":3,"aperture_type":2,"reinsert_type":2,"frame_rate":16.825,"frame_rate_array":[9,18,17,17,17,17,17,17,16,17,17,16,17,17,16,17,17,17,17,17,17,17,18,16,17,17,17,17,16,17,17,17,16,18,16,17,17,15,17,17,17,17,17,17,17,16,16,18,16,17,17,17,17,16,17,18,17,16,17,17,18,16,17,18,16,17,16,17,17,17,17,16,17,17,18,16,17,17,17,16,17,17,17,17,17,17,17,17,17,17,18,16,17,16,17,18,16,16,17,17,17,17,17,17,17,17,17,17,16,17,17,17,17,17,17,17,17,18,17,18],"number_of_frames":120,"aperture_center_x":960,"aperture_center_y":540,"fixation_cross":true,"fixation_cross_width":15,"fixation_cross_height":15,"fixation_cross_color":"#111","fixation_cross_thickness":1,"border":true,"border_thickness":2,"border_color":"transparent","canvas_width":1920,"canvas_height":1080,"trial_type":"rdk","trial_index":28,"plugin_version":"2.0.0","time_elapsed":380179},{"rt":5513,"stimulus":"\n        <div class=\"response-container\">\n          <div class=\"response-instruction\">\n            <p>rotate the bar by using the left and right arrow keys.</p>\n            <p>when you are determined, press the Enter key.</p>\n          </div>\n          <div class=\"response-circle\">\n            <div class=\"response-fixation\"></div>\n            <div id=\"bar\" class=\"rotating-bar\"></div>\n          </div>\n        </div>\n      ","response":"Enter","trial_type":"html-keyboard-response","trial_index":29,"plugin_version":"2.1.0","time_elapsed":385694,"response_angle_css":-95,"response_angle_rdk":185,"angular_error_target":-108,"angular_error_distractor":-13,"target_direction":293,"target_group":"white","reward_points":0},{"rt":null,"stimulus":"\n          <p style=\"color: #FF3333;\">Your reward: 0 points</p>\n        ","response":null,"trial_type":"html-keyboard-response","trial_index":30,"plugin_version":"2.1.0","time_elapsed":387707},{"rt":null,"stimulus":"<div class=\"fixation\" style=\"font-size: 60px;\">+</div>","response":null,"trial_type":"html-keyboard-response","trial_index":31,"plugin_version":"2.1.0","time_elapsed":388721},{"target_group":"white","condition_label":"W_H_vs_B_L_rep9","target_direction":280,"distractor_direction":176,"session_rotation":256,"rt":-1,"response":"","correct":false,"choices":"ALL_KEYS","correct_choice":["a"],"trial_duration":2000,"flip_timestamps":[],"response_ends_trial":false,"number_of_apertures":200,"number_of_dots":[1,1,1,1,1,1,1,1,1,1,1,1,1,1,1,1,1,1,1,1,1,1,1,1,1,1,1,1,1,1,1,1,1,1,1,1,1,1,1,1,1,1,1,1,1,1,1,1,1,1,1,1,1,1,1,1,1,1,1,1,1,1,1,1,1,1,1,1,1,1,1,1,1,1,1,1,1,1,1,1,1,1,1,1,1,1,1,1,1,1,1,1,1,1,1,1,1,1,1,1,1,1,1,1,1,1,1,1,1,1,1,1,1,1,1,1,1,1,1,1,1,1,1,1,1,1,1,1,1,1,1,1,1,1,1,1,1,1,1,1,1,1,1,1,1,1,1,1,1,1,1,1,1,1,1,1,1,1,1,1,1,1,1,1,1,1,1,1,1,1,1,1,1,1,1,1,1,1,1,1,1,1,1,1,1,1,1,1,1,1,1,1,1,1,1,1,1,1,1,1],"number_of_sets":1,"coherent_direction":[176,280,176,176,176,280,176,280,280,280,280,280,280,176,280,280,176,176,280,280,176,176,280,176,280,280,280,176,176,280,176,176,280,176,280,176,280,280,280,176,176,176,280,280,176,176,176,280,280,176,280,280,280,176,176,280,176,280,280,176,176,176,280,280,176,176,280,280,280,280,280,176,176,280,176,176,280,280,280,176,176,176,280,176,176,176,280,280,280,280,176,176,176,176,280,176,176,176,280,280,280,176,176,176,280,176,280,176,176,176,176,280,280,176,176,280,280,280,280,280,176,176,176,176,280,176,280,280,280,280,176,280,176,176,280,176,280,176,280,176,176,176,176,176,280,280,176,176,176,280,280,280,280,176,176,176,280,176,176,176,280,280,176,280,280,280,280,176,280,280,176,280,176,280,176,280,280,280,280,176,176,280,280,280,280,176,176,280,280,176,176,176,280,176,176,176,176,176,280,280],"coherence":1,"opposite_coherence":0,"dot_radius":2,"dot_side_length":1,"dot_life":-1,"move_distance":1,"aperture_width":300,"aperture_height":300,"dot_color":["black","white","black","black","black","white","black","white","white","white","white","white","white","black","white","white","black","black","white","white","black","black","white","black","white","white","white","black","black","white","black","black","white","black","white","black","white","white","white","black","black","black","white","white","black","black","black","white","white","black","white","white","white","black","black","white","black","white","white","black","black","black","white","white","black","black","white","white","white","white","white","black","black","white","black","black","white","white","white","black","black","black","white","black","black","black","white","white","white","white","black","black","black","black","white","black","black","black","white","white","white","black","black","black","white","black","white","black","black","black","black","white","white","black","black","white","white","white","white","white","black","black","black","black","white","black","white","white","white","white","black","white","black","black","white","black","white","black","white","black","black","black","black","black","white","white","black","black","black","white","white","white","white","black","black","black","white","black","black","black","white","white","black","white","white","white","white","black","white","white","black","white","black","white","black","white","white","white","white","black","black","white","white","white","white","black","black","white","white","black","black","black","white","black","black","black","black","black","white","white"],"dot_shape":"circle","background_color":"#AAA","RDK_type":3,"aperture_type":2,"reinsert_type":2,"frame_rate":16.758333333333333,"frame_rate_array":[10,17,17,17,17,15,17,17,17,17,17,17,17,18,16,15,17,17,16,17,17,18,17,16,15,17,17,16,17,17,17,17,17,16,17,17,17,17,17,17,17,17,17,17,17,17,17,17,16,16,17,17,17,17,17,17,17,17,17,16,17,16,17,17,16,18,16,17,17,17,18,16,18,17,16,16,17,16,17,17,17,17,18,16,17,15,17,17,17,17,17,17,17,17,17,17,17,17,17,17,17,17,16,15,17,17,17,17,17,17,17,17,17,17,17,17,17,16,17,17],"number_of_frames":120,"aperture_center_x":960,"aperture_center_y":540,"fixation_cross":true,"fixation_cross_width":15,"fixation_cross_height":15,"fixation_cross_color":"#111","fixation_cross_thickness":1,"border":true,"border_thickness":2,"border_color":"transparent","canvas_width":1920,"canvas_height":1080,"trial_type":"rdk","trial_index":32,"plugin_version":"2.0.0","time_elapsed":390735},{"rt":3643,"stimulus":"\n        <div class=\"response-container\">\n          <div class=\"response-instruction\">\n            <p>rotate the bar by using the left and right arrow keys.</p>\n            <p>when you are determined, press the Enter key.</p>\n          </div>\n          <div class=\"response-circle\">\n            <div class=\"response-fixation\"></div>\n            <div id=\"bar\" class=\"rotating-bar\"></div>\n          </div>\n        </div>\n      ","response":"Enter","trial_type":"html-keyboard-response","trial_index":33,"plugin_version":"2.1.0","time_elapsed":394380,"response_angle_css":291,"response_angle_rdk":159,"angular_error_target":-121,"angular_error_distractor":-17,"target_direction":280,"target_group":"white","reward_points":0},{"rt":null,"stimulus":"\n          <p style=\"color: #FF3333;\">Your reward: 0 points</p>\n        ","response":null,"trial_type":"html-keyboard-response","trial_index":34,"plugin_version":"2.1.0","time_elapsed":396387},{"rt":null,"stimulus":"<div class=\"fixation\" style=\"font-size: 60px;\">+</div>","response":null,"trial_type":"html-keyboard-response","trial_index":35,"plugin_version":"2.1.0","time_elapsed":397402},{"target_group":"white","condition_label":"W_H_vs_B_L_rep13","target_direction":298,"distractor_direction":198,"session_rotation":256,"rt":-1,"response":"","correct":false,"choices":"ALL_KEYS","correct_choice":["a"],"trial_duration":2000,"flip_timestamps":[],"response_ends_trial":false,"number_of_apertures":200,"number_of_dots":[1,1,1,1,1,1,1,1,1,1,1,1,1,1,1,1,1,1,1,1,1,1,1,1,1,1,1,1,1,1,1,1,1,1,1,1,1,1,1,1,1,1,1,1,1,1,1,1,1,1,1,1,1,1,1,1,1,1,1,1,1,1,1,1,1,1,1,1,1,1,1,1,1,1,1,1,1,1,1,1,1,1,1,1,1,1,1,1,1,1,1,1,1,1,1,1,1,1,1,1,1,1,1,1,1,1,1,1,1,1,1,1,1,1,1,1,1,1,1,1,1,1,1,1,1,1,1,1,1,1,1,1,1,1,1,1,1,1,1,1,1,1,1,1,1,1,1,1,1,1,1,1,1,1,1,1,1,1,1,1,1,1,1,1,1,1,1,1,1,1,1,1,1,1,1,1,1,1,1,1,1,1,1,1,1,1,1,1,1,1,1,1,1,1,1,1,1,1,1,1],"number_of_sets":1,"coherent_direction":[298,198,298,198,298,298,198,198,198,298,298,198,198,298,198,198,198,198,198,298,298,198,198,298,298,198,198,198,298,198,198,198,298,298,198,298,298,298,298,198,298,298,298,298,298,198,198,298,198,298,198,198,198,298,198,298,198,198,198,298,298,298,298,198,198,298,198,298,198,298,198,198,198,198,298,298,198,198,298,298,198,298,298,198,298,298,298,198,198,298,198,298,298,298,198,298,198,198,298,298,298,198,298,298,198,298,298,298,198,298,298,298,298,298,298,198,198,298,198,298,198,198,298,298,198,198,298,198,298,198,198,298,198,298,298,298,298,298,298,298,298,198,298,198,198,198,298,298,198,198,198,198,298,198,298,198,198,198,198,298,198,198,198,298,198,298,198,198,298,198,298,198,198,198,198,198,298,198,298,298,298,298,298,198,298,198,198,198,198,198,298,198,198,298,198,298,298,298,198,298],"coherence":1,"opposite_coherence":0,"dot_radius":2,"dot_side_length":1,"dot_life":-1,"move_distance":1,"aperture_width":300,"aperture_height":300,"dot_color":["white","black","white","black","white","white","black","black","black","white","white","black","black","white","black","black","black","black","black","white","white","black","black","white","white","black","black","black","white","black","black","black","white","white","black","white","white","white","white","black","white","white","white","white","white","black","black","white","black","white","black","black","black","white","black","white","black","black","black","white","white","white","white","black","black","white","black","white","black","white","black","black","black","black","white","white","black","black","white","white","black","white","white","black","white","white","white","black","black","white","black","white","white","white","black","white","black","black","white","white","white","black","white","white","black","white","white","white","black","white","white","white","white","white","white","black","black","white","black","white","black","black","white","white","black","black","white","black","white","black","black","white","black","white","white","white","white","white","white","white","white","black","white","black","black","black","white","white","black","black","black","black","white","black","white","black","black","black","black","white","black","black","black","white","black","white","black","black","white","black","white","black","black","black","black","black","white","black","white","white","white","white","white","black","white","black","black","black","black","black","white","black","black","white","black","white","white","white","black","white"],"dot_shape":"circle","background_color":"#AAA","RDK_type":3,"aperture_type":2,"reinsert_type":2,"frame_rate":16.75,"frame_rate_array":[10,17,17,17,16,16,16,17,17,18,16,16,17,17,17,17,17,17,17,17,17,18,16,17,17,17,17,17,16,17,17,17,17,17,17,17,17,17,17,17,17,16,18,17,18,16,15,17,17,17,17,16,17,17,17,17,17,17,16,18,16,16,17,17,16,17,17,17,16,17,17,17,17,18,16,17,16,16,17,17,17,17,17,17,16,17,17,17,16,18,17,17,17,15,17,17,17,17,16,17,16,17,17,17,17,17,16,17,17,17,16,17,16,17,17,17,17,17,17,16],"number_of_frames":120,"aperture_center_x":960,"aperture_center_y":540,"fixation_cross":true,"fixation_cross_width":15,"fixation_cross_height":15,"fixation_cross_color":"#111","fixation_cross_thickness":1,"border":true,"border_thickness":2,"border_color":"transparent","canvas_width":1920,"canvas_height":1080,"trial_type":"rdk","trial_index":36,"plugin_version":"2.0.0","time_elapsed":399416},{"rt":1293,"stimulus":"\n        <div class=\"response-container\">\n          <div class=\"response-instruction\">\n            <p>rotate the bar by using the left and right arrow keys.</p>\n            <p>when you are determined, press the Enter key.</p>\n          </div>\n          <div class=\"response-circle\">\n            <div class=\"response-fixation\"></div>\n            <div id=\"bar\" class=\"rotating-bar\"></div>\n          </div>\n        </div>\n      ","response":"Enter","trial_type":"html-keyboard-response","trial_index":37,"plugin_version":"2.1.0","time_elapsed":400710,"response_angle_css":32,"response_angle_rdk":58,"angular_error_target":120,"angular_error_distractor":-140,"target_direction":298,"target_group":"white","reward_points":0},{"rt":null,"stimulus":"\n          <p style=\"color: #FF3333;\">Your reward: 0 points</p>\n        ","response":null,"trial_type":"html-keyboard-response","trial_index":38,"plugin_version":"2.1.0","time_elapsed":402727},{"rt":null,"stimulus":"<div class=\"fixation\" style=\"font-size: 60px;\">+</div>","response":null,"trial_type":"html-keyboard-response","trial_index":39,"plugin_version":"2.1.0","time_elapsed":403734},{"target_group":"white","condition_label":"W_H_vs_B_L_rep4","target_direction":280,"distractor_direction":167,"session_rotation":256,"rt":-1,"response":"","correct":false,"choices":"ALL_KEYS","correct_choice":["a"],"trial_duration":2000,"flip_timestamps":[],"response_ends_trial":false,"number_of_apertures":200,"number_of_dots":[1,1,1,1,1,1,1,1,1,1,1,1,1,1,1,1,1,1,1,1,1,1,1,1,1,1,1,1,1,1,1,1,1,1,1,1,1,1,1,1,1,1,1,1,1,1,1,1,1,1,1,1,1,1,1,1,1,1,1,1,1,1,1,1,1,1,1,1,1,1,1,1,1,1,1,1,1,1,1,1,1,1,1,1,1,1,1,1,1,1,1,1,1,1,1,1,1,1,1,1,1,1,1,1,1,1,1,1,1,1,1,1,1,1,1,1,1,1,1,1,1,1,1,1,1,1,1,1,1,1,1,1,1,1,1,1,1,1,1,1,1,1,1,1,1,1,1,1,1,1,1,1,1,1,1,1,1,1,1,1,1,1,1,1,1,1,1,1,1,1,1,1,1,1,1,1,1,1,1,1,1,1,1,1,1,1,1,1,1,1,1,1,1,1,1,1,1,1,1,1],"number_of_sets":1,"coherent_direction":[167,167,167,280,167,280,280,167,167,167,280,280,280,280,167,280,167,280,167,280,167,280,167,280,167,167,167,167,280,167,280,280,280,280,167,280,167,167,280,280,280,280,280,280,167,280,280,167,280,280,167,167,167,280,280,280,167,280,280,167,167,167,167,280,280,280,280,167,167,167,167,280,280,280,280,167,167,280,167,167,167,280,280,280,280,280,167,280,280,167,167,280,167,167,167,280,280,167,167,280,167,280,280,167,167,167,167,167,167,167,167,167,280,167,280,167,280,167,280,167,280,280,167,280,167,167,280,167,280,280,167,167,280,167,280,167,280,280,167,167,167,280,167,280,280,167,280,167,167,167,280,280,167,167,167,280,167,167,280,167,280,280,280,167,280,167,280,280,167,280,280,280,280,167,167,167,167,167,167,167,167,167,167,280,280,280,280,280,167,280,280,167,167,280,167,280,280,280,280,280],"coherence":1,"opposite_coherence":0,"dot_radius":2,"dot_side_length":1,"dot_life":-1,"move_distance":1,"aperture_width":300,"aperture_height":300,"dot_color":["black","black","black","white","black","white","white","black","black","black","white","white","white","white","black","white","black","white","black","white","black","white","black","white","black","black","black","black","white","black","white","white","white","white","black","white","black","black","white","white","white","white","white","white","black","white","white","black","white","white","black","black","black","white","white","white","black","white","white","black","black","black","black","white","white","white","white","black","black","black","black","white","white","white","white","black","black","white","black","black","black","white","white","white","white","white","black","white","white","black","black","white","black","black","black","white","white","black","black","white","black","white","white","black","black","black","black","black","black","black","black","black","white","black","white","black","white","black","white","black","white","white","black","white","black","black","white","black","white","white","black","black","white","black","white","black","white","white","black","black","black","white","black","white","white","black","white","black","black","black","white","white","black","black","black","white","black","black","white","black","white","white","white","black","white","black","white","white","black","white","white","white","white","black","black","black","black","black","black","black","black","black","black","white","white","white","white","white","black","white","white","black","black","white","black","white","white","white","white","white"],"dot_shape":"circle","background_color":"#AAA","RDK_type":3,"aperture_type":2,"reinsert_type":2,"frame_rate":16.8,"frame_rate_array":[9,18,16,17,17,17,18,17,17,15,17,18,16,17,17,17,18,15,16,17,17,17,17,17,17,17,17,16,18,16,17,17,17,17,17,17,16,17,17,16,17,17,17,17,17,17,16,18,16,17,17,18,15,17,17,17,17,16,18,17,16,17,16,17,17,17,17,17,17,16,17,17,17,17,17,16,17,17,17,17,17,17,17,17,17,17,17,16,17,17,17,17,17,17,17,17,17,17,17,17,17,16,17,17,16,17,17,16,16,17,17,17,17,17,17,17,17,17,17,18],"number_of_frames":120,"aperture_center_x":960,"aperture_center_y":540,"fixation_cross":true,"fixation_cross_width":15,"fixation_cross_height":15,"fixation_cross_color":"#111","fixation_cross_thickness":1,"border":true,"border_thickness":2,"border_color":"transparent","canvas_width":1920,"canvas_height":1080,"trial_type":"rdk","trial_index":40,"plugin_version":"2.0.0","time_elapsed":405748},{"rt":4427,"stimulus":"\n        <div class=\"response-container\">\n          <div class=\"response-instruction\">\n            <p>rotate the bar by using the left and right arrow keys.</p>\n            <p>when you are determined, press the Enter key.</p>\n          </div>\n          <div class=\"response-circle\">\n            <div class=\"response-fixation\"></div>\n            <div id=\"bar\" class=\"rotating-bar\"></div>\n          </div>\n        </div>\n      ","response":"Enter","trial_type":"html-keyboard-response","trial_index":41,"plugin_version":"2.1.0","time_elapsed":410177,"response_angle_css":276,"response_angle_rdk":174,"angular_error_target":-106,"angular_error_distractor":7,"target_direction":280,"target_group":"white","reward_points":0},{"rt":null,"stimulus":"\n          <p style=\"color: #FF3333;\">Your reward: 0 points</p>\n        ","response":null,"trial_type":"html-keyboard-response","trial_index":42,"plugin_version":"2.1.0","time_elapsed":412181},{"rt":null,"stimulus":"<div class=\"fixation\" style=\"font-size: 60px;\">+</div>","response":null,"trial_type":"html-keyboard-response","trial_index":43,"plugin_version":"2.1.0","time_elapsed":413198},{"target_group":"black","condition_label":"B_H_vs_W_L_rep25","target_direction":356,"distractor_direction":101,"session_rotation":256,"rt":-1,"response":"","correct":false,"choices":"ALL_KEYS","correct_choice":["a"],"trial_duration":2000,"flip_timestamps":[],"response_ends_trial":false,"number_of_apertures":200,"number_of_dots":[1,1,1,1,1,1,1,1,1,1,1,1,1,1,1,1,1,1,1,1,1,1,1,1,1,1,1,1,1,1,1,1,1,1,1,1,1,1,1,1,1,1,1,1,1,1,1,1,1,1,1,1,1,1,1,1,1,1,1,1,1,1,1,1,1,1,1,1,1,1,1,1,1,1,1,1,1,1,1,1,1,1,1,1,1,1,1,1,1,1,1,1,1,1,1,1,1,1,1,1,1,1,1,1,1,1,1,1,1,1,1,1,1,1,1,1,1,1,1,1,1,1,1,1,1,1,1,1,1,1,1,1,1,1,1,1,1,1,1,1,1,1,1,1,1,1,1,1,1,1,1,1,1,1,1,1,1,1,1,1,1,1,1,1,1,1,1,1,1,1,1,1,1,1,1,1,1,1,1,1,1,1,1,1,1,1,1,1,1,1,1,1,1,1,1,1,1,1,1,1],"number_of_sets":1,"coherent_direction":[356,101,356,356,101,101,101,356,101,356,101,101,356,101,356,356,101,101,101,356,356,101,101,101,356,356,101,356,356,356,356,101,356,101,101,101,101,356,101,356,101,101,101,356,356,101,101,101,101,101,356,356,356,101,356,356,101,356,356,101,101,356,101,101,356,101,101,356,101,101,356,356,101,356,101,356,356,101,356,356,356,356,356,101,356,101,101,101,356,356,356,356,101,356,101,101,101,101,356,356,101,101,356,356,356,356,101,101,356,356,356,101,356,356,101,101,101,356,101,101,356,356,101,356,356,356,356,101,101,101,101,101,101,101,101,101,101,356,101,101,101,356,101,356,101,356,101,101,101,356,356,101,356,356,356,101,356,356,356,101,356,356,356,356,101,101,101,101,101,356,356,101,356,356,356,101,356,101,356,101,356,356,101,356,356,356,356,101,356,356,101,356,101,101,101,101,101,356,356,356],"coherence":1,"opposite_coherence":0,"dot_radius":2,"dot_side_length":1,"dot_life":-1,"move_distance":1,"aperture_width":300,"aperture_height":300,"dot_color":["black","white","black","black","white","white","white","black","white","black","white","white","black","white","black","black","white","white","white","black","black","white","white","white","black","black","white","black","black","black","black","white","black","white","white","white","white","black","white","black","white","white","white","black","black","white","white","white","white","white","black","black","black","white","black","black","white","black","black","white","white","black","white","white","black","white","white","black","white","white","black","black","white","black","white","black","black","white","black","black","black","black","black","white","black","white","white","white","black","black","black","black","white","black","white","white","white","white","black","black","white","white","black","black","black","black","white","white","black","black","black","white","black","black","white","white","white","black","white","white","black","black","white","black","black","black","black","white","white","white","white","white","white","white","white","white","white","black","white","white","white","black","white","black","white","black","white","white","white","black","black","white","black","black","black","white","black","black","black","white","black","black","black","black","white","white","white","white","white","black","black","white","black","black","black","white","black","white","black","white","black","black","white","black","black","black","black","white","black","black","white","black","white","white","white","white","white","black","black","black"],"dot_shape":"circle","background_color":"#AAA","RDK_type":3,"aperture_type":2,"reinsert_type":2,"frame_rate":16.8,"frame_rate_array":[10,19,17,17,16,16,16,16,17,17,17,17,17,17,16,17,17,16,17,17,16,17,17,18,17,17,16,17,17,16,16,17,17,17,17,17,17,17,17,17,17,17,17,17,17,17,17,17,17,17,17,17,18,17,16,17,17,17,17,16,18,16,17,17,17,17,17,17,17,17,16,18,16,17,17,17,16,17,17,16,18,17,17,17,16,17,17,17,17,16,17,17,17,18,16,16,17,16,17,17,18,17,17,17,17,16,16,17,17,17,17,18,17,17,17,17,15,17,16,17],"number_of_frames":120,"aperture_center_x":960,"aperture_center_y":540,"fixation_cross":true,"fixation_cross_width":15,"fixation_cross_height":15,"fixation_cross_color":"#111","fixation_cross_thickness":1,"border":true,"border_thickness":2,"border_color":"transparent","canvas_width":1920,"canvas_height":1080,"trial_type":"rdk","trial_index":44,"plugin_version":"2.0.0","time_elapsed":415212},{"rt":3503,"stimulus":"\n        <div class=\"response-container\">\n          <div class=\"response-instruction\">\n            <p>rotate the bar by using the left and right arrow keys.</p>\n            <p>when you are determined, press the Enter key.</p>\n          </div>\n          <div class=\"response-circle\">\n            <div class=\"response-fixation\"></div>\n            <div id=\"bar\" class=\"rotating-bar\"></div>\n          </div>\n        </div>\n      ","response":"Enter","trial_type":"html-keyboard-response","trial_index":45,"plugin_version":"2.1.0","time_elapsed":418716,"response_angle_css":90,"response_angle_rdk":0,"angular_error_target":4,"angular_error_distractor":-101,"target_direction":356,"target_group":"black","reward_points":9},{"rt":null,"stimulus":"\n          <p style=\"color: #00FF00;\">Your reward: 9 points</p>\n        ","response":null,"trial_type":"html-keyboard-response","trial_index":46,"plugin_version":"2.1.0","time_elapsed":420729},{"rt":null,"stimulus":"<div class=\"fixation\" style=\"font-size: 60px;\">+</div>","response":null,"trial_type":"html-keyboard-response","trial_index":47,"plugin_version":"2.1.0","time_elapsed":421746},{"target_group":"white","condition_label":"W_H_vs_B_L_rep24","target_direction":295,"distractor_direction":188,"session_rotation":256,"rt":-1,"response":"","correct":false,"choices":"ALL_KEYS","correct_choice":["a"],"trial_duration":2000,"flip_timestamps":[],"response_ends_trial":false,"number_of_apertures":200,"number_of_dots":[1,1,1,1,1,1,1,1,1,1,1,1,1,1,1,1,1,1,1,1,1,1,1,1,1,1,1,1,1,1,1,1,1,1,1,1,1,1,1,1,1,1,1,1,1,1,1,1,1,1,1,1,1,1,1,1,1,1,1,1,1,1,1,1,1,1,1,1,1,1,1,1,1,1,1,1,1,1,1,1,1,1,1,1,1,1,1,1,1,1,1,1,1,1,1,1,1,1,1,1,1,1,1,1,1,1,1,1,1,1,1,1,1,1,1,1,1,1,1,1,1,1,1,1,1,1,1,1,1,1,1,1,1,1,1,1,1,1,1,1,1,1,1,1,1,1,1,1,1,1,1,1,1,1,1,1,1,1,1,1,1,1,1,1,1,1,1,1,1,1,1,1,1,1,1,1,1,1,1,1,1,1,1,1,1,1,1,1,1,1,1,1,1,1,1,1,1,1,1,1],"number_of_sets":1,"coherent_direction":[295,188,295,295,295,188,188,188,188,295,295,188,188,188,295,295,188,188,188,295,295,295,295,295,188,295,188,188,295,295,295,295,188,295,295,188,295,295,295,188,188,295,295,188,188,188,188,188,295,295,295,188,295,188,188,295,188,188,295,188,188,188,188,295,295,295,188,188,295,295,188,188,188,188,188,188,188,295,188,295,188,295,295,188,295,188,295,295,295,295,295,295,295,295,188,295,188,295,295,295,188,295,188,188,188,188,295,295,295,188,295,188,295,188,295,295,295,295,295,295,188,295,188,188,188,188,188,295,295,188,188,188,188,295,188,188,188,295,188,295,188,188,188,188,188,188,188,295,295,295,188,188,188,295,295,295,295,188,295,188,188,295,295,295,188,295,295,188,188,188,188,188,295,295,188,188,188,295,188,188,295,295,188,295,295,188,188,295,295,295,188,295,188,295,188,295,295,188,295,295],"coherence":1,"opposite_coherence":0,"dot_radius":2,"dot_side_length":1,"dot_life":-1,"move_distance":1,"aperture_width":300,"aperture_height":300,"dot_color":["white","black","white","white","white","black","black","black","black","white","white","black","black","black","white","white","black","black","black","white","white","white","white","white","black","white","black","black","white","white","white","white","black","white","white","black","white","white","white","black","black","white","white","black","black","black","black","black","white","white","white","black","white","black","black","white","black","black","white","black","black","black","black","white","white","white","black","black","white","white","black","black","black","black","black","black","black","white","black","white","black","white","white","black","white","black","white","white","white","white","white","white","white","white","black","white","black","white","white","white","black","white","black","black","black","black","white","white","white","black","white","black","white","black","white","white","white","white","white","white","black","white","black","black","black","black","black","white","white","black","black","black","black","white","black","black","black","white","black","white","black","black","black","black","black","black","black","white","white","white","black","black","black","white","white","white","white","black","white","black","black","white","white","white","black","white","white","black","black","black","black","black","white","white","black","black","black","white","black","black","white","white","black","white","white","black","black","white","white","white","black","white","black","white","black","white","white","black","white","white"],"dot_shape":"circle","background_color":"#AAA","RDK_type":3,"aperture_type":2,"reinsert_type":2,"frame_rate":16.741666666666667,"frame_rate_array":[10,16,18,15,17,17,17,16,17,17,17,17,16,17,17,16,17,17,17,17,16,17,18,16,17,18,15,17,17,16,17,17,16,17,17,17,16,16,17,17,17,17,17,17,17,16,17,16,17,16,17,17,18,16,17,16,17,17,17,16,17,17,17,17,18,16,17,17,16,16,17,17,17,17,17,17,17,17,17,17,17,18,18,17,17,17,17,15,16,17,17,17,16,17,18,17,17,17,17,15,17,16,17,17,17,16,17,17,16,17,17,18,16,17,18,16,17,17,17,17],"number_of_frames":120,"aperture_center_x":960,"aperture_center_y":540,"fixation_cross":true,"fixation_cross_width":15,"fixation_cross_height":15,"fixation_cross_color":"#111","fixation_cross_thickness":1,"border":true,"border_thickness":2,"border_color":"transparent","canvas_width":1920,"canvas_height":1080,"trial_type":"rdk","trial_index":48,"plugin_version":"2.0.0","time_elapsed":423758},{"rt":4106,"stimulus":"\n        <div class=\"response-container\">\n          <div class=\"response-instruction\">\n            <p>rotate the bar by using the left and right arrow keys.</p>\n            <p>when you are determined, press the Enter key.</p>\n          </div>\n          <div class=\"response-circle\">\n            <div class=\"response-fixation\"></div>\n            <div id=\"bar\" class=\"rotating-bar\"></div>\n          </div>\n        </div>\n      ","response":"Enter","trial_type":"html-keyboard-response","trial_index":49,"plugin_version":"2.1.0","time_elapsed":427866,"response_angle_css":268,"response_angle_rdk":182,"angular_error_target":-113,"angular_error_distractor":-6,"target_direction":295,"target_group":"white","reward_points":0},{"rt":null,"stimulus":"\n          <p style=\"color: #FF3333;\">Your reward: 0 points</p>\n        ","response":null,"trial_type":"html-keyboard-response","trial_index":50,"plugin_version":"2.1.0","time_elapsed":429877},{"rt":null,"stimulus":"<div class=\"fixation\" style=\"font-size: 60px;\">+</div>","response":null,"trial_type":"html-keyboard-response","trial_index":51,"plugin_version":"2.1.0","time_elapsed":430891},{"target_group":"black","condition_label":"B_H_vs_W_L_rep9","target_direction":347,"distractor_direction":95,"session_rotation":256,"rt":-1,"response":"","correct":false,"choices":"ALL_KEYS","correct_choice":["a"],"trial_duration":2000,"flip_timestamps":[],"response_ends_trial":false,"number_of_apertures":200,"number_of_dots":[1,1,1,1,1,1,1,1,1,1,1,1,1,1,1,1,1,1,1,1,1,1,1,1,1,1,1,1,1,1,1,1,1,1,1,1,1,1,1,1,1,1,1,1,1,1,1,1,1,1,1,1,1,1,1,1,1,1,1,1,1,1,1,1,1,1,1,1,1,1,1,1,1,1,1,1,1,1,1,1,1,1,1,1,1,1,1,1,1,1,1,1,1,1,1,1,1,1,1,1,1,1,1,1,1,1,1,1,1,1,1,1,1,1,1,1,1,1,1,1,1,1,1,1,1,1,1,1,1,1,1,1,1,1,1,1,1,1,1,1,1,1,1,1,1,1,1,1,1,1,1,1,1,1,1,1,1,1,1,1,1,1,1,1,1,1,1,1,1,1,1,1,1,1,1,1,1,1,1,1,1,1,1,1,1,1,1,1,1,1,1,1,1,1,1,1,1,1,1,1],"number_of_sets":1,"coherent_direction":[347,347,347,95,95,95,347,95,347,347,95,347,95,95,95,95,347,347,95,95,347,347,95,347,95,95,347,347,95,95,347,95,347,95,347,347,95,347,95,347,347,95,347,347,347,347,347,95,95,95,347,347,347,95,347,95,347,347,347,347,95,347,347,95,347,95,347,347,347,347,347,347,347,347,347,347,95,95,347,95,95,347,95,95,347,347,95,95,95,347,95,95,95,95,95,347,95,347,95,347,347,95,95,95,95,347,347,95,95,347,95,95,347,347,347,95,347,347,95,347,347,95,95,347,347,347,347,95,95,347,95,95,347,95,347,95,95,347,347,95,95,347,347,95,95,95,347,347,347,95,95,347,95,347,95,347,347,95,347,95,95,95,347,95,95,95,95,95,347,95,347,347,347,95,95,347,95,347,95,347,95,95,95,95,95,95,95,95,347,347,347,95,347,95,347,95,347,95,95,347],"coherence":1,"opposite_coherence":0,"dot_radius":2,"dot_side_length":1,"dot_life":-1,"move_distance":1,"aperture_width":300,"aperture_height":300,"dot_color":["black","black","black","white","white","white","black","white","black","black","white","black","white","white","white","white","black","black","white","white","black","black","white","black","white","white","black","black","white","white","black","white","black","white","black","black","white","black","white","black","black","white","black","black","black","black","black","white","white","white","black","black","black","white","black","white","black","black","black","black","white","black","black","white","black","white","black","black","black","black","black","black","black","black","black","black","white","white","black","white","white","black","white","white","black","black","white","white","white","black","white","white","white","white","white","black","white","black","white","black","black","white","white","white","white","black","black","white","white","black","white","white","black","black","black","white","black","black","white","black","black","white","white","black","black","black","black","white","white","black","white","white","black","white","black","white","white","black","black","white","white","black","black","white","white","white","black","black","black","white","white","black","white","black","white","black","black","white","black","white","white","white","black","white","white","white","white","white","black","white","black","black","black","white","white","black","white","black","white","black","white","white","white","white","white","white","white","white","black","black","black","white","black","white","black","white","black","white","white","black"],"dot_shape":"circle","background_color":"#AAA","RDK_type":3,"aperture_type":2,"reinsert_type":2,"frame_rate":16.791666666666668,"frame_rate_array":[12,18,19,13,17,17,17,16,17,16,17,17,17,17,17,18,15,17,17,17,16,17,16,18,16,17,16,17,17,17,18,17,16,16,16,17,17,17,17,17,17,17,16,17,21,12,17,17,17,16,17,17,17,17,17,17,17,17,16,17,17,17,17,17,17,16,17,17,17,18,16,17,17,16,16,17,17,17,17,17,17,17,17,17,17,18,16,16,17,17,17,17,17,17,18,16,17,17,18,17,16,17,17,17,17,17,17,16,17,16,18,16,17,16,17,17,17,17,17,17],"number_of_frames":120,"aperture_center_x":960,"aperture_center_y":540,"fixation_cross":true,"fixation_cross_width":15,"fixation_cross_height":15,"fixation_cross_color":"#111","fixation_cross_thickness":1,"border":true,"border_thickness":2,"border_color":"transparent","canvas_width":1920,"canvas_height":1080,"trial_type":"rdk","trial_index":52,"plugin_version":"2.0.0","time_elapsed":432907},{"rt":2595,"stimulus":"\n        <div class=\"response-container\">\n          <div class=\"response-instruction\">\n            <p>rotate the bar by using the left and right arrow keys.</p>\n            <p>when you are determined, press the Enter key.</p>\n          </div>\n          <div class=\"response-circle\">\n            <div class=\"response-fixation\"></div>\n            <div id=\"bar\" class=\"rotating-bar\"></div>\n          </div>\n        </div>\n      ","response":"Enter","trial_type":"html-keyboard-response","trial_index":53,"plugin_version":"2.1.0","time_elapsed":435504,"response_angle_css":362,"response_angle_rdk":88,"angular_error_target":101,"angular_error_distractor":-7,"target_direction":347,"target_group":"black","reward_points":0},{"rt":null,"stimulus":"\n          <p style=\"color: #FF3333;\">Your reward: 0 points</p>\n        ","response":null,"trial_type":"html-keyboard-response","trial_index":54,"plugin_version":"2.1.0","time_elapsed":437508},{"rt":null,"stimulus":"<div class=\"fixation\" style=\"font-size: 60px;\">+</div>","response":null,"trial_type":"html-keyboard-response","trial_index":55,"plugin_version":"2.1.0","time_elapsed":438524},{"target_group":"black","condition_label":"B_H_vs_W_L_rep2","target_direction":5,"distractor_direction":96,"session_rotation":256,"rt":-1,"response":"","correct":false,"choices":"ALL_KEYS","correct_choice":["a"],"trial_duration":2000,"flip_timestamps":[],"response_ends_trial":false,"number_of_apertures":200,"number_of_dots":[1,1,1,1,1,1,1,1,1,1,1,1,1,1,1,1,1,1,1,1,1,1,1,1,1,1,1,1,1,1,1,1,1,1,1,1,1,1,1,1,1,1,1,1,1,1,1,1,1,1,1,1,1,1,1,1,1,1,1,1,1,1,1,1,1,1,1,1,1,1,1,1,1,1,1,1,1,1,1,1,1,1,1,1,1,1,1,1,1,1,1,1,1,1,1,1,1,1,1,1,1,1,1,1,1,1,1,1,1,1,1,1,1,1,1,1,1,1,1,1,1,1,1,1,1,1,1,1,1,1,1,1,1,1,1,1,1,1,1,1,1,1,1,1,1,1,1,1,1,1,1,1,1,1,1,1,1,1,1,1,1,1,1,1,1,1,1,1,1,1,1,1,1,1,1,1,1,1,1,1,1,1,1,1,1,1,1,1,1,1,1,1,1,1,1,1,1,1,1,1],"number_of_sets":1,"coherent_direction":[5,5,96,5,5,96,5,96,5,5,5,5,96,5,5,96,5,96,96,5,96,96,5,96,96,5,5,5,96,5,96,5,96,96,96,5,5,96,5,96,5,96,5,96,96,5,96,5,5,96,96,96,96,5,5,5,96,96,96,5,96,5,5,5,5,96,96,96,96,5,96,5,5,96,5,5,96,96,5,5,5,5,96,5,5,96,5,96,96,5,96,5,96,96,5,5,96,96,96,96,96,96,96,5,5,5,5,96,96,5,5,96,5,96,96,96,96,96,96,96,96,96,5,5,5,5,5,5,5,96,5,96,96,5,96,5,96,5,5,96,96,96,5,96,5,5,96,96,5,96,96,96,5,5,96,5,5,5,5,96,5,5,96,96,5,96,96,5,96,96,5,5,96,96,5,5,96,96,96,96,96,5,5,5,5,96,5,5,96,5,5,5,96,96,96,5,5,96,96,5],"coherence":1,"opposite_coherence":0,"dot_radius":2,"dot_side_length":1,"dot_life":-1,"move_distance":1,"aperture_width":300,"aperture_height":300,"dot_color":["black","black","white","black","black","white","black","white","black","black","black","black","white","black","black","white","black","white","white","black","white","white","black","white","white","black","black","black","white","black","white","black","white","white","white","black","black","white","black","white","black","white","black","white","white","black","white","black","black","white","white","white","white","black","black","black","white","white","white","black","white","black","black","black","black","white","white","white","white","black","white","black","black","white","black","black","white","white","black","black","black","black","white","black","black","white","black","white","white","black","white","black","white","white","black","black","white","white","white","white","white","white","white","black","black","black","black","white","white","black","black","white","black","white","white","white","white","white","white","white","white","white","black","black","black","black","black","black","black","white","black","white","white","black","white","black","white","black","black","white","white","white","black","white","black","black","white","white","black","white","white","white","black","black","white","black","black","black","black","white","black","black","white","white","black","white","white","black","white","white","black","black","white","white","black","black","white","white","white","white","white","black","black","black","black","white","black","black","white","black","black","black","white","white","white","black","black","white","white","black"],"dot_shape":"circle","background_color":"#AAA","RDK_type":3,"aperture_type":2,"reinsert_type":2,"frame_rate":16.775,"frame_rate_array":[9,18,17,18,17,16,17,16,17,17,17,17,17,17,17,17,16,17,17,17,16,17,17,17,17,17,17,17,17,17,17,16,17,17,16,17,17,16,18,15,17,16,17,17,17,17,16,17,17,17,17,17,17,16,17,18,17,15,17,17,17,17,17,17,17,17,16,17,17,17,17,17,17,17,17,16,18,16,17,16,17,17,17,17,17,17,18,16,17,16,17,16,17,17,17,16,16,17,19,15,16,17,17,17,17,17,17,17,17,17,17,17,17,17,16,17,17,17,17,17],"number_of_frames":120,"aperture_center_x":960,"aperture_center_y":540,"fixation_cross":true,"fixation_cross_width":15,"fixation_cross_height":15,"fixation_cross_color":"#111","fixation_cross_thickness":1,"border":true,"border_thickness":2,"border_color":"transparent","canvas_width":1920,"canvas_height":1080,"trial_type":"rdk","trial_index":56,"plugin_version":"2.0.0","time_elapsed":440538},{"rt":4547,"stimulus":"\n        <div class=\"response-container\">\n          <div class=\"response-instruction\">\n            <p>rotate the bar by using the left and right arrow keys.</p>\n            <p>when you are determined, press the Enter key.</p>\n          </div>\n          <div class=\"response-circle\">\n            <div class=\"response-fixation\"></div>\n            <div id=\"bar\" class=\"rotating-bar\"></div>\n          </div>\n        </div>\n      ","response":"Enter","trial_type":"html-keyboard-response","trial_index":57,"plugin_version":"2.1.0","time_elapsed":445086,"response_angle_css":364,"response_angle_rdk":86,"angular_error_target":81,"angular_error_distractor":-10,"target_direction":5,"target_group":"black","reward_points":0},{"rt":null,"stimulus":"\n          <p style=\"color: #FF3333;\">Your reward: 0 points</p>\n        ","response":null,"trial_type":"html-keyboard-response","trial_index":58,"plugin_version":"2.1.0","time_elapsed":447088},{"rt":null,"stimulus":"<div class=\"fixation\" style=\"font-size: 60px;\">+</div>","response":null,"trial_type":"html-keyboard-response","trial_index":59,"plugin_version":"2.1.0","time_elapsed":448105},{"target_group":"white","condition_label":"W_H_vs_B_L_rep2","target_direction":284,"distractor_direction":170,"session_rotation":256,"rt":-1,"response":"","correct":false,"choices":"ALL_KEYS","correct_choice":["a"],"trial_duration":2000,"flip_timestamps":[],"response_ends_trial":false,"number_of_apertures":200,"number_of_dots":[1,1,1,1,1,1,1,1,1,1,1,1,1,1,1,1,1,1,1,1,1,1,1,1,1,1,1,1,1,1,1,1,1,1,1,1,1,1,1,1,1,1,1,1,1,1,1,1,1,1,1,1,1,1,1,1,1,1,1,1,1,1,1,1,1,1,1,1,1,1,1,1,1,1,1,1,1,1,1,1,1,1,1,1,1,1,1,1,1,1,1,1,1,1,1,1,1,1,1,1,1,1,1,1,1,1,1,1,1,1,1,1,1,1,1,1,1,1,1,1,1,1,1,1,1,1,1,1,1,1,1,1,1,1,1,1,1,1,1,1,1,1,1,1,1,1,1,1,1,1,1,1,1,1,1,1,1,1,1,1,1,1,1,1,1,1,1,1,1,1,1,1,1,1,1,1,1,1,1,1,1,1,1,1,1,1,1,1,1,1,1,1,1,1,1,1,1,1,1,1],"number_of_sets":1,"coherent_direction":[170,284,170,284,170,284,170,284,170,170,170,170,284,170,170,284,170,170,284,284,170,284,284,170,284,170,284,284,170,284,284,170,170,170,284,170,170,284,170,170,170,170,170,170,284,284,170,284,170,170,170,284,284,284,284,284,284,170,284,284,284,170,284,284,284,284,284,284,284,284,170,170,170,284,284,170,170,284,284,170,284,284,170,170,170,170,284,170,170,170,284,170,284,170,284,170,170,170,284,284,170,170,284,170,170,170,284,284,284,284,170,170,284,284,170,170,170,170,170,284,170,284,170,284,284,170,284,170,170,170,284,284,284,284,170,170,170,284,170,284,170,284,284,284,284,170,284,170,284,284,284,170,284,170,284,284,284,170,170,170,284,284,284,284,170,170,170,170,284,284,170,284,170,170,170,284,170,170,170,284,284,284,284,284,284,284,170,170,284,284,170,170,170,284,170,170,170,284,284,284],"coherence":1,"opposite_coherence":0,"dot_radius":2,"dot_side_length":1,"dot_life":-1,"move_distance":1,"aperture_width":300,"aperture_height":300,"dot_color":["black","white","black","white","black","white","black","white","black","black","black","black","white","black","black","white","black","black","white","white","black","white","white","black","white","black","white","white","black","white","white","black","black","black","white","black","black","white","black","black","black","black","black","black","white","white","black","white","black","black","black","white","white","white","white","white","white","black","white","white","white","black","white","white","white","white","white","white","white","white","black","black","black","white","white","black","black","white","white","black","white","white","black","black","black","black","white","black","black","black","white","black","white","black","white","black","black","black","white","white","black","black","white","black","black","black","white","white","white","white","black","black","white","white","black","black","black","black","black","white","black","white","black","white","white","black","white","black","black","black","white","white","white","white","black","black","black","white","black","white","black","white","white","white","white","black","white","black","white","white","white","black","white","black","white","white","white","black","black","black","white","white","white","white","black","black","black","black","white","white","black","white","black","black","black","white","black","black","black","white","white","white","white","white","white","white","black","black","white","white","black","black","black","white","black","black","black","white","white","white"],"dot_shape":"circle","background_color":"#AAA","RDK_type":3,"aperture_type":2,"reinsert_type":2,"frame_rate":16.791666666666668,"frame_rate_array":[8,18,17,18,15,17,17,17,18,16,16,17,17,17,17,17,17,16,17,17,18,17,17,15,17,17,16,17,17,17,16,17,17,17,16,17,17,17,17,17,17,17,17,17,17,17,17,17,17,17,17,17,16,17,17,17,17,17,17,16,18,16,16,17,17,17,17,17,17,17,17,16,17,17,17,18,16,17,16,17,17,17,17,17,17,17,16,17,18,16,17,18,16,17,17,17,17,17,17,16,17,18,16,16,17,16,17,18,17,17,16,17,16,17,17,17,17,17,17,17],"number_of_frames":120,"aperture_center_x":960,"aperture_center_y":540,"fixation_cross":true,"fixation_cross_width":15,"fixation_cross_height":15,"fixation_cross_color":"#111","fixation_cross_thickness":1,"border":true,"border_thickness":2,"border_color":"transparent","canvas_width":1920,"canvas_height":1080,"trial_type":"rdk","trial_index":60,"plugin_version":"2.0.0","time_elapsed":450119},{"rt":2555,"stimulus":"\n        <div class=\"response-container\">\n          <div class=\"response-instruction\">\n            <p>rotate the bar by using the left and right arrow keys.</p>\n            <p>when you are determined, press the Enter key.</p>\n          </div>\n          <div class=\"response-circle\">\n            <div class=\"response-fixation\"></div>\n            <div id=\"bar\" class=\"rotating-bar\"></div>\n          </div>\n        </div>\n      ","response":"Enter","trial_type":"html-keyboard-response","trial_index":61,"plugin_version":"2.1.0","time_elapsed":452675,"response_angle_css":197,"response_angle_rdk":253,"angular_error_target":-31,"angular_error_distractor":83,"target_direction":284,"target_group":"white","reward_points":3},{"rt":null,"stimulus":"\n          <p style=\"color: #00FF00;\">Your reward: 3 points</p>\n        ","response":null,"trial_type":"html-keyboard-response","trial_index":62,"plugin_version":"2.1.0","time_elapsed":454689},{"rt":null,"stimulus":"<div class=\"fixation\" style=\"font-size: 60px;\">+</div>","response":null,"trial_type":"html-keyboard-response","trial_index":63,"plugin_version":"2.1.0","time_elapsed":455703},{"target_group":"black","condition_label":"B_H_vs_W_L_rep21","target_direction":351,"distractor_direction":92,"session_rotation":256,"rt":-1,"response":"","correct":false,"choices":"ALL_KEYS","correct_choice":["a"],"trial_duration":2000,"flip_timestamps":[],"response_ends_trial":false,"number_of_apertures":200,"number_of_dots":[1,1,1,1,1,1,1,1,1,1,1,1,1,1,1,1,1,1,1,1,1,1,1,1,1,1,1,1,1,1,1,1,1,1,1,1,1,1,1,1,1,1,1,1,1,1,1,1,1,1,1,1,1,1,1,1,1,1,1,1,1,1,1,1,1,1,1,1,1,1,1,1,1,1,1,1,1,1,1,1,1,1,1,1,1,1,1,1,1,1,1,1,1,1,1,1,1,1,1,1,1,1,1,1,1,1,1,1,1,1,1,1,1,1,1,1,1,1,1,1,1,1,1,1,1,1,1,1,1,1,1,1,1,1,1,1,1,1,1,1,1,1,1,1,1,1,1,1,1,1,1,1,1,1,1,1,1,1,1,1,1,1,1,1,1,1,1,1,1,1,1,1,1,1,1,1,1,1,1,1,1,1,1,1,1,1,1,1,1,1,1,1,1,1,1,1,1,1,1,1],"number_of_sets":1,"coherent_direction":[351,92,351,92,92,92,351,351,92,351,351,351,92,351,92,92,92,351,92,351,92,92,351,351,92,351,351,351,351,92,351,92,351,351,351,351,92,92,351,351,351,92,351,92,92,92,351,351,351,92,351,351,351,92,351,351,351,92,92,92,92,92,351,92,351,92,92,92,351,92,92,92,351,92,92,351,92,351,351,92,92,351,92,351,351,351,351,351,351,351,92,92,92,351,351,351,92,351,92,351,92,351,351,351,351,351,92,92,92,92,92,92,351,92,92,92,92,92,92,92,92,351,92,351,351,351,92,92,92,351,351,92,351,92,351,351,92,92,92,351,351,351,92,92,351,92,351,92,92,351,92,351,92,92,92,92,351,351,351,351,351,92,92,351,351,351,351,351,351,92,92,92,351,92,351,92,351,351,92,92,351,92,92,351,92,92,351,351,351,92,92,92,351,351,92,92,92,92,351,351],"coherence":1,"opposite_coherence":0,"dot_radius":2,"dot_side_length":1,"dot_life":-1,"move_distance":1,"aperture_width":300,"aperture_height":300,"dot_color":["black","white","black","white","white","white","black","black","white","black","black","black","white","black","white","white","white","black","white","black","white","white","black","black","white","black","black","black","black","white","black","white","black","black","black","black","white","white","black","black","black","white","black","white","white","white","black","black","black","white","black","black","black","white","black","black","black","white","white","white","white","white","black","white","black","white","white","white","black","white","white","white","black","white","white","black","white","black","black","white","white","black","white","black","black","black","black","black","black","black","white","white","white","black","black","black","white","black","white","black","white","black","black","black","black","black","white","white","white","white","white","white","black","white","white","white","white","white","white","white","white","black","white","black","black","black","white","white","white","black","black","white","black","white","black","black","white","white","white","black","black","black","white","white","black","white","black","white","white","black","white","black","white","white","white","white","black","black","black","black","black","white","white","black","black","black","black","black","black","white","white","white","black","white","black","white","black","black","white","white","black","white","white","black","white","white","black","black","black","white","white","white","black","black","white","white","white","white","black","black"],"dot_shape":"circle","background_color":"#AAA","RDK_type":3,"aperture_type":2,"reinsert_type":2,"frame_rate":16.766666666666666,"frame_rate_array":[8,18,17,17,17,16,17,17,17,16,17,17,17,16,17,17,17,17,17,17,16,17,17,17,17,17,17,17,17,17,17,17,17,17,17,17,17,17,17,17,16,17,17,17,18,16,17,17,17,15,17,17,16,17,17,17,17,17,17,17,18,17,16,16,15,17,17,16,18,16,17,16,17,17,17,17,17,17,17,17,17,17,16,17,17,17,17,17,17,16,17,17,17,17,17,16,17,16,17,17,17,17,17,17,16,17,17,17,17,17,17,17,17,16,17,17,17,17,16,17],"number_of_frames":120,"aperture_center_x":960,"aperture_center_y":540,"fixation_cross":true,"fixation_cross_width":15,"fixation_cross_height":15,"fixation_cross_color":"#111","fixation_cross_thickness":1,"border":true,"border_thickness":2,"border_color":"transparent","canvas_width":1920,"canvas_height":1080,"trial_type":"rdk","trial_index":64,"plugin_version":"2.0.0","time_elapsed":457717},{"rt":6627,"stimulus":"\n        <div class=\"response-container\">\n          <div class=\"response-instruction\">\n            <p>rotate the bar by using the left and right arrow keys.</p>\n            <p>when you are determined, press the Enter key.</p>\n          </div>\n          <div class=\"response-circle\">\n            <div class=\"response-fixation\"></div>\n            <div id=\"bar\" class=\"rotating-bar\"></div>\n          </div>\n        </div>\n      ","response":"Enter","trial_type":"html-keyboard-response","trial_index":65,"plugin_version":"2.1.0","time_elapsed":464346,"response_angle_css":425,"response_angle_rdk":25,"angular_error_target":34,"angular_error_distractor":-67,"target_direction":351,"target_group":"black","reward_points":3},{"rt":null,"stimulus":"\n          <p style=\"color: #00FF00;\">Your reward: 3 points</p>\n        ","response":null,"trial_type":"html-keyboard-response","trial_index":66,"plugin_version":"2.1.0","time_elapsed":466350},{"rt":null,"stimulus":"<div class=\"fixation\" style=\"font-size: 60px;\">+</div>","response":null,"trial_type":"html-keyboard-response","trial_index":67,"plugin_version":"2.1.0","time_elapsed":467366},{"target_group":"black","condition_label":"B_H_vs_W_L_rep7","target_direction":354,"distractor_direction":102,"session_rotation":256,"rt":-1,"response":"","correct":false,"choices":"ALL_KEYS","correct_choice":["a"],"trial_duration":2000,"flip_timestamps":[],"response_ends_trial":false,"number_of_apertures":200,"number_of_dots":[1,1,1,1,1,1,1,1,1,1,1,1,1,1,1,1,1,1,1,1,1,1,1,1,1,1,1,1,1,1,1,1,1,1,1,1,1,1,1,1,1,1,1,1,1,1,1,1,1,1,1,1,1,1,1,1,1,1,1,1,1,1,1,1,1,1,1,1,1,1,1,1,1,1,1,1,1,1,1,1,1,1,1,1,1,1,1,1,1,1,1,1,1,1,1,1,1,1,1,1,1,1,1,1,1,1,1,1,1,1,1,1,1,1,1,1,1,1,1,1,1,1,1,1,1,1,1,1,1,1,1,1,1,1,1,1,1,1,1,1,1,1,1,1,1,1,1,1,1,1,1,1,1,1,1,1,1,1,1,1,1,1,1,1,1,1,1,1,1,1,1,1,1,1,1,1,1,1,1,1,1,1,1,1,1,1,1,1,1,1,1,1,1,1,1,1,1,1,1,1],"number_of_sets":1,"coherent_direction":[354,102,102,102,102,102,102,102,354,354,102,354,354,354,102,354,354,102,354,354,102,354,102,102,354,102,102,354,354,354,354,354,102,354,102,102,102,102,354,354,354,102,102,102,354,102,102,354,354,354,354,102,354,354,354,354,354,354,102,354,354,102,354,102,102,354,354,354,354,354,354,102,354,102,102,354,102,102,102,102,102,354,102,102,102,102,102,102,354,102,354,354,354,102,354,102,354,102,102,354,102,102,354,354,354,354,102,354,354,354,354,102,354,354,102,354,354,354,102,102,102,354,354,354,354,354,102,102,354,102,354,102,102,102,354,354,354,102,354,102,102,354,102,102,102,102,354,102,102,102,102,102,354,354,102,102,102,102,354,102,354,102,354,102,354,354,354,102,102,354,354,102,354,102,102,354,102,102,354,102,102,102,354,354,354,354,354,354,102,354,354,354,102,102,102,354,102,102,102,102],"coherence":1,"opposite_coherence":0,"dot_radius":2,"dot_side_length":1,"dot_life":-1,"move_distance":1,"aperture_width":300,"aperture_height":300,"dot_color":["black","white","white","white","white","white","white","white","black","black","white","black","black","black","white","black","black","white","black","black","white","black","white","white","black","white","white","black","black","black","black","black","white","black","white","white","white","white","black","black","black","white","white","white","black","white","white","black","black","black","black","white","black","black","black","black","black","black","white","black","black","white","black","white","white","black","black","black","black","black","black","white","black","white","white","black","white","white","white","white","white","black","white","white","white","white","white","white","black","white","black","black","black","white","black","white","black","white","white","black","white","white","black","black","black","black","white","black","black","black","black","white","black","black","white","black","black","black","white","white","white","black","black","black","black","black","white","white","black","white","black","white","white","white","black","black","black","white","black","white","white","black","white","white","white","white","black","white","white","white","white","white","black","black","white","white","white","white","black","white","black","white","black","white","black","black","black","white","white","black","black","white","black","white","white","black","white","white","black","white","white","white","black","black","black","black","black","black","white","black","black","black","white","white","white","black","white","white","white","white"],"dot_shape":"circle","background_color":"#AAA","RDK_type":3,"aperture_type":2,"reinsert_type":2,"frame_rate":16.733333333333334,"frame_rate_array":[10,17,17,17,17,16,17,17,16,17,17,17,17,16,17,17,16,17,17,17,16,17,16,17,17,17,16,17,17,16,17,17,17,17,16,17,17,16,17,17,17,17,17,16,17,16,17,16,17,17,16,17,16,17,17,17,17,17,16,17,17,17,17,17,17,16,17,17,17,17,16,17,17,17,17,16,17,17,17,17,17,16,18,17,16,17,17,17,16,18,16,17,17,17,17,17,18,17,16,18,17,16,17,17,17,17,16,17,17,16,17,17,16,17,17,17,17,17,17,16],"number_of_frames":120,"aperture_center_x":960,"aperture_center_y":540,"fixation_cross":true,"fixation_cross_width":15,"fixation_cross_height":15,"fixation_cross_color":"#111","fixation_cross_thickness":1,"border":true,"border_thickness":2,"border_color":"transparent","canvas_width":1920,"canvas_height":1080,"trial_type":"rdk","trial_index":68,"plugin_version":"2.0.0","time_elapsed":469378},{"rt":5617,"stimulus":"\n        <div class=\"response-container\">\n          <div class=\"response-instruction\">\n            <p>rotate the bar by using the left and right arrow keys.</p>\n            <p>when you are determined, press the Enter key.</p>\n          </div>\n          <div class=\"response-circle\">\n            <div class=\"response-fixation\"></div>\n            <div id=\"bar\" class=\"rotating-bar\"></div>\n          </div>\n        </div>\n      ","response":"Enter","trial_type":"html-keyboard-response","trial_index":69,"plugin_version":"2.1.0","time_elapsed":474997,"response_angle_css":-8,"response_angle_rdk":98,"angular_error_target":104,"angular_error_distractor":-4,"target_direction":354,"target_group":"black","reward_points":0},{"rt":null,"stimulus":"\n          <p style=\"color: #FF3333;\">Your reward: 0 points</p>\n        ","response":null,"trial_type":"html-keyboard-response","trial_index":70,"plugin_version":"2.1.0","time_elapsed":477014},{"rt":null,"stimulus":"<div class=\"fixation\" style=\"font-size: 60px;\">+</div>","response":null,"trial_type":"html-keyboard-response","trial_index":71,"plugin_version":"2.1.0","time_elapsed":478031},{"target_group":"white","condition_label":"W_H_vs_B_L_rep6","target_direction":284,"distractor_direction":182,"session_rotation":256,"rt":882,"response":"ArrowLeft","correct":false,"choices":"ALL_KEYS","correct_choice":["a"],"trial_duration":2000,"flip_timestamps":[],"response_ends_trial":false,"number_of_apertures":200,"number_of_dots":[1,1,1,1,1,1,1,1,1,1,1,1,1,1,1,1,1,1,1,1,1,1,1,1,1,1,1,1,1,1,1,1,1,1,1,1,1,1,1,1,1,1,1,1,1,1,1,1,1,1,1,1,1,1,1,1,1,1,1,1,1,1,1,1,1,1,1,1,1,1,1,1,1,1,1,1,1,1,1,1,1,1,1,1,1,1,1,1,1,1,1,1,1,1,1,1,1,1,1,1,1,1,1,1,1,1,1,1,1,1,1,1,1,1,1,1,1,1,1,1,1,1,1,1,1,1,1,1,1,1,1,1,1,1,1,1,1,1,1,1,1,1,1,1,1,1,1,1,1,1,1,1,1,1,1,1,1,1,1,1,1,1,1,1,1,1,1,1,1,1,1,1,1,1,1,1,1,1,1,1,1,1,1,1,1,1,1,1,1,1,1,1,1,1,1,1,1,1,1,1],"number_of_sets":1,"coherent_direction":[284,284,284,182,284,284,182,284,284,284,182,284,182,182,182,182,182,182,284,182,284,182,284,284,284,182,182,284,284,284,284,182,182,182,182,284,284,182,182,182,284,284,284,284,284,284,182,284,284,284,182,284,182,284,182,182,284,284,284,182,182,182,284,182,284,182,284,284,182,284,284,182,284,284,182,284,182,182,182,182,182,182,284,284,182,284,284,182,182,182,182,182,182,182,182,284,284,284,182,182,182,284,182,284,284,284,182,284,284,182,284,182,284,182,182,182,284,284,182,182,182,182,284,182,182,182,182,182,284,182,284,182,182,182,182,284,182,182,284,284,284,284,182,182,284,182,182,182,284,182,284,182,182,182,284,284,284,182,182,284,182,284,182,284,284,284,284,284,182,182,182,284,182,284,284,284,182,284,182,182,284,284,284,284,182,284,182,284,284,284,182,182,182,284,284,284,284,284,182,284],"coherence":1,"opposite_coherence":0,"dot_radius":2,"dot_side_length":1,"dot_life":-1,"move_distance":1,"aperture_width":300,"aperture_height":300,"dot_color":["white","white","white","black","white","white","black","white","white","white","black","white","black","black","black","black","black","black","white","black","white","black","white","white","white","black","black","white","white","white","white","black","black","black","black","white","white","black","black","black","white","white","white","white","white","white","black","white","white","white","black","white","black","white","black","black","white","white","white","black","black","black","white","black","white","black","white","white","black","white","white","black","white","white","black","white","black","black","black","black","black","black","white","white","black","white","white","black","black","black","black","black","black","black","black","white","white","white","black","black","black","white","black","white","white","white","black","white","white","black","white","black","white","black","black","black","white","white","black","black","black","black","white","black","black","black","black","black","white","black","white","black","black","black","black","white","black","black","white","white","white","white","black","black","white","black","black","black","white","black","white","black","black","black","white","white","white","black","black","white","black","white","black","white","white","white","white","white","black","black","black","white","black","white","white","white","black","white","black","black","white","white","white","white","black","white","black","white","white","white","black","black","black","white","white","white","white","white","black","white"],"dot_shape":"circle","background_color":"#AAA","RDK_type":3,"aperture_type":2,"reinsert_type":2,"frame_rate":16.716666666666665,"frame_rate_array":[9,16,17,17,16,18,16,18,18,15,17,16,18,16,17,17,17,17,17,16,17,17,17,17,17,15,16,17,16,17,17,17,17,16,17,17,17,17,17,17,17,17,17,16,17,15,17,17,17,16,17,17,16,18,17,17,17,15,17,17,17,17,17,17,17,17,17,17,18,18,17,17,17,15,16,17,17,17,17,17,17,17,17,17,16,16,17,17,17,17,17,17,16,17,17,17,17,17,17,17,17,17,17,16,17,17,15,17,17,17,17,16,18,16,17,17,16,17,16,16],"number_of_frames":120,"aperture_center_x":960,"aperture_center_y":540,"fixation_cross":true,"fixation_cross_width":15,"fixation_cross_height":15,"fixation_cross_color":"#111","fixation_cross_thickness":1,"border":true,"border_thickness":2,"border_color":"transparent","canvas_width":1920,"canvas_height":1080,"trial_type":"rdk","trial_index":72,"plugin_version":"2.0.0","time_elapsed":480044},{"rt":2524,"stimulus":"\n        <div class=\"response-container\">\n          <div class=\"response-instruction\">\n            <p>rotate the bar by using the left and right arrow keys.</p>\n            <p>when you are determined, press the Enter key.</p>\n          </div>\n          <div class=\"response-circle\">\n            <div class=\"response-fixation\"></div>\n            <div id=\"bar\" class=\"rotating-bar\"></div>\n          </div>\n        </div>\n      ","response":"Enter","trial_type":"html-keyboard-response","trial_index":73,"plugin_version":"2.1.0","time_elapsed":482569,"response_angle_css":283,"response_angle_rdk":167,"angular_error_target":-117,"angular_error_distractor":-15,"target_direction":284,"target_group":"white","reward_points":0},{"rt":null,"stimulus":"\n          <p style=\"color: #FF3333;\">Your reward: 0 points</p>\n        ","response":null,"trial_type":"html-keyboard-response","trial_index":74,"plugin_version":"2.1.0","time_elapsed":484580},{"rt":null,"stimulus":"<div class=\"fixation\" style=\"font-size: 60px;\">+</div>","response":null,"trial_type":"html-keyboard-response","trial_index":75,"plugin_version":"2.1.0","time_elapsed":485595},{"target_group":"white","condition_label":"W_H_vs_B_L_rep20","target_direction":277,"distractor_direction":180,"session_rotation":256,"rt":986,"response":"ArrowRight","correct":false,"choices":"ALL_KEYS","correct_choice":["a"],"trial_duration":2000,"flip_timestamps":[],"response_ends_trial":false,"number_of_apertures":200,"number_of_dots":[1,1,1,1,1,1,1,1,1,1,1,1,1,1,1,1,1,1,1,1,1,1,1,1,1,1,1,1,1,1,1,1,1,1,1,1,1,1,1,1,1,1,1,1,1,1,1,1,1,1,1,1,1,1,1,1,1,1,1,1,1,1,1,1,1,1,1,1,1,1,1,1,1,1,1,1,1,1,1,1,1,1,1,1,1,1,1,1,1,1,1,1,1,1,1,1,1,1,1,1,1,1,1,1,1,1,1,1,1,1,1,1,1,1,1,1,1,1,1,1,1,1,1,1,1,1,1,1,1,1,1,1,1,1,1,1,1,1,1,1,1,1,1,1,1,1,1,1,1,1,1,1,1,1,1,1,1,1,1,1,1,1,1,1,1,1,1,1,1,1,1,1,1,1,1,1,1,1,1,1,1,1,1,1,1,1,1,1,1,1,1,1,1,1,1,1,1,1,1,1],"number_of_sets":1,"coherent_direction":[277,180,277,180,180,180,277,180,277,180,277,180,180,180,277,180,180,277,277,180,277,180,277,180,180,180,277,180,277,180,277,277,180,180,277,180,180,180,277,277,180,180,180,180,277,277,277,180,180,277,277,277,277,180,277,277,180,180,180,180,277,180,180,180,277,180,277,180,180,180,277,180,180,277,180,277,180,277,277,180,180,180,277,277,180,180,180,277,277,180,180,180,277,277,277,180,180,277,277,180,180,180,180,277,180,277,277,180,277,180,277,180,180,277,277,180,277,277,277,277,180,277,180,180,180,277,180,180,277,180,180,277,277,180,277,180,277,277,180,180,277,277,180,277,277,180,277,277,277,277,180,277,180,180,277,277,277,180,277,180,180,277,180,180,277,180,277,180,277,277,277,277,277,277,180,277,180,180,277,180,180,180,180,277,277,180,277,277,180,277,277,277,277,277,277,277,180,277,277,277],"coherence":1,"opposite_coherence":0,"dot_radius":2,"dot_side_length":1,"dot_life":-1,"move_distance":1,"aperture_width":300,"aperture_height":300,"dot_color":["white","black","white","black","black","black","white","black","white","black","white","black","black","black","white","black","black","white","white","black","white","black","white","black","black","black","white","black","white","black","white","white","black","black","white","black","black","black","white","white","black","black","black","black","white","white","white","black","black","white","white","white","white","black","white","white","black","black","black","black","white","black","black","black","white","black","white","black","black","black","white","black","black","white","black","white","black","white","white","black","black","black","white","white","black","black","black","white","white","black","black","black","white","white","white","black","black","white","white","black","black","black","black","white","black","white","white","black","white","black","white","black","black","white","white","black","white","white","white","white","black","white","black","black","black","white","black","black","white","black","black","white","white","black","white","black","white","white","black","black","white","white","black","white","white","black","white","white","white","white","black","white","black","black","white","white","white","black","white","black","black","white","black","black","white","black","white","black","white","white","white","white","white","white","black","white","black","black","white","black","black","black","black","white","white","black","white","white","black","white","white","white","white","white","white","white","black","white","white","white"],"dot_shape":"circle","background_color":"#AAA","RDK_type":3,"aperture_type":2,"reinsert_type":2,"frame_rate":16.775,"frame_rate_array":[10,14,17,17,18,17,17,16,17,17,17,17,17,19,14,17,17,17,17,17,16,17,17,17,17,17,17,17,17,17,17,17,17,17,17,17,17,17,17,17,16,17,17,17,16,17,17,17,17,17,17,17,17,17,16,16,17,17,17,16,17,16,17,17,17,17,17,17,18,17,17,17,17,17,17,15,17,17,17,18,17,17,17,16,17,17,17,17,16,17,18,15,17,17,17,17,16,17,17,17,16,17,17,17,17,17,17,17,17,17,16,17,16,17,16,17,17,17,17,16],"number_of_frames":120,"aperture_center_x":960,"aperture_center_y":540,"fixation_cross":true,"fixation_cross_width":15,"fixation_cross_height":15,"fixation_cross_color":"#111","fixation_cross_thickness":1,"border":true,"border_thickness":2,"border_color":"transparent","canvas_width":1920,"canvas_height":1080,"trial_type":"rdk","trial_index":76,"plugin_version":"2.0.0","time_elapsed":487609},{"rt":5840,"stimulus":"\n        <div class=\"response-container\">\n          <div class=\"response-instruction\">\n            <p>rotate the bar by using the left and right arrow keys.</p>\n            <p>when you are determined, press the Enter key.</p>\n          </div>\n          <div class=\"response-circle\">\n            <div class=\"response-fixation\"></div>\n            <div id=\"bar\" class=\"rotating-bar\"></div>\n          </div>\n        </div>\n      ","response":"Enter","trial_type":"html-keyboard-response","trial_index":77,"plugin_version":"2.1.0","time_elapsed":493450,"response_angle_css":433,"response_angle_rdk":17,"angular_error_target":100,"angular_error_distractor":-163,"target_direction":277,"target_group":"white","reward_points":0},{"rt":null,"stimulus":"\n          <p style=\"color: #FF3333;\">Your reward: 0 points</p>\n        ","response":null,"trial_type":"html-keyboard-response","trial_index":78,"plugin_version":"2.1.0","time_elapsed":495459},{"rt":null,"stimulus":"<div class=\"fixation\" style=\"font-size: 60px;\">+</div>","response":null,"trial_type":"html-keyboard-response","trial_index":79,"plugin_version":"2.1.0","time_elapsed":496480},{"target_group":"white","condition_label":"W_H_vs_B_L_rep8","target_direction":265,"distractor_direction":174,"session_rotation":256,"rt":-1,"response":"","correct":false,"choices":"ALL_KEYS","correct_choice":["a"],"trial_duration":2000,"flip_timestamps":[],"response_ends_trial":false,"number_of_apertures":200,"number_of_dots":[1,1,1,1,1,1,1,1,1,1,1,1,1,1,1,1,1,1,1,1,1,1,1,1,1,1,1,1,1,1,1,1,1,1,1,1,1,1,1,1,1,1,1,1,1,1,1,1,1,1,1,1,1,1,1,1,1,1,1,1,1,1,1,1,1,1,1,1,1,1,1,1,1,1,1,1,1,1,1,1,1,1,1,1,1,1,1,1,1,1,1,1,1,1,1,1,1,1,1,1,1,1,1,1,1,1,1,1,1,1,1,1,1,1,1,1,1,1,1,1,1,1,1,1,1,1,1,1,1,1,1,1,1,1,1,1,1,1,1,1,1,1,1,1,1,1,1,1,1,1,1,1,1,1,1,1,1,1,1,1,1,1,1,1,1,1,1,1,1,1,1,1,1,1,1,1,1,1,1,1,1,1,1,1,1,1,1,1,1,1,1,1,1,1,1,1,1,1,1,1],"number_of_sets":1,"coherent_direction":[265,265,174,265,174,174,265,174,174,265,174,174,265,174,265,265,174,174,174,174,265,174,174,265,174,174,174,174,174,265,174,174,265,174,174,174,174,265,265,174,174,174,174,174,265,265,174,265,265,265,265,265,174,265,174,174,265,265,174,265,265,265,174,174,265,265,174,174,265,265,174,174,265,174,174,265,174,265,174,265,265,174,265,265,265,174,174,265,265,265,265,174,265,265,265,174,174,265,265,174,265,174,265,265,174,265,174,174,265,174,265,265,174,265,265,265,265,265,265,174,265,174,174,174,265,265,174,174,174,174,174,265,265,265,265,174,174,265,174,265,174,265,265,265,265,265,174,174,265,174,265,265,174,174,174,174,174,174,174,265,265,174,265,174,174,174,174,265,174,265,265,265,265,265,265,174,265,265,174,265,265,174,174,174,265,174,265,174,265,265,174,174,174,174,265,265,174,174,265,265],"coherence":1,"opposite_coherence":0,"dot_radius":2,"dot_side_length":1,"dot_life":-1,"move_distance":1,"aperture_width":300,"aperture_height":300,"dot_color":["white","white","black","white","black","black","white","black","black","white","black","black","white","black","white","white","black","black","black","black","white","black","black","white","black","black","black","black","black","white","black","black","white","black","black","black","black","white","white","black","black","black","black","black","white","white","black","white","white","white","white","white","black","white","black","black","white","white","black","white","white","white","black","black","white","white","black","black","white","white","black","black","white","black","black","white","black","white","black","white","white","black","white","white","white","black","black","white","white","white","white","black","white","white","white","black","black","white","white","black","white","black","white","white","black","white","black","black","white","black","white","white","black","white","white","white","white","white","white","black","white","black","black","black","white","white","black","black","black","black","black","white","white","white","white","black","black","white","black","white","black","white","white","white","white","white","black","black","white","black","white","white","black","black","black","black","black","black","black","white","white","black","white","black","black","black","black","white","black","white","white","w