[{"rt":750771,"stimulus":"Welcome to the experiment. Press any key to begin.","response":" ","trial_type":"html-keyboard-response","trial_index":0,"plugin_version":"2.1.0","time_elapsed":750781},{"rt":41131,"stimulus":"\n        <div class=\"instructions-container\">\n          <h2>Instructions</h2>\n\n          <p>\n          In this experiment, you will see <strong>two Random Dot Kinematograms (RDKs)</strong> displayed simultaneously.\n          </p>\n\n          <p>\n          An RDK is a visual stimulus consisting of many small dots that move coherently in a single direction. \n          In this experiment, the dots will be either <strong>white</strong> or <strong>black</strong> \n          (see the short demo below for an example of an RDK stimulus).\n          </p>\n\n          <p>\n          On each trial, the two RDKs will move in different directions. \n          Your task is to decide <strong>which RDK appears to contain more dots</strong>.\n          </p>\n\n          <p>\n          The RDK that you judge to have more dots is called the <strong>target RDK</strong>. \n          For example, if the white RDK appears to have more dots than the black RDK, \n          you should report the motion direction of the white RDK.\n          </p>\n\n          <p>\n          After viewing the RDKs, you will rotate a bar to indicate the perceived direction of the target RDK \n          using the <strong>left</strong> and <strong>right arrow keys</strong>. \n          Press <strong>Enter</strong> when you are satisfied with your response.\n          </p>\n\n          <p>\n          You will receive points based on the <strong>accuracy of your response</strong>, \n          and your final <strong>bonus reward</strong> may depend on your overall performance. \n          Please try to respond as accurately as possible.\n          </p>\n\n          <p>\n          You will first complete <strong>three practice trials</strong>. \n          Press the <strong>Enter</strong> key to start the practice phase.\n          </p>\n\n          <canvas id=\"instruction-demo-rdk\" width=\"300\" height=\"300\"style=\"display:block;margin:12px auto; border-radius: 50%;\"></canvas>\n        </div>\n      ","response":"Enter","trial_type":"html-keyboard-response","trial_index":1,"plugin_version":"2.1.0","time_elapsed":791921},{"rt":null,"stimulus":"<div class=\"fixation\" style=\"font-size: 60px;\">+</div>","response":null,"trial_type":"html-keyboard-response","trial_index":2,"plugin_version":"2.1.0","time_elapsed":792937},{"target_group":"black","target_index":1,"condition_label":"B_H_vs_W_L","rt":-1,"response":"","correct":false,"choices":"ALL_KEYS","correct_choice":["a"],"trial_duration":2000,"flip_timestamps":[],"response_ends_trial":false,"number_of_apertures":2,"number_of_dots":[50,100],"number_of_sets":1,"coherent_direction":[10,100],"coherence":1,"opposite_coherence":0,"dot_radius":2,"dot_side_length":1,"dot_life":-1,"move_distance":1,"aperture_width":300,"aperture_height":300,"dot_color":["white","black"],"dot_shape":"circle","background_color":"#AAA","RDK_type":3,"aperture_type":2,"reinsert_type":2,"frame_rate":17.094017094017094,"frame_rate_array":[6,7,109,6,4,15,15,17,17,17,17,16,17,17,17,18,16,17,16,17,17,17,16,17,17,17,16,18,16,16,18,15,16,17,16,17,17,16,17,17,16,17,17,16,17,17,17,17,17,16,16,17,17,17,16,17,17,17,17,16,17,16,18,17,16,17,17,17,16,17,17,16,16,17,17,17,16,17,16,17,16,17,16,17,17,16,17,17,18,15,17,19,15,15,17,17,17,17,17,16,17,16,16,17,16,17,17,17,17,17,17,17,17,17,17,17,16],"number_of_frames":117,"aperture_center_x":960,"aperture_center_y":540,"fixation_cross":true,"fixation_cross_width":15,"fixation_cross_height":15,"fixation_cross_color":"#111","fixation_cross_thickness":1,"border":true,"border_thickness":2,"border_color":"transparent","canvas_width":1920,"canvas_height":1080,"trial_type":"rdk","trial_index":3,"plugin_version":"2.0.0","time_elapsed":794959,"target_direction":100,"distractor_direction":10},{"rt":3734,"stimulus":"\n        <div class=\"response-container\">\n          <div class=\"response-instruction\">\n            <p>rotate the bar by using the left and right arrow keys.</p>\n            <p>when you are determined, press the Enter key.</p>\n          </div>\n          <div class=\"response-circle\">\n            <div class=\"response-fixation\"></div>\n            <div id=\"bar\" class=\"rotating-bar\"></div>\n          </div>\n        </div>\n      ","response":"Enter","trial_type":"html-keyboard-response","trial_index":4,"plugin_version":"2.1.0","time_elapsed":798697,"response_angle_css":-34,"response_angle_rdk":124,"angular_error_target":24,"angular_error_distractor":114,"target_direction":100,"target_group":"black","reward_points":5},{"rt":null,"stimulus":"\n          <p style=\"color: #00FF00;\">Your reward: 5 points</p>\n        ","response":null,"trial_type":"html-keyboard-response","trial_index":5,"plugin_version":"2.1.0","time_elapsed":800713},{"rt":null,"stimulus":"<div class=\"fixation\" style=\"font-size: 60px;\">+</div>","response":null,"trial_type":"html-keyboard-response","trial_index":6,"plugin_version":"2.1.0","time_elapsed":801729},{"target_group":"white","target_index":0,"condition_label":"W_H_vs_B_L","rt":-1,"response":"","correct":false,"choices":"ALL_KEYS","correct_choice":["a"],"trial_duration":2000,"flip_timestamps":[],"response_ends_trial":false,"number_of_apertures":2,"number_of_dots":[100,50],"number_of_sets":1,"coherent_direction":[150,30],"coherence":1,"opposite_coherence":0,"dot_radius":2,"dot_side_length":1,"dot_life":-1,"move_distance":1,"aperture_width":300,"aperture_height":300,"dot_color":["white","black"],"dot_shape":"circle","background_color":"#AAA","RDK_type":3,"aperture_type":2,"reinsert_type":2,"frame_rate":16.5,"frame_rate_array":[6,4,14,16,17,18,15,18,16,16,17,17,16,18,16,17,16,18,16,17,17,16,16,17,17,17,17,16,17,16,17,17,17,17,17,17,17,17,16,17,17,16,17,16,16,17,18,16,16,17,18,16,17,19,14,17,16,18,16,17,17,17,16,16,17,17,17,17,16,17,17,16,17,17,17,16,17,16,17,17,16,17,17,16,17,18,16,17,17,16,17,17,16,17,17,16,17,18,17,16,17,17,17,16,16,17,17,17,17,16,16,17,18,17,19,15,16,16,16,17],"number_of_frames":120,"aperture_center_x":960,"aperture_center_y":540,"fixation_cross":true,"fixation_cross_width":15,"fixation_cross_height":15,"fixation_cross_color":"#111","fixation_cross_thickness":1,"border":true,"border_thickness":2,"border_color":"transparent","canvas_width":1920,"canvas_height":1080,"trial_type":"rdk","trial_index":7,"plugin_version":"2.0.0","time_elapsed":803748,"target_direction":150,"distractor_direction":30},{"rt":4116,"stimulus":"\n        <div class=\"response-container\">\n          <div class=\"response-instruction\">\n            <p>rotate the bar by using the left and right arrow keys.</p>\n            <p>when you are determined, press the Enter key.</p>\n          </div>\n          <div class=\"response-circle\">\n            <div class=\"response-fixation\"></div>\n            <div id=\"bar\" class=\"rotating-bar\"></div>\n          </div>\n        </div>\n      ","response":"Enter","trial_type":"html-keyboard-response","trial_index":8,"plugin_version":"2.1.0","time_elapsed":807868,"response_angle_css":-50,"response_angle_rdk":140,"angular_error_target":-10,"angular_error_distractor":110,"target_direction":150,"target_group":"white","reward_points":8},{"rt":null,"stimulus":"\n          <p style=\"color: #00FF00;\">Your reward: 8 points</p>\n        ","response":null,"trial_type":"html-keyboard-response","trial_index":9,"plugin_version":"2.1.0","time_elapsed":809888},{"rt":null,"stimulus":"<div class=\"fixation\" style=\"font-size: 60px;\">+</div>","response":null,"trial_type":"html-keyboard-response","trial_index":10,"plugin_version":"2.1.0","time_elapsed":810904},{"target_group":"black","target_index":1,"condition_label":"B_H_vs_W_L","rt":-1,"response":"","correct":false,"choices":"ALL_KEYS","correct_choice":["a"],"trial_duration":2000,"flip_timestamps":[],"response_ends_trial":false,"number_of_apertures":2,"number_of_dots":[50,100],"number_of_sets":1,"coherent_direction":[270,180],"coherence":1,"opposite_coherence":0,"dot_radius":2,"dot_side_length":1,"dot_life":-1,"move_distance":1,"aperture_width":300,"aperture_height":300,"dot_color":["white","black"],"dot_shape":"circle","background_color":"#AAA","RDK_type":3,"aperture_type":2,"reinsert_type":2,"frame_rate":16.708333333333332,"frame_rate_array":[8,17,17,17,17,16,17,17,17,16,17,17,17,16,17,17,17,16,17,17,17,17,17,17,16,17,17,17,16,17,17,17,16,17,17,17,17,16,16,18,16,16,17,17,16,17,17,16,17,17,17,17,17,17,17,17,17,17,16,17,17,16,17,17,17,17,17,16,17,17,17,17,17,17,17,17,17,17,17,16,17,17,17,17,16,17,17,16,17,17,17,17,16,16,17,17,17,17,17,17,16,17,17,16,17,17,17,17,16,16,18,16,17,16,17,16,17,17,17,17],"number_of_frames":120,"aperture_center_x":960,"aperture_center_y":540,"fixation_cross":true,"fixation_cross_width":15,"fixation_cross_height":15,"fixation_cross_color":"#111","fixation_cross_thickness":1,"border":true,"border_thickness":2,"border_color":"transparent","canvas_width":1920,"canvas_height":1080,"trial_type":"rdk","trial_index":11,"plugin_version":"2.0.0","time_elapsed":812918,"target_direction":180,"distractor_direction":270},{"rt":4346,"stimulus":"\n        <div class=\"response-container\">\n          <div class=\"response-instruction\">\n            <p>rotate the bar by using the left and right arrow keys.</p>\n            <p>when you are determined, press the Enter key.</p>\n          </div>\n          <div class=\"response-circle\">\n            <div class=\"response-fixation\"></div>\n            <div id=\"bar\" class=\"rotating-bar\"></div>\n          </div>\n        </div>\n      ","response":"Enter","trial_type":"html-keyboard-response","trial_index":12,"plugin_version":"2.1.0","time_elapsed":817267,"response_angle_css":303,"response_angle_rdk":147,"angular_error_target":-33,"angular_error_distractor":-123,"target_direction":180,"target_group":"black","reward_points":3},{"rt":null,"stimulus":"\n          <p style=\"color: #00FF00;\">Your reward: 3 points</p>\n        ","response":null,"trial_type":"html-keyboard-response","trial_index":13,"plugin_version":"2.1.0","time_elapsed":819279},{"rt":1058,"stimulus":"\n        <div class=\"instructions-container\">\n          <h2>End of Practice</h2>\n          <p>You have completed the practice trials.</p>\n          <p>Press <strong>Enter</strong> key to begin the main experiment.</p>\n        </div>\n      ","response":"Enter","trial_type":"html-keyboard-response","trial_index":14,"plugin_version":"2.1.0","time_elapsed":820339},{"rt":null,"stimulus":"<div class=\"fixation\" style=\"font-size: 60px;\">+</div>","response":null,"trial_type":"html-keyboard-response","trial_index":15,"plugin_version":"2.1.0","time_elapsed":821344},{"target_group":"white","condition_label":"W_H_vs_B_L_rep13","target_direction":44,"distractor_direction":290,"session_rotation":3,"rt":-1,"response":"","correct":false,"choices":"ALL_KEYS","correct_choice":["a"],"trial_duration":2000,"flip_timestamps":[],"response_ends_trial":false,"number_of_apertures":200,"number_of_dots":[1,1,1,1,1,1,1,1,1,1,1,1,1,1,1,1,1,1,1,1,1,1,1,1,1,1,1,1,1,1,1,1,1,1,1,1,1,1,1,1,1,1,1,1,1,1,1,1,1,1,1,1,1,1,1,1,1,1,1,1,1,1,1,1,1,1,1,1,1,1,1,1,1,1,1,1,1,1,1,1,1,1,1,1,1,1,1,1,1,1,1,1,1,1,1,1,1,1,1,1,1,1,1,1,1,1,1,1,1,1,1,1,1,1,1,1,1,1,1,1,1,1,1,1,1,1,1,1,1,1,1,1,1,1,1,1,1,1,1,1,1,1,1,1,1,1,1,1,1,1,1,1,1,1,1,1,1,1,1,1,1,1,1,1,1,1,1,1,1,1,1,1,1,1,1,1,1,1,1,1,1,1,1,1,1,1,1,1,1,1,1,1,1,1,1,1,1,1,1,1],"number_of_sets":1,"coherent_direction":[44,44,290,44,290,44,290,290,44,290,290,44,44,290,290,290,44,290,290,290,290,44,290,290,290,44,290,44,44,290,290,44,290,44,290,290,44,290,290,290,290,44,44,290,290,44,44,44,44,44,290,290,44,44,290,290,290,290,44,44,44,44,290,290,44,44,44,290,290,44,290,290,44,44,44,44,44,290,290,44,44,290,290,44,44,44,290,44,44,290,44,44,290,44,290,290,44,290,44,44,290,290,290,290,44,290,290,44,290,44,290,44,44,290,290,44,44,44,44,290,44,290,44,290,290,290,290,44,290,44,290,290,290,290,44,44,290,44,44,290,290,290,290,44,290,290,290,44,44,44,44,44,44,44,290,290,290,290,44,44,44,44,44,290,44,290,290,44,290,44,44,44,290,44,44,290,290,290,290,44,44,44,44,290,44,290,290,290,290,44,44,44,44,290,44,290,44,44,290,44],"coherence":1,"opposite_coherence":0,"dot_radius":2,"dot_side_length":1,"dot_life":-1,"move_distance":1,"aperture_width":300,"aperture_height":300,"dot_color":["white","white","black","white","black","white","black","black","white","black","black","white","white","black","black","black","white","black","black","black","black","white","black","black","black","white","black","white","white","black","black","white","black","white","black","black","white","black","black","black","black","white","white","black","black","white","white","white","white","white","black","black","white","white","black","black","black","black","white","white","white","white","black","black","white","white","white","black","black","white","black","black","white","white","white","white","white","black","black","white","white","black","black","white","white","white","black","white","white","black","white","white","black","white","black","black","white","black","white","white","black","black","black","black","white","black","black","white","black","white","black","white","white","black","black","white","white","white","white","black","white","black","white","black","black","black","black","white","black","white","black","black","black","black","white","white","black","white","white","black","black","black","black","white","black","black","black","white","white","white","white","white","white","white","black","black","black","black","white","white","white","white","white","black","white","black","black","white","black","white","white","white","black","white","white","black","black","black","black","white","white","white","white","black","white","black","black","black","black","white","white","white","white","black","white","black","white","white","black","white"],"dot_shape":"circle","background_color":"#AAA","RDK_type":3,"aperture_type":2,"reinsert_type":2,"frame_rate":18.126126126126128,"frame_rate_array":[12,10,16,21,24,21,20,21,23,19,21,22,21,21,13,8,8,16,17,17,20,20,16,19,32,27,26,22,10,7,18,16,18,21,18,14,17,18,19,18,19,25,21,18,19,21,20,13,17,17,18,19,18,17,16,17,19,20,23,20,19,18,21,20,20,17,17,14,8,10,18,18,19,20,16,18,13,24,27,25,22,19,19,18,10,18,23,16,18,16,16,19,21,20,18,20,21,21,20,18,18,12,8,13,16,18,20,19,15,17,17],"number_of_frames":111,"aperture_center_x":960,"aperture_center_y":540,"fixation_cross":true,"fixation_cross_width":15,"fixation_cross_height":15,"fixation_cross_color":"#111","fixation_cross_thickness":1,"border":true,"border_thickness":2,"border_color":"transparent","canvas_width":1920,"canvas_height":1080,"trial_type":"rdk","trial_index":16,"plugin_version":"2.0.0","time_elapsed":823402},{"rt":3948,"stimulus":"\n        <div class=\"response-container\">\n          <div class=\"response-instruction\">\n            <p>rotate the bar by using the left and right arrow keys.</p>\n            <p>when you are determined, press the Enter key.</p>\n          </div>\n          <div class=\"response-circle\">\n            <div class=\"response-fixation\"></div>\n            <div id=\"bar\" class=\"rotating-bar\"></div>\n          </div>\n        </div>\n      ","response":"Enter","trial_type":"html-keyboard-response","trial_index":17,"plugin_version":"2.1.0","time_elapsed":827352,"response_angle_css":187,"response_angle_rdk":263,"angular_error_target":-141,"angular_error_distractor":-27,"target_direction":44,"target_group":"white","reward_points":0},{"rt":null,"stimulus":"\n          <p style=\"color: #FF3333;\">Your reward: 0 points</p>\n        ","response":null,"trial_type":"html-keyboard-response","trial_index":18,"plugin_version":"2.1.0","time_elapsed":829369},{"rt":null,"stimulus":"<div class=\"fixation\" style=\"font-size: 60px;\">+</div>","response":null,"trial_type":"html-keyboard-response","trial_index":19,"plugin_version":"2.1.0","time_elapsed":830385},{"target_group":"black","condition_label":"B_H_vs_W_L_rep11","target_direction":107,"distractor_direction":209,"session_rotation":3,"rt":-1,"response":"","correct":false,"choices":"ALL_KEYS","correct_choice":["a"],"trial_duration":2000,"flip_timestamps":[],"response_ends_trial":false,"number_of_apertures":200,"number_of_dots":[1,1,1,1,1,1,1,1,1,1,1,1,1,1,1,1,1,1,1,1,1,1,1,1,1,1,1,1,1,1,1,1,1,1,1,1,1,1,1,1,1,1,1,1,1,1,1,1,1,1,1,1,1,1,1,1,1,1,1,1,1,1,1,1,1,1,1,1,1,1,1,1,1,1,1,1,1,1,1,1,1,1,1,1,1,1,1,1,1,1,1,1,1,1,1,1,1,1,1,1,1,1,1,1,1,1,1,1,1,1,1,1,1,1,1,1,1,1,1,1,1,1,1,1,1,1,1,1,1,1,1,1,1,1,1,1,1,1,1,1,1,1,1,1,1,1,1,1,1,1,1,1,1,1,1,1,1,1,1,1,1,1,1,1,1,1,1,1,1,1,1,1,1,1,1,1,1,1,1,1,1,1,1,1,1,1,1,1,1,1,1,1,1,1,1,1,1,1,1,1],"number_of_sets":1,"coherent_direction":[209,107,209,209,209,209,107,209,107,107,209,209,209,209,209,209,209,209,107,107,107,107,107,107,209,107,107,107,107,209,107,107,107,209,209,107,209,107,107,209,209,209,209,107,209,107,209,107,209,107,209,107,209,107,107,209,107,107,107,107,107,107,209,209,107,209,107,209,107,107,107,209,107,209,209,209,107,209,209,209,209,209,107,107,107,107,209,209,107,107,107,209,107,107,107,107,209,107,209,209,209,107,209,209,107,107,209,209,209,209,107,107,209,209,107,107,209,107,209,107,107,209,209,209,209,209,107,107,107,209,209,209,209,107,209,209,107,209,209,107,107,209,107,107,209,209,209,209,209,209,107,107,209,107,209,107,107,209,107,209,209,107,209,107,107,209,209,209,209,209,107,107,107,107,107,107,107,107,107,107,107,209,107,107,107,107,107,107,209,209,209,209,107,107,209,209,107,209,209,209],"coherence":1,"opposite_coherence":0,"dot_radius":2,"dot_side_length":1,"dot_life":-1,"move_distance":1,"aperture_width":300,"aperture_height":300,"dot_color":["white","black","white","white","white","white","black","white","black","black","white","white","white","white","white","white","white","white","black","black","black","black","black","black","white","black","black","black","black","white","black","black","black","white","white","black","white","black","black","white","white","white","white","black","white","black","white","black","white","black","white","black","white","black","black","white","black","black","black","black","black","black","white","white","black","white","black","white","black","black","black","white","black","white","white","white","black","white","white","white","white","white","black","black","black","black","white","white","black","black","black","white","black","black","black","black","white","black","white","white","white","black","white","white","black","black","white","white","white","white","black","black","white","white","black","black","white","black","white","black","black","white","white","white","white","white","black","black","black","white","white","white","white","black","white","white","black","white","white","black","black","white","black","black","white","white","white","white","white","white","black","black","white","black","white","black","black","white","black","white","white","black","white","black","black","white","white","white","white","white","black","black","black","black","black","black","black","black","black","black","black","white","black","black","black","black","black","black","white","white","white","white","black","black","white","white","black","white","white","white"],"dot_shape":"circle","background_color":"#AAA","RDK_type":3,"aperture_type":2,"reinsert_type":2,"frame_rate":18.31192660550459,"frame_rate_array":[11,14,18,15,16,20,21,37,29,26,20,20,10,14,17,16,20,19,17,15,16,17,18,17,19,21,23,20,29,21,16,13,15,17,17,19,18,19,16,16,16,17,16,21,23,22,19,19,21,18,21,18,18,20,21,19,20,19,18,20,11,15,16,18,19,21,15,16,17,16,18,16,21,14,12,14,17,19,19,18,17,16,16,20,24,26,22,23,19,18,20,11,12,21,17,17,16,17,18,17,17,23,21,20,22,22,19,13,12],"number_of_frames":109,"aperture_center_x":960,"aperture_center_y":540,"fixation_cross":true,"fixation_cross_width":15,"fixation_cross_height":15,"fixation_cross_color":"#111","fixation_cross_thickness":1,"border":true,"border_thickness":2,"border_color":"transparent","canvas_width":1920,"canvas_height":1080,"trial_type":"rdk","trial_index":20,"plugin_version":"2.0.0","time_elapsed":832394},{"rt":1447,"stimulus":"\n        <div class=\"response-container\">\n          <div class=\"response-instruction\">\n            <p>rotate the bar by using the left and right arrow keys.</p>\n            <p>when you are determined, press the Enter key.</p>\n          </div>\n          <div class=\"response-circle\">\n            <div class=\"response-fixation\"></div>\n            <div id=\"bar\" class=\"rotating-bar\"></div>\n          </div>\n        </div>\n      ","response":"Enter","trial_type":"html-keyboard-response","trial_index":21,"plugin_version":"2.1.0","time_elapsed":833843,"response_angle_css":355,"response_angle_rdk":95,"angular_error_target":-12,"angular_error_distractor":-114,"target_direction":107,"target_group":"black","reward_points":7},{"rt":null,"stimulus":"\n          <p style=\"color: #00FF00;\">Your reward: 7 points</p>\n        ","response":null,"trial_type":"html-keyboard-response","trial_index":22,"plugin_version":"2.1.0","time_elapsed":835846},{"rt":null,"stimulus":"<div class=\"fixation\" style=\"font-size: 60px;\">+</div>","response":null,"trial_type":"html-keyboard-response","trial_index":23,"plugin_version":"2.1.0","time_elapsed":836862},{"target_group":"white","condition_label":"W_H_vs_B_L_rep17","target_direction":14,"distractor_direction":280,"session_rotation":3,"rt":-1,"response":"","correct":false,"choices":"ALL_KEYS","correct_choice":["a"],"trial_duration":2000,"flip_timestamps":[],"response_ends_trial":false,"number_of_apertures":200,"number_of_dots":[1,1,1,1,1,1,1,1,1,1,1,1,1,1,1,1,1,1,1,1,1,1,1,1,1,1,1,1,1,1,1,1,1,1,1,1,1,1,1,1,1,1,1,1,1,1,1,1,1,1,1,1,1,1,1,1,1,1,1,1,1,1,1,1,1,1,1,1,1,1,1,1,1,1,1,1,1,1,1,1,1,1,1,1,1,1,1,1,1,1,1,1,1,1,1,1,1,1,1,1,1,1,1,1,1,1,1,1,1,1,1,1,1,1,1,1,1,1,1,1,1,1,1,1,1,1,1,1,1,1,1,1,1,1,1,1,1,1,1,1,1,1,1,1,1,1,1,1,1,1,1,1,1,1,1,1,1,1,1,1,1,1,1,1,1,1,1,1,1,1,1,1,1,1,1,1,1,1,1,1,1,1,1,1,1,1,1,1,1,1,1,1,1,1,1,1,1,1,1,1],"number_of_sets":1,"coherent_direction":[280,280,280,280,280,14,14,14,280,14,14,14,280,280,280,14,280,280,280,14,14,280,280,280,14,280,14,280,14,14,14,280,280,14,280,280,280,280,14,14,14,280,280,14,14,14,280,280,14,14,14,14,14,14,14,14,14,14,280,14,14,280,280,14,14,280,14,280,14,14,280,280,14,280,14,280,14,280,14,14,14,280,280,280,280,280,14,14,14,280,14,14,14,280,280,14,14,14,14,280,280,14,14,14,14,14,280,14,280,280,14,280,14,280,280,14,14,280,280,14,280,14,14,14,280,14,280,280,14,280,280,280,280,280,280,14,14,280,280,14,280,14,280,14,280,14,280,14,14,14,280,14,280,280,14,280,280,14,280,14,280,14,280,280,280,280,280,14,14,280,14,280,280,14,14,14,14,280,280,14,280,14,14,280,280,14,14,14,14,280,14,280,280,280,280,14,280,280,280,280],"coherence":1,"opposite_coherence":0,"dot_radius":2,"dot_side_length":1,"dot_life":-1,"move_distance":1,"aperture_width":300,"aperture_height":300,"dot_color":["black","black","black","black","black","white","white","white","black","white","white","white","black","black","black","white","black","black","black","white","white","black","black","black","white","black","white","black","white","white","white","black","black","white","black","black","black","black","white","white","white","black","black","white","white","white","black","black","white","white","white","white","white","white","white","white","white","white","black","white","white","black","black","white","white","black","white","black","white","white","black","black","white","black","white","black","white","black","white","white","white","black","black","black","black","black","white","white","white","black","white","white","white","black","black","white","white","white","white","black","black","white","white","white","white","white","black","white","black","black","white","black","white","black","black","white","white","black","black","white","black","white","white","white","black","white","black","black","white","black","black","black","black","black","black","white","white","black","black","white","black","white","black","white","black","white","black","white","white","white","black","white","black","black","white","black","black","white","black","white","black","white","black","black","black","black","black","white","white","black","white","black","black","white","white","white","white","black","black","white","black","white","white","black","black","white","white","white","white","black","white","black","black","black","black","white","black","black","black","black"],"dot_shape":"circle","background_color":"#AAA","RDK_type":3,"aperture_type":2,"reinsert_type":2,"frame_rate":18.850467289719628,"frame_rate_array":[13,18,21,22,9,15,25,24,23,22,20,22,18,20,20,18,19,20,18,27,26,20,18,17,21,19,19,18,22,19,21,19,21,18,17,20,19,21,18,19,19,19,21,17,16,17,19,19,24,21,21,19,21,22,21,21,25,27,13,12,17,18,17,17,15,19,18,17,16,18,16,17,17,23,19,21,20,20,23,18,23,19,22,19,19,16,10,10,18,20,15,18,14,17,16,17,17,18,23,21,20,18,22,17,11,13,18],"number_of_frames":107,"aperture_center_x":960,"aperture_center_y":540,"fixation_cross":true,"fixation_cross_width":15,"fixation_cross_height":15,"fixation_cross_color":"#111","fixation_cross_thickness":1,"border":true,"border_thickness":2,"border_color":"transparent","canvas_width":1920,"canvas_height":1080,"trial_type":"rdk","trial_index":24,"plugin_version":"2.0.0","time_elapsed":838882},{"rt":3762,"stimulus":"\n        <div class=\"response-container\">\n          <div class=\"response-instruction\">\n            <p>rotate the bar by using the left and right arrow keys.</p>\n            <p>when you are determined, press the Enter key.</p>\n          </div>\n          <div class=\"response-circle\">\n            <div class=\"response-fixation\"></div>\n            <div id=\"bar\" class=\"rotating-bar\"></div>\n          </div>\n        </div>\n      ","response":"Enter","trial_type":"html-keyboard-response","trial_index":25,"plugin_version":"2.1.0","time_elapsed":842646,"response_angle_css":216,"response_angle_rdk":234,"angular_error_target":-140,"angular_error_distractor":-46,"target_direction":14,"target_group":"white","reward_points":0},{"rt":null,"stimulus":"\n          <p style=\"color: #FF3333;\">Your reward: 0 points</p>\n        ","response":null,"trial_type":"html-keyboard-response","trial_index":26,"plugin_version":"2.1.0","time_elapsed":844655},{"rt":null,"stimulus":"<div class=\"fixation\" style=\"font-size: 60px;\">+</div>","response":null,"trial_type":"html-keyboard-response","trial_index":27,"plugin_version":"2.1.0","time_elapsed":845671},{"target_group":"white","condition_label":"W_H_vs_B_L_rep2","target_direction":44,"distractor_direction":293,"session_rotation":3,"rt":-1,"response":"","correct":false,"choices":"ALL_KEYS","correct_choice":["a"],"trial_duration":2000,"flip_timestamps":[],"response_ends_trial":false,"number_of_apertures":200,"number_of_dots":[1,1,1,1,1,1,1,1,1,1,1,1,1,1,1,1,1,1,1,1,1,1,1,1,1,1,1,1,1,1,1,1,1,1,1,1,1,1,1,1,1,1,1,1,1,1,1,1,1,1,1,1,1,1,1,1,1,1,1,1,1,1,1,1,1,1,1,1,1,1,1,1,1,1,1,1,1,1,1,1,1,1,1,1,1,1,1,1,1,1,1,1,1,1,1,1,1,1,1,1,1,1,1,1,1,1,1,1,1,1,1,1,1,1,1,1,1,1,1,1,1,1,1,1,1,1,1,1,1,1,1,1,1,1,1,1,1,1,1,1,1,1,1,1,1,1,1,1,1,1,1,1,1,1,1,1,1,1,1,1,1,1,1,1,1,1,1,1,1,1,1,1,1,1,1,1,1,1,1,1,1,1,1,1,1,1,1,1,1,1,1,1,1,1,1,1,1,1,1,1],"number_of_sets":1,"coherent_direction":[293,44,44,44,44,44,293,44,44,293,44,293,293,44,44,44,44,44,293,44,293,44,293,293,293,44,44,44,44,293,293,293,293,293,293,293,293,44,293,293,293,293,293,293,293,293,293,293,293,44,293,293,44,293,44,44,44,293,44,293,44,44,293,293,44,293,293,293,44,44,293,44,293,44,44,293,44,293,293,44,293,293,44,44,293,44,44,293,44,44,44,44,44,293,293,293,293,44,44,293,44,44,44,293,293,44,44,293,293,293,44,293,44,293,44,44,293,44,44,293,44,44,293,293,293,44,293,293,293,293,44,44,44,44,293,293,44,44,293,293,293,293,44,293,293,44,44,293,44,293,44,44,44,293,293,293,44,44,293,44,293,44,44,44,293,293,293,293,293,44,293,44,293,44,293,44,293,44,293,293,44,44,44,44,44,44,293,293,44,44,293,44,44,293,44,44,293,44,44,44],"coherence":1,"opposite_coherence":0,"dot_radius":2,"dot_side_length":1,"dot_life":-1,"move_distance":1,"aperture_width":300,"aperture_height":300,"dot_color":["black","white","white","white","white","white","black","white","white","black","white","black","black","white","white","white","white","white","black","white","black","white","black","black","black","white","white","white","white","black","black","black","black","black","black","black","black","white","black","black","black","black","black","black","black","black","black","black","black","white","black","black","white","black","white","white","white","black","white","black","white","white","black","black","white","black","black","black","white","white","black","white","black","white","white","black","white","black","black","white","black","black","white","white","black","white","white","black","white","white","white","white","white","black","black","black","black","white","white","black","white","white","white","black","black","white","white","black","black","black","white","black","white","black","white","white","black","white","white","black","white","white","black","black","black","white","black","black","black","black","white","white","white","white","black","black","white","white","black","black","black","black","white","black","black","white","white","black","white","black","white","white","white","black","black","black","white","white","black","white","black","white","white","white","black","black","black","black","black","white","black","white","black","white","black","white","black","white","black","black","white","white","white","white","white","white","black","black","white","white","black","white","white","black","white","white","black","white","white","white"],"dot_shape":"circle","background_color":"#AAA","RDK_type":3,"aperture_type":2,"reinsert_type":2,"frame_rate":17.495652173913044,"frame_rate_array":[38,7,18,27,22,26,26,19,19,17,20,22,21,21,19,18,23,29,21,23,20,20,11,7,10,19,17,17,16,19,14,18,15,20,15,18,16,16,19,15,16,17,18,16,16,16,17,17,17,17,17,17,17,16,19,14,19,14,18,18,17,15,18,17,15,18,16,18,17,16,17,17,18,15,19,16,17,16,21,14,14,17,18,17,15,17,18,15,18,17,15,18,15,18,16,18,16,18,14,17,17,17,16,19,17,15,18,15,19,15,17,16,18,15,16],"number_of_frames":115,"aperture_center_x":960,"aperture_center_y":540,"fixation_cross":true,"fixation_cross_width":15,"fixation_cross_height":15,"fixation_cross_color":"#111","fixation_cross_thickness":1,"border":true,"border_thickness":2,"border_color":"transparent","canvas_width":1920,"canvas_height":1080,"trial_type":"rdk","trial_index":28,"plugin_version":"2.0.0","time_elapsed":847690},{"rt":1364,"stimulus":"\n        <div class=\"response-container\">\n          <div class=\"response-instruction\">\n            <p>rotate the bar by using the left and right arrow keys.</p>\n            <p>when you are determined, press the Enter key.</p>\n          </div>\n          <div class=\"response-circle\">\n            <div class=\"response-fixation\"></div>\n            <div id=\"bar\" class=\"rotating-bar\"></div>\n          </div>\n        </div>\n      ","response":"Enter","trial_type":"html-keyboard-response","trial_index":29,"plugin_version":"2.1.0","time_elapsed":849056,"response_angle_css":46,"response_angle_rdk":44,"angular_error_target":0,"angular_error_distractor":111,"target_direction":44,"target_group":"white","reward_points":10},{"rt":null,"stimulus":"\n          <p style=\"color: #00FF00;\">Your reward: 10 points</p>\n        ","response":null,"trial_type":"html-keyboard-response","trial_index":30,"plugin_version":"2.1.0","time_elapsed":851066},{"rt":null,"stimulus":"<div class=\"fixation\" style=\"font-size: 60px;\">+</div>","response":null,"trial_type":"html-keyboard-response","trial_index":31,"plugin_version":"2.1.0","time_elapsed":852082},{"target_group":"white","condition_label":"W_H_vs_B_L_rep8","target_direction":6,"distractor_direction":276,"session_rotation":3,"rt":-1,"response":"","correct":false,"choices":"ALL_KEYS","correct_choice":["a"],"trial_duration":2000,"flip_timestamps":[],"response_ends_trial":false,"number_of_apertures":200,"number_of_dots":[1,1,1,1,1,1,1,1,1,1,1,1,1,1,1,1,1,1,1,1,1,1,1,1,1,1,1,1,1,1,1,1,1,1,1,1,1,1,1,1,1,1,1,1,1,1,1,1,1,1,1,1,1,1,1,1,1,1,1,1,1,1,1,1,1,1,1,1,1,1,1,1,1,1,1,1,1,1,1,1,1,1,1,1,1,1,1,1,1,1,1,1,1,1,1,1,1,1,1,1,1,1,1,1,1,1,1,1,1,1,1,1,1,1,1,1,1,1,1,1,1,1,1,1,1,1,1,1,1,1,1,1,1,1,1,1,1,1,1,1,1,1,1,1,1,1,1,1,1,1,1,1,1,1,1,1,1,1,1,1,1,1,1,1,1,1,1,1,1,1,1,1,1,1,1,1,1,1,1,1,1,1,1,1,1,1,1,1,1,1,1,1,1,1,1,1,1,1,1,1],"number_of_sets":1,"coherent_direction":[6,276,276,6,6,276,276,276,276,6,276,6,276,276,276,276,6,276,6,6,276,6,6,276,6,276,276,276,6,276,276,276,6,6,6,6,6,276,6,6,6,276,6,6,276,276,276,276,6,6,6,276,276,6,6,6,276,276,276,276,6,6,6,6,6,6,276,6,276,6,6,276,276,6,6,6,276,276,6,276,276,276,276,6,276,276,6,6,276,276,6,276,6,6,6,6,276,276,6,276,6,6,276,276,276,6,6,6,6,276,276,276,6,276,276,6,6,276,276,6,276,6,6,6,276,276,276,276,276,276,276,6,6,6,6,276,276,276,6,6,276,276,276,276,276,6,6,6,6,6,276,6,6,276,6,276,276,6,6,6,276,276,6,6,276,6,6,6,276,276,276,6,276,276,6,6,276,276,276,6,276,276,276,6,6,276,6,6,6,276,6,276,6,276,6,6,276,276,6,6],"coherence":1,"opposite_coherence":0,"dot_radius":2,"dot_side_length":1,"dot_life":-1,"move_distance":1,"aperture_width":300,"aperture_height":300,"dot_color":["white","black","black","white","white","black","black","black","black","white","black","white","black","black","black","black","white","black","white","white","black","white","white","black","white","black","black","black","white","black","black","black","white","white","white","white","white","black","white","white","white","black","white","white","black","black","black","black","white","white","white","black","black","white","white","white","black","black","black","black","white","white","white","white","white","white","black","white","black","white","white","black","black","white","white","white","black","black","white","black","black","black","black","white","black","black","white","white","black","black","white","black","white","white","white","white","black","black","white","black","white","white","black","black","black","white","white","white","white","black","black","black","white","black","black","white","white","black","black","white","black","white","white","white","black","black","black","black","black","black","black","white","white","white","white","black","black","black","white","white","black","black","black","black","black","white","white","white","white","white","black","white","white","black","white","black","black","white","white","white","black","black","white","white","black","white","white","white","black","black","black","white","black","black","white","white","black","black","black","white","black","black","black","white","white","black","white","white","white","black","white","black","white","black","white","white","black","black","white","white"],"dot_shape":"circle","background_color":"#AAA","RDK_type":3,"aperture_type":2,"reinsert_type":2,"frame_rate":17.267241379310345,"frame_rate_array":[12,13,27,24,27,24,23,19,24,11,15,20,19,17,17,14,16,18,18,18,22,19,20,19,19,19,20,19,19,19,21,17,14,21,21,13,12,15,13,16,17,18,15,17,18,17,17,17,16,15,17,17,18,15,17,19,15,21,12,16,17,16,18,16,17,19,16,14,19,15,17,16,17,19,17,15,16,17,18,15,19,15,17,17,17,17,17,17,17,16,19,14,19,16,17,16,15,17,19,16,17,14,18,18,14,17,16,16,14,17,16,18,21,15,15,18],"number_of_frames":116,"aperture_center_x":960,"aperture_center_y":540,"fixation_cross":true,"fixation_cross_width":15,"fixation_cross_height":15,"fixation_cross_color":"#111","fixation_cross_thickness":1,"border":true,"border_thickness":2,"border_color":"transparent","canvas_width":1920,"canvas_height":1080,"trial_type":"rdk","trial_index":32,"plugin_version":"2.0.0","time_elapsed":854103},{"rt":2010,"stimulus":"\n        <div class=\"response-container\">\n          <div class=\"response-instruction\">\n            <p>rotate the bar by using the left and right arrow keys.</p>\n            <p>when you are determined, press the Enter key.</p>\n          </div>\n          <div class=\"response-circle\">\n            <div class=\"response-fixation\"></div>\n            <div id=\"bar\" class=\"rotating-bar\"></div>\n          </div>\n        </div>\n      ","response":"Enter","trial_type":"html-keyboard-response","trial_index":33,"plugin_version":"2.1.0","time_elapsed":856115,"response_angle_css":19,"response_angle_rdk":71,"angular_error_target":65,"angular_error_distractor":155,"target_direction":6,"target_group":"white","reward_points":0},{"rt":null,"stimulus":"\n          <p style=\"color: #FF3333;\">Your reward: 0 points</p>\n        ","response":null,"trial_type":"html-keyboard-response","trial_index":34,"plugin_version":"2.1.0","time_elapsed":858125},{"rt":null,"stimulus":"<div class=\"fixation\" style=\"font-size: 60px;\">+</div>","response":null,"trial_type":"html-keyboard-response","trial_index":35,"plugin_version":"2.1.0","time_elapsed":859142},{"target_group":"black","condition_label":"B_H_vs_W_L_rep15","target_direction":110,"distractor_direction":204,"session_rotation":3,"rt":-1,"response":"","correct":false,"choices":"ALL_KEYS","correct_choice":["a"],"trial_duration":2000,"flip_timestamps":[],"response_ends_trial":false,"number_of_apertures":200,"number_of_dots":[1,1,1,1,1,1,1,1,1,1,1,1,1,1,1,1,1,1,1,1,1,1,1,1,1,1,1,1,1,1,1,1,1,1,1,1,1,1,1,1,1,1,1,1,1,1,1,1,1,1,1,1,1,1,1,1,1,1,1,1,1,1,1,1,1,1,1,1,1,1,1,1,1,1,1,1,1,1,1,1,1,1,1,1,1,1,1,1,1,1,1,1,1,1,1,1,1,1,1,1,1,1,1,1,1,1,1,1,1,1,1,1,1,1,1,1,1,1,1,1,1,1,1,1,1,1,1,1,1,1,1,1,1,1,1,1,1,1,1,1,1,1,1,1,1,1,1,1,1,1,1,1,1,1,1,1,1,1,1,1,1,1,1,1,1,1,1,1,1,1,1,1,1,1,1,1,1,1,1,1,1,1,1,1,1,1,1,1,1,1,1,1,1,1,1,1,1,1,1,1],"number_of_sets":1,"coherent_direction":[110,110,204,204,204,204,204,110,204,204,204,204,204,110,204,204,204,204,110,204,204,110,110,110,204,110,110,110,204,110,110,110,110,110,204,204,204,110,204,204,204,204,204,110,110,110,204,110,204,110,110,204,110,110,204,110,204,204,110,204,204,204,110,204,204,204,204,110,204,110,110,110,204,204,204,204,204,204,110,204,110,110,204,110,204,204,110,204,204,110,204,204,110,110,110,110,204,204,110,110,110,110,110,110,204,110,110,204,110,110,204,204,204,204,110,110,204,110,110,204,204,110,110,110,110,204,204,110,204,110,110,204,110,204,204,110,110,110,204,110,110,204,110,204,110,110,204,204,110,110,204,110,110,110,204,110,110,204,204,204,110,204,204,110,110,204,204,204,204,110,204,110,110,110,204,110,204,110,110,110,110,204,110,204,110,204,204,110,204,110,110,204,204,110,110,110,204,204,204,110],"coherence":1,"opposite_coherence":0,"dot_radius":2,"dot_side_length":1,"dot_life":-1,"move_distance":1,"aperture_width":300,"aperture_height":300,"dot_color":["black","black","white","white","white","white","white","black","white","white","white","white","white","black","white","white","white","white","black","white","white","black","black","black","white","black","black","black","white","black","black","black","black","black","white","white","white","black","white","white","white","white","white","black","black","black","white","black","white","black","black","white","black","black","white","black","white","white","black","white","white","white","black","white","white","white","white","black","white","black","black","black","white","white","white","white","white","white","black","white","black","black","white","black","white","white","black","white","white","black","white","white","black","black","black","black","white","white","black","black","black","black","black","black","white","black","black","white","black","black","white","white","white","white","black","black","white","black","black","white","white","black","black","black","black","white","white","black","white","black","black","white","black","white","white","black","black","black","white","black","black","white","black","white","black","black","white","white","black","black","white","black","black","black","white","black","black","white","white","white","black","white","white","black","black","white","white","white","white","black","white","black","black","black","white","black","white","black","black","black","black","white","black","white","black","white","white","black","white","black","black","white","white","black","black","black","white","white","white","black"],"dot_shape":"circle","background_color":"#AAA","RDK_type":3,"aperture_type":2,"reinsert_type":2,"frame_rate":17.32758620689655,"frame_rate_array":[16,9,25,24,21,26,18,29,19,20,19,22,20,19,21,20,21,17,22,20,11,14,17,17,20,16,17,16,18,15,19,15,19,16,16,16,18,16,17,16,17,17,17,17,17,17,15,19,15,16,17,18,15,17,17,19,17,20,14,16,14,18,16,18,15,17,17,16,17,18,18,16,16,15,17,16,17,17,16,17,17,16,17,17,17,17,17,18,17,16,16,17,19,15,17,18,17,15,18,16,16,19,15,17,18,17,17,15,17,16,17,16,17,16,17,18],"number_of_frames":116,"aperture_center_x":960,"aperture_center_y":540,"fixation_cross":true,"fixation_cross_width":15,"fixation_cross_height":15,"fixation_cross_color":"#111","fixation_cross_thickness":1,"border":true,"border_thickness":2,"border_color":"transparent","canvas_width":1920,"canvas_height":1080,"trial_type":"rdk","trial_index":36,"plugin_version":"2.0.0","time_elapsed":861165},{"rt":2405,"stimulus":"\n        <div class=\"response-container\">\n          <div class=\"response-instruction\">\n            <p>rotate the bar by using the left and right arrow keys.</p>\n            <p>when you are determined, press the Enter key.</p>\n          </div>\n          <div class=\"response-circle\">\n            <div class=\"response-fixation\"></div>\n            <div id=\"bar\" class=\"rotating-bar\"></div>\n          </div>\n        </div>\n      ","response":"Enter","trial_type":"html-keyboard-response","trial_index":37,"plugin_version":"2.1.0","time_elapsed":863573,"response_angle_css":196,"response_angle_rdk":254,"angular_error_target":144,"angular_error_distractor":50,"target_direction":110,"target_group":"black","reward_points":0},{"rt":null,"stimulus":"\n          <p style=\"color: #FF3333;\">Your reward: 0 points</p>\n        ","response":null,"trial_type":"html-keyboard-response","trial_index":38,"plugin_version":"2.1.0","time_elapsed":865585},{"rt":null,"stimulus":"<div class=\"fixation\" style=\"font-size: 60px;\">+</div>","response":null,"trial_type":"html-keyboard-response","trial_index":39,"plugin_version":"2.1.0","time_elapsed":866601},{"target_group":"white","condition_label":"W_H_vs_B_L_rep20","target_direction":47,"distractor_direction":300,"session_rotation":3,"rt":-1,"response":"","correct":false,"choices":"ALL_KEYS","correct_choice":["a"],"trial_duration":2000,"flip_timestamps":[],"response_ends_trial":false,"number_of_apertures":200,"number_of_dots":[1,1,1,1,1,1,1,1,1,1,1,1,1,1,1,1,1,1,1,1,1,1,1,1,1,1,1,1,1,1,1,1,1,1,1,1,1,1,1,1,1,1,1,1,1,1,1,1,1,1,1,1,1,1,1,1,1,1,1,1,1,1,1,1,1,1,1,1,1,1,1,1,1,1,1,1,1,1,1,1,1,1,1,1,1,1,1,1,1,1,1,1,1,1,1,1,1,1,1,1,1,1,1,1,1,1,1,1,1,1,1,1,1,1,1,1,1,1,1,1,1,1,1,1,1,1,1,1,1,1,1,1,1,1,1,1,1,1,1,1,1,1,1,1,1,1,1,1,1,1,1,1,1,1,1,1,1,1,1,1,1,1,1,1,1,1,1,1,1,1,1,1,1,1,1,1,1,1,1,1,1,1,1,1,1,1,1,1,1,1,1,1,1,1,1,1,1,1,1,1],"number_of_sets":1,"coherent_direction":[300,47,300,300,47,47,300,47,47,47,300,300,300,300,47,300,47,300,47,47,300,300,47,300,47,47,300,47,47,300,300,47,300,47,47,300,47,300,47,47,47,47,47,300,300,300,300,300,47,300,300,300,47,47,300,47,47,300,300,47,47,300,300,300,300,47,47,300,300,300,300,300,47,300,47,47,47,300,47,47,47,300,47,300,47,300,47,300,300,47,47,47,47,47,47,47,300,47,300,300,300,47,47,300,300,47,300,47,47,300,300,47,300,47,300,300,300,47,300,47,47,300,300,47,300,300,47,47,300,300,47,300,47,47,300,47,47,300,300,47,47,47,47,300,47,300,47,47,300,47,47,300,47,300,47,300,300,300,47,47,47,47,300,47,47,300,300,300,300,300,47,300,300,300,300,300,47,47,47,300,300,47,300,300,47,47,300,300,300,47,300,47,300,47,47,47,47,300,300,47],"coherence":1,"opposite_coherence":0,"dot_radius":2,"dot_side_length":1,"dot_life":-1,"move_distance":1,"aperture_width":300,"aperture_height":300,"dot_color":["black","white","black","black","white","white","black","white","white","white","black","black","black","black","white","black","white","black","white","white","black","black","white","black","white","white","black","white","white","black","black","white","black","white","white","black","white","black","white","white","white","white","white","black","black","black","black","black","white","black","black","black","white","white","black","white","white","black","black","white","white","black","black","black","black","white","white","black","black","black","black","black","white","black","white","white","white","black","white","white","white","black","white","black","white","black","white","black","black","white","white","white","white","white","white","white","black","white","black","black","black","white","white","black","black","white","black","white","white","black","black","white","black","white","black","black","black","white","black","white","white","black","black","white","black","black","white","white","black","black","white","black","white","white","black","white","white","black","black","white","white","white","white","black","white","black","white","white","black","white","white","black","white","black","white","black","black","black","white","white","white","white","black","white","white","black","black","black","black","black","white","black","black","black","black","black","white","white","white","black","black","white","black","black","white","white","black","black","black","white","black","white","black","white","white","white","white","black","black","white"],"dot_shape":"circle","background_color":"#AAA","RDK_type":3,"aperture_type":2,"reinsert_type":2,"frame_rate":17.98198198198198,"frame_rate_array":[38,7,18,27,18,23,21,19,20,20,24,19,20,18,18,20,20,23,25,17,18,21,19,18,21,29,20,20,20,18,17,21,19,22,22,11,9,12,18,18,16,19,15,19,16,18,16,17,15,19,14,17,18,16,17,16,17,16,17,18,15,19,17,15,19,15,17,17,17,17,18,15,17,18,16,17,20,15,15,20,14,16,17,17,16,17,19,17,22,19,26,15,13,17,19,18,17,15,17,18,15,17,18,17,16,18,15,19,15,16,18],"number_of_frames":111,"aperture_center_x":960,"aperture_center_y":540,"fixation_cross":true,"fixation_cross_width":15,"fixation_cross_height":15,"fixation_cross_color":"#111","fixation_cross_thickness":1,"border":true,"border_thickness":2,"border_color":"transparent","canvas_width":1920,"canvas_height":1080,"trial_type":"rdk","trial_index":40,"plugin_version":"2.0.0","time_elapsed":868608},{"rt":2984,"stimulus":"\n        <div class=\"response-container\">\n          <div class=\"response-instruction\">\n            <p>rotate the bar by using the left and right arrow keys.</p>\n            <p>when you are determined, press the Enter key.</p>\n          </div>\n          <div class=\"response-circle\">\n            <div class=\"response-fixation\"></div>\n            <div id=\"bar\" class=\"rotating-bar\"></div>\n          </div>\n        </div>\n      ","response":"Enter","trial_type":"html-keyboard-response","trial_index":41,"plugin_version":"2.1.0","time_elapsed":871594,"response_angle_css":208,"response_angle_rdk":242,"angular_error_target":-165,"angular_error_distractor":-58,"target_direction":47,"target_group":"white","reward_points":0},{"rt":null,"stimulus":"\n          <p style=\"color: #FF3333;\">Your reward: 0 points</p>\n        ","response":null,"trial_type":"html-keyboard-response","trial_index":42,"plugin_version":"2.1.0","time_elapsed":873611},{"rt":null,"stimulus":"<div class=\"fixation\" style=\"font-size: 60px;\">+</div>","response":null,"trial_type":"html-keyboard-response","trial_index":43,"plugin_version":"2.1.0","time_elapsed":874627},{"target_group":"white","condition_label":"W_H_vs_B_L_rep18","target_direction":36,"distractor_direction":276,"session_rotation":3,"rt":-1,"response":"","correct":false,"choices":"ALL_KEYS","correct_choice":["a"],"trial_duration":2000,"flip_timestamps":[],"response_ends_trial":false,"number_of_apertures":200,"number_of_dots":[1,1,1,1,1,1,1,1,1,1,1,1,1,1,1,1,1,1,1,1,1,1,1,1,1,1,1,1,1,1,1,1,1,1,1,1,1,1,1,1,1,1,1,1,1,1,1,1,1,1,1,1,1,1,1,1,1,1,1,1,1,1,1,1,1,1,1,1,1,1,1,1,1,1,1,1,1,1,1,1,1,1,1,1,1,1,1,1,1,1,1,1,1,1,1,1,1,1,1,1,1,1,1,1,1,1,1,1,1,1,1,1,1,1,1,1,1,1,1,1,1,1,1,1,1,1,1,1,1,1,1,1,1,1,1,1,1,1,1,1,1,1,1,1,1,1,1,1,1,1,1,1,1,1,1,1,1,1,1,1,1,1,1,1,1,1,1,1,1,1,1,1,1,1,1,1,1,1,1,1,1,1,1,1,1,1,1,1,1,1,1,1,1,1,1,1,1,1,1,1],"number_of_sets":1,"coherent_direction":[36,36,276,276,36,276,276,276,276,36,36,276,36,276,276,36,276,36,36,276,276,36,36,276,36,276,276,276,36,276,276,36,36,276,36,276,276,36,36,36,36,36,276,36,36,36,36,36,276,36,36,276,276,276,36,276,36,276,36,276,36,36,36,276,36,276,36,36,36,276,36,36,276,276,36,276,36,36,36,276,276,36,276,276,36,276,276,276,36,276,276,276,36,36,276,36,276,36,36,36,36,36,276,36,276,36,36,276,276,276,276,276,36,36,36,276,36,276,276,36,36,36,276,276,276,276,276,276,276,276,36,276,36,36,276,276,276,36,36,36,36,36,276,36,276,36,276,36,276,276,276,276,36,276,276,36,36,276,276,276,276,36,36,276,36,276,276,276,276,276,36,36,36,276,276,36,36,36,276,276,36,276,276,36,36,36,36,36,276,36,276,276,36,276,276,36,36,36,36,276],"coherence":1,"opposite_coherence":0,"dot_radius":2,"dot_side_length":1,"dot_life":-1,"move_distance":1,"aperture_width":300,"aperture_height":300,"dot_color":["white","white","black","black","white","black","black","black","black","white","white","black","white","black","black","white","black","white","white","black","black","white","white","black","white","black","black","black","white","black","black","white","white","black","white","black","black","white","white","white","white","white","black","white","white","white","white","white","black","white","white","black","black","black","white","black","white","black","white","black","white","white","white","black","white","black","white","white","white","black","white","white","black","black","white","black","white","white","white","black","black","white","black","black","white","black","black","black","white","black","black","black","white","white","black","white","black","white","white","white","white","white","black","white","black","white","white","black","black","black","black","black","white","white","white","black","white","black","black","white","white","white","black","black","black","black","black","black","black","black","white","black","white","white","black","black","black","white","white","white","white","white","black","white","black","white","black","white","black","black","black","black","white","black","black","white","white","black","black","black","black","white","white","black","white","black","black","black","black","black","white","white","white","black","black","white","white","white","black","black","white","black","black","white","white","white","white","white","black","white","black","black","white","black","black","white","white","white","white","black"],"dot_shape":"circle","background_color":"#AAA","RDK_type":3,"aperture_type":2,"reinsert_type":2,"frame_rate":17.396551724137932,"frame_rate_array":[11,21,25,11,11,25,18,22,20,20,21,19,20,20,22,21,21,20,19,20,20,19,20,17,21,17,17,18,18,17,21,22,16,17,16,16,16,20,18,11,14,17,18,20,16,17,17,16,17,17,17,16,16,19,17,16,15,18,15,17,17,19,17,15,17,16,19,17,16,16,17,17,19,16,16,18,16,9,17,17,17,20,17,15,20,15,17,17,12,17,17,18,17,20,15,16,20,14,20,17,18,22,20,16,17,10,10,17,19,17,17,17,15,17,17,18],"number_of_frames":116,"aperture_center_x":960,"aperture_center_y":540,"fixation_cross":true,"fixation_cross_width":15,"fixation_cross_height":15,"fixation_cross_color":"#111","fixation_cross_thickness":1,"border":true,"border_thickness":2,"border_color":"transparent","canvas_width":1920,"canvas_height":1080,"trial_type":"rdk","trial_index":44,"plugin_version":"2.0.0","time_elapsed":876649},{"rt":3172,"stimulus":"\n        <div class=\"response-container\">\n          <div class=\"response-instruction\">\n            <p>rotate the bar by using the left and right arrow keys.</p>\n            <p>when you are determined, press the Enter key.</p>\n          </div>\n          <div class=\"response-circle\">\n            <div class=\"response-fixation\"></div>\n            <div id=\"bar\" class=\"rotating-bar\"></div>\n          </div>\n        </div>\n      ","response":"Enter","trial_type":"html-keyboard-response","trial_index":45,"plugin_version":"2.1.0","time_elapsed":879823,"response_angle_css":401,"response_angle_rdk":49,"angular_error_target":13,"angular_error_distractor":133,"target_direction":36,"target_group":"white","reward_points":7},{"rt":null,"stimulus":"\n          <p style=\"color: #00FF00;\">Your reward: 7 points</p>\n        ","response":null,"trial_type":"html-keyboard-response","trial_index":46,"plugin_version":"2.1.0","time_elapsed":881837},{"rt":null,"stimulus":"<div class=\"fixation\" style=\"font-size: 60px;\">+</div>","response":null,"trial_type":"html-keyboard-response","trial_index":47,"plugin_version":"2.1.0","time_elapsed":882852},{"target_group":"black","condition_label":"B_H_vs_W_L_rep17","target_direction":108,"distractor_direction":201,"session_rotation":3,"rt":-1,"response":"","correct":false,"choices":"ALL_KEYS","correct_choice":["a"],"trial_duration":2000,"flip_timestamps":[],"response_ends_trial":false,"number_of_apertures":200,"number_of_dots":[1,1,1,1,1,1,1,1,1,1,1,1,1,1,1,1,1,1,1,1,1,1,1,1,1,1,1,1,1,1,1,1,1,1,1,1,1,1,1,1,1,1,1,1,1,1,1,1,1,1,1,1,1,1,1,1,1,1,1,1,1,1,1,1,1,1,1,1,1,1,1,1,1,1,1,1,1,1,1,1,1,1,1,1,1,1,1,1,1,1,1,1,1,1,1,1,1,1,1,1,1,1,1,1,1,1,1,1,1,1,1,1,1,1,1,1,1,1,1,1,1,1,1,1,1,1,1,1,1,1,1,1,1,1,1,1,1,1,1,1,1,1,1,1,1,1,1,1,1,1,1,1,1,1,1,1,1,1,1,1,1,1,1,1,1,1,1,1,1,1,1,1,1,1,1,1,1,1,1,1,1,1,1,1,1,1,1,1,1,1,1,1,1,1,1,1,1,1,1,1],"number_of_sets":1,"coherent_direction":[108,201,201,108,201,108,108,108,201,201,108,108,108,108,108,108,201,201,201,201,201,108,108,201,108,201,201,108,201,108,108,108,201,108,201,201,201,201,108,108,201,108,201,108,201,201,108,108,108,108,108,108,201,108,108,108,108,201,108,201,108,201,201,201,201,108,201,201,108,201,108,108,201,201,108,108,201,201,201,201,108,108,108,108,108,201,201,108,201,201,201,108,201,201,108,201,201,201,108,108,201,201,201,108,201,201,201,201,108,201,108,201,108,108,108,201,201,201,108,108,108,201,108,108,108,201,201,108,108,108,201,201,108,201,108,201,108,201,201,201,201,201,201,201,108,108,108,108,201,201,108,201,108,201,108,201,108,108,201,201,108,108,201,108,108,201,201,108,108,108,108,201,108,108,201,201,108,201,108,201,108,108,201,201,108,201,108,108,108,201,201,201,108,108,201,108,201,201,201,108],"coherence":1,"opposite_coherence":0,"dot_radius":2,"dot_side_length":1,"dot_life":-1,"move_distance":1,"aperture_width":300,"aperture_height":300,"dot_color":["black","white","white","black","white","black","black","black","white","white","black","black","black","black","black","black","white","white","white","white","white","black","black","white","black","white","white","black","white","black","black","black","white","black","white","white","white","white","black","black","white","black","white","black","white","white","black","black","black","black","black","black","white","black","black","black","black","white","black","white","black","white","white","white","white","black","white","white","black","white","black","black","white","white","black","black","white","white","white","white","black","black","black","black","black","white","white","black","white","white","white","black","white","white","black","white","white","white","black","black","white","white","white","black","white","white","white","white","black","white","black","white","black","black","black","white","white","white","black","black","black","white","black","black","black","white","white","black","black","black","white","white","black","white","black","white","black","white","white","white","white","white","white","white","black","black","black","black","white","white","black","white","black","white","black","white","black","black","white","white","black","black","white","black","black","white","white","black","black","black","black","white","black","black","white","white","black","white","black","white","black","black","white","white","black","white","black","black","black","white","white","white","black","black","white","black","white","white","white","black"],"dot_shape":"circle","background_color":"#AAA","RDK_type":3,"aperture_type":2,"reinsert_type":2,"frame_rate":17.275862068965516,"frame_rate_array":[15,20,21,10,14,19,18,22,19,20,28,16,9,10,16,18,18,19,19,16,15,17,17,17,18,20,19,18,20,18,19,22,25,18,7,7,23,15,17,16,17,16,22,26,20,19,20,18,20,19,21,17,15,15,17,18,17,16,18,17,15,18,17,16,18,16,17,17,17,16,18,17,17,15,18,17,16,17,17,18,15,17,17,17,17,17,17,16,16,18,17,20,15,14,17,18,16,16,18,16,17,17,17,16,18,17,16,17,17,16,18,16,16,19,16,17],"number_of_frames":116,"aperture_center_x":960,"aperture_center_y":540,"fixation_cross":true,"fixation_cross_width":15,"fixation_cross_height":15,"fixation_cross_color":"#111","fixation_cross_thickness":1,"border":true,"border_thickness":2,"border_color":"transparent","canvas_width":1920,"canvas_height":1080,"trial_type":"rdk","trial_index":48,"plugin_version":"2.0.0","time_elapsed":884867},{"rt":4949,"stimulus":"\n        <div class=\"response-container\">\n          <div class=\"response-instruction\">\n            <p>rotate the bar by using the left and right arrow keys.</p>\n            <p>when you are determined, press the Enter key.</p>\n          </div>\n          <div class=\"response-circle\">\n            <div class=\"response-fixation\"></div>\n            <div id=\"bar\" class=\"rotating-bar\"></div>\n          </div>\n        </div>\n      ","response":"Enter","trial_type":"html-keyboard-response","trial_index":49,"plugin_version":"2.1.0","time_elapsed":889818,"response_angle_css":-27,"response_angle_rdk":117,"angular_error_target":9,"angular_error_distractor":-84,"target_direction":108,"target_group":"black","reward_points":8},{"rt":null,"stimulus":"\n          <p style=\"color: #00FF00;\">Your reward: 8 points</p>\n        ","response":null,"trial_type":"html-keyboard-response","trial_index":50,"plugin_version":"2.1.0","time_elapsed":891827},{"rt":null,"stimulus":"<div class=\"fixation\" style=\"font-size: 60px;\">+</div>","response":null,"trial_type":"html-keyboard-response","trial_index":51,"plugin_version":"2.1.0","time_elapsed":892843},{"target_group":"white","condition_label":"W_H_vs_B_L_rep16","target_direction":36,"distractor_direction":281,"session_rotation":3,"rt":-1,"response":"","correct":false,"choices":"ALL_KEYS","correct_choice":["a"],"trial_duration":2000,"flip_timestamps":[],"response_ends_trial":false,"number_of_apertures":200,"number_of_dots":[1,1,1,1,1,1,1,1,1,1,1,1,1,1,1,1,1,1,1,1,1,1,1,1,1,1,1,1,1,1,1,1,1,1,1,1,1,1,1,1,1,1,1,1,1,1,1,1,1,1,1,1,1,1,1,1,1,1,1,1,1,1,1,1,1,1,1,1,1,1,1,1,1,1,1,1,1,1,1,1,1,1,1,1,1,1,1,1,1,1,1,1,1,1,1,1,1,1,1,1,1,1,1,1,1,1,1,1,1,1,1,1,1,1,1,1,1,1,1,1,1,1,1,1,1,1,1,1,1,1,1,1,1,1,1,1,1,1,1,1,1,1,1,1,1,1,1,1,1,1,1,1,1,1,1,1,1,1,1,1,1,1,1,1,1,1,1,1,1,1,1,1,1,1,1,1,1,1,1,1,1,1,1,1,1,1,1,1,1,1,1,1,1,1,1,1,1,1,1,1],"number_of_sets":1,"coherent_direction":[281,36,281,36,281,281,36,36,281,281,36,36,36,281,281,281,36,36,36,281,281,281,36,281,36,36,36,36,281,281,36,36,36,281,36,36,36,281,36,281,281,281,36,281,36,36,281,281,281,36,281,36,281,36,281,281,281,281,36,281,36,281,36,281,36,36,36,36,281,36,281,36,281,281,281,36,281,36,36,281,36,36,36,281,36,36,36,281,36,281,281,281,281,36,281,36,36,281,36,281,281,281,281,281,36,281,281,281,281,281,36,36,36,281,36,281,281,36,36,36,36,36,36,36,36,36,281,281,281,281,281,281,281,281,36,281,36,36,36,36,36,281,281,36,281,36,281,36,36,281,281,281,36,281,281,281,281,281,281,281,281,36,36,36,281,281,36,281,36,36,36,281,281,281,36,36,281,281,36,281,36,36,281,36,281,281,36,36,281,36,36,36,36,36,36,36,36,36,281,281],"coherence":1,"opposite_coherence":0,"dot_radius":2,"dot_side_length":1,"dot_life":-1,"move_distance":1,"aperture_width":300,"aperture_height":300,"dot_color":["black","white","black","white","black","black","white","white","black","black","white","white","white","black","black","black","white","white","white","black","black","black","white","black","white","white","white","white","black","black","white","white","white","black","white","white","white","black","white","black","black","black","white","black","white","white","black","black","black","white","black","white","black","white","black","black","black","black","white","black","white","black","white","black","white","white","white","white","black","white","black","white","black","black","black","white","black","white","white","black","white","white","white","black","white","white","white","black","white","black","black","black","black","white","black","white","white","black","white","black","black","black","black","black","white","black","black","black","black","black","white","white","white","black","white","black","black","white","white","white","white","white","white","white","white","white","black","black","black","black","black","black","black","black","white","black","white","white","white","white","white","black","black","white","black","white","black","white","white","black","black","black","white","black","black","black","black","black","black","black","black","white","white","white","black","black","white","black","white","white","white","black","black","black","white","white","black","black","white","black","white","white","black","white","black","black","white","white","black","white","white","white","white","white","white","white","white","white","black","black"],"dot_shape":"circle","background_color":"#AAA","RDK_type":3,"aperture_type":2,"reinsert_type":2,"frame_rate":18.635514018691588,"frame_rate_array":[23,14,8,25,20,21,35,21,19,21,18,19,19,17,21,17,19,19,18,20,20,14,9,14,17,17,19,18,19,16,16,17,17,16,17,26,38,19,20,15,12,21,18,16,16,18,14,20,19,21,20,20,25,17,18,20,21,17,21,18,17,21,18,18,20,20,22,17,20,21,19,18,19,20,17,18,19,19,19,18,18,18,18,18,18,19,18,22,23,32,18,8,15,16,18,20,15,17,18,16,17,17,17,18,14,17,19],"number_of_frames":107,"aperture_center_x":960,"aperture_center_y":540,"fixation_cross":true,"fixation_cross_width":15,"fixation_cross_height":15,"fixation_cross_color":"#111","fixation_cross_thickness":1,"border":true,"border_thickness":2,"border_color":"transparent","canvas_width":1920,"canvas_height":1080,"trial_type":"rdk","trial_index":52,"plugin_version":"2.0.0","time_elapsed":894851},{"rt":2447,"stimulus":"\n        <div class=\"response-container\">\n          <div class=\"response-instruction\">\n            <p>rotate the bar by using the left and right arrow keys.</p>\n            <p>when you are determined, press the Enter key.</p>\n          </div>\n          <div class=\"response-circle\">\n            <div class=\"response-fixation\"></div>\n            <div id=\"bar\" class=\"rotating-bar\"></div>\n          </div>\n        </div>\n      ","response":"Enter","trial_type":"html-keyboard-response","trial_index":53,"plugin_version":"2.1.0","time_elapsed":897300,"response_angle_css":387,"response_angle_rdk":63,"angular_error_target":27,"angular_error_distractor":142,"target_direction":36,"target_group":"white","reward_points":4},{"rt":null,"stimulus":"\n          <p style=\"color: #00FF00;\">Your reward: 4 points</p>\n        ","response":null,"trial_type":"html-keyboard-response","trial_index":54,"plugin_version":"2.1.0","time_elapsed":899304},{"rt":null,"stimulus":"<div class=\"fixation\" style=\"font-size: 60px;\">+</div>","response":null,"trial_type":"html-keyboard-response","trial_index":55,"plugin_version":"2.1.0","time_elapsed":900320},{"target_group":"black","condition_label":"B_H_vs_W_L_rep3","target_direction":114,"distractor_direction":227,"session_rotation":3,"rt":-1,"response":"","correct":false,"choices":"ALL_KEYS","correct_choice":["a"],"trial_duration":2000,"flip_timestamps":[],"response_ends_trial":false,"number_of_apertures":200,"number_of_dots":[1,1,1,1,1,1,1,1,1,1,1,1,1,1,1,1,1,1,1,1,1,1,1,1,1,1,1,1,1,1,1,1,1,1,1,1,1,1,1,1,1,1,1,1,1,1,1,1,1,1,1,1,1,1,1,1,1,1,1,1,1,1,1,1,1,1,1,1,1,1,1,1,1,1,1,1,1,1,1,1,1,1,1,1,1,1,1,1,1,1,1,1,1,1,1,1,1,1,1,1,1,1,1,1,1,1,1,1,1,1,1,1,1,1,1,1,1,1,1,1,1,1,1,1,1,1,1,1,1,1,1,1,1,1,1,1,1,1,1,1,1,1,1,1,1,1,1,1,1,1,1,1,1,1,1,1,1,1,1,1,1,1,1,1,1,1,1,1,1,1,1,1,1,1,1,1,1,1,1,1,1,1,1,1,1,1,1,1,1,1,1,1,1,1,1,1,1,1,1,1],"number_of_sets":1,"coherent_direction":[227,114,227,114,227,227,114,227,114,114,227,114,227,227,114,114,227,227,114,114,114,227,227,227,227,114,114,114,114,114,227,114,227,227,227,114,114,114,114,114,114,114,227,227,114,114,114,114,114,227,114,227,114,227,114,227,227,114,114,114,114,227,227,114,114,114,114,114,114,227,227,227,114,227,227,227,227,227,227,227,114,227,227,114,114,114,114,227,227,114,227,114,227,114,227,114,227,227,114,227,227,227,227,227,114,114,114,227,114,227,114,227,114,227,114,114,114,114,227,114,227,227,114,227,114,227,227,227,227,114,114,227,114,114,227,114,114,227,227,227,114,227,227,227,227,227,114,114,114,227,114,227,227,114,114,227,227,227,114,114,114,227,114,227,114,227,114,114,114,227,114,227,114,114,227,114,227,227,227,227,227,227,227,114,114,227,114,227,227,227,114,114,227,227,114,227,114,227,114,114],"coherence":1,"opposite_coherence":0,"dot_radius":2,"dot_side_length":1,"dot_life":-1,"move_distance":1,"aperture_width":300,"aperture_height":300,"dot_color":["white","black","white","black","white","white","black","white","black","black","white","black","white","white","black","black","white","white","black","black","black","white","white","white","white","black","black","black","black","black","white","black","white","white","white","black","black","black","black","black","black","black","white","white","black","black","black","black","black","white","black","white","black","white","black","white","white","black","black","black","black","white","white","black","black","black","black","black","black","white","white","white","black","white","white","white","white","white","white","white","black","white","white","black","black","black","black","white","white","black","white","black","white","black","white","black","white","white","black","white","white","white","white","white","black","black","black","white","black","white","black","white","black","white","black","black","black","black","white","black","white","white","black","white","black","white","white","white","white","black","black","white","black","black","white","black","black","white","white","white","black","white","white","white","white","white","black","black","black","white","black","white","white","black","black","white","white","white","black","black","black","white","black","white","black","white","black","black","black","white","black","white","black","black","white","black","white","white","white","white","white","white","white","black","black","white","black","white","white","white","black","black","white","white","black","white","black","white","black","black"],"dot_shape":"circle","background_color":"#AAA","RDK_type":3,"aperture_type":2,"reinsert_type":2,"frame_rate":17.50877192982456,"frame_rate_array":[13,22,11,14,17,19,22,21,23,19,20,18,21,24,25,22,27,21,13,8,10,17,21,17,17,17,17,18,14,22,19,19,22,19,21,18,19,20,19,17,21,19,20,18,19,21,22,18,18,22,18,17,17,16,15,15,13,17,16,16,13,10,17,17,17,19,17,17,17,19,17,18,13,17,16,17,18,15,18,16,15,17,17,16,17,17,18,16,16,19,15,17,16,16,16,17,16,18,15,17,18,17,16,16,18,17,17,17,17,15,18,15,18,17],"number_of_frames":114,"aperture_center_x":960,"aperture_center_y":540,"fixation_cross":true,"fixation_cross_width":15,"fixation_cross_height":15,"fixation_cross_color":"#111","fixation_cross_thickness":1,"border":true,"border_thickness":2,"border_color":"transparent","canvas_width":1920,"canvas_height":1080,"trial_type":"rdk","trial_index":56,"plugin_version":"2.0.0","time_elapsed":902334},{"rt":4989,"stimulus":"\n        <div class=\"response-container\">\n          <div class=\"response-instruction\">\n            <p>rotate the bar by using the left and right arrow keys.</p>\n            <p>when you are determined, press the Enter key.</p>\n          </div>\n          <div class=\"response-circle\">\n            <div class=\"response-fixation\"></div>\n            <div id=\"bar\" class=\"rotating-bar\"></div>\n          </div>\n        </div>\n      ","response":"Enter","trial_type":"html-keyboard-response","trial_index":57,"plugin_version":"2.1.0","time_elapsed":907326,"response_angle_css":319,"response_angle_rdk":131,"angular_error_target":17,"angular_error_distractor":-96,"target_direction":114,"target_group":"black","reward_points":6},{"rt":null,"stimulus":"\n          <p style=\"color: #00FF00;\">Your reward: 6 points</p>\n        ","response":null,"trial_type":"html-keyboard-response","trial_index":58,"plugin_version":"2.1.0","time_elapsed":909344},{"rt":null,"stimulus":"<div class=\"fixation\" style=\"font-size: 60px;\">+</div>","response":null,"trial_type":"html-keyboard-response","trial_index":59,"plugin_version":"2.1.0","time_elapsed":910360},{"target_group":"black","condition_label":"B_H_vs_W_L_rep4","target_direction":118,"distractor_direction":217,"session_rotation":3,"rt":-1,"response":"","correct":false,"choices":"ALL_KEYS","correct_choice":["a"],"trial_duration":2000,"flip_timestamps":[],"response_ends_trial":false,"number_of_apertures":200,"number_of_dots":[1,1,1,1,1,1,1,1,1,1,1,1,1,1,1,1,1,1,1,1,1,1,1,1,1,1,1,1,1,1,1,1,1,1,1,1,1,1,1,1,1,1,1,1,1,1,1,1,1,1,1,1,1,1,1,1,1,1,1,1,1,1,1,1,1,1,1,1,1,1,1,1,1,1,1,1,1,1,1,1,1,1,1,1,1,1,1,1,1,1,1,1,1,1,1,1,1,1,1,1,1,1,1,1,1,1,1,1,1,1,1,1,1,1,1,1,1,1,1,1,1,1,1,1,1,1,1,1,1,1,1,1,1,1,1,1,1,1,1,1,1,1,1,1,1,1,1,1,1,1,1,1,1,1,1,1,1,1,1,1,1,1,1,1,1,1,1,1,1,1,1,1,1,1,1,1,1,1,1,1,1,1,1,1,1,1,1,1,1,1,1,1,1,1,1,1,1,1,1,1],"number_of_sets":1,"coherent_direction":[217,118,217,217,217,217,118,217,217,217,118,118,118,217,217,118,118,118,217,217,118,217,118,118,217,217,217,118,118,118,118,118,118,118,118,217,118,118,118,217,118,217,217,217,217,217,217,118,217,217,118,217,217,217,118,217,217,217,217,118,217,217,217,118,217,217,217,118,118,118,217,118,217,118,217,217,217,217,118,118,118,217,217,118,118,118,217,217,118,217,118,217,118,217,118,217,118,118,118,118,217,217,217,118,118,217,217,118,118,217,118,217,217,217,217,118,217,118,118,217,217,217,118,217,118,217,217,217,118,217,118,217,217,217,118,217,118,118,118,217,217,118,217,118,217,118,217,118,217,217,118,217,217,118,118,118,118,118,118,118,217,118,118,118,118,217,217,118,118,118,118,118,118,217,118,217,217,118,118,217,118,217,118,118,118,118,118,217,217,217,217,217,118,118,118,217,118,118,118,217],"coherence":1,"opposite_coherence":0,"dot_radius":2,"dot_side_length":1,"dot_life":-1,"move_distance":1,"aperture_width":300,"aperture_height":300,"dot_color":["white","black","white","white","white","white","black","white","white","white","black","black","black","white","white","black","black","black","white","white","black","white","black","black","white","white","white","black","black","black","black","black","black","black","black","white","black","black","black","white","black","white","white","white","white","white","white","black","white","white","black","white","white","white","black","white","white","white","white","black","white","white","white","black","white","white","white","black","black","black","white","black","white","black","white","white","white","white","black","black","black","white","white","black","black","black","white","white","black","white","black","white","black","white","black","white","black","black","black","black","white","white","white","black","black","white","white","black","black","white","black","white","white","white","white","black","white","black","black","white","white","white","black","white","black","white","white","white","black","white","black","white","white","white","black","white","black","black","black","white","white","black","white","black","white","black","white","black","white","white","black","white","white","black","black","black","black","black","black","black","white","black","black","black","black","white","white","black","black","black","black","black","black","white","black","white","white","black","black","white","black","white","black","black","black","black","black","white","white","white","white","white","black","black","black","white","black","black","black","white"],"dot_shape":"circle","background_color":"#AAA","RDK_type":3,"aperture_type":2,"reinsert_type":2,"frame_rate":17.45614035087719,"frame_rate_array":[14,20,20,8,17,19,21,20,20,18,21,19,29,15,25,27,26,20,10,11,12,17,16,21,16,18,16,15,21,20,21,20,19,19,21,21,17,20,17,21,19,20,19,22,15,13,20,18,16,16,18,18,15,15,17,17,17,17,16,17,16,19,15,17,18,15,18,16,19,16,17,18,16,26,15,17,8,11,17,18,18,20,16,14,19,16,14,17,17,17,17,18,17,15,18,17,19,16,15,19,14,15,14,16,17,17,16,17,16,17,17,17,16,17],"number_of_frames":114,"aperture_center_x":960,"aperture_center_y":540,"fixation_cross":true,"fixation_cross_width":15,"fixation_cross_height":15,"fixation_cross_color":"#111","fixation_cross_thickness":1,"border":true,"border_thickness":2,"border_color":"transparent","canvas_width":1920,"canvas_height":1080,"trial_type":"rdk","trial_index":60,"plugin_version":"2.0.0","time_elapsed":912373},{"rt":4197,"stimulus":"\n        <div class=\"response-container\">\n          <div class=\"response-instruction\">\n            <p>rotate the bar by using the left and right arrow keys.</p>\n            <p>when you are determined, press the Enter key.</p>\n          </div>\n          <div class=\"response-circle\">\n            <div class=\"response-fixation\"></div>\n            <div id=\"bar\" class=\"rotating-bar\"></div>\n          </div>\n        </div>\n      ","response":"Enter","trial_type":"html-keyboard-response","trial_index":61,"plugin_version":"2.1.0","time_elapsed":916572,"response_angle_css":-17,"response_angle_rdk":107,"angular_error_target":-11,"angular_error_distractor":-110,"target_direction":118,"target_group":"black","reward_points":7},{"rt":null,"stimulus":"\n          <p style=\"color: #00FF00;\">Your reward: 7 points</p>\n        ","response":null,"trial_type":"html-keyboard-response","trial_index":62,"plugin_version":"2.1.0","time_elapsed":918585},{"rt":null,"stimulus":"<div class=\"fixation\" style=\"font-size: 60px;\">+</div>","response":null,"trial_type":"html-keyboard-response","trial_index":63,"plugin_version":"2.1.0","time_elapsed":919601},{"target_group":"black","condition_label":"B_H_vs_W_L_rep13","target_direction":116,"distractor_direction":210,"session_rotation":3,"rt":-1,"response":"","correct":false,"choices":"ALL_KEYS","correct_choice":["a"],"trial_duration":2000,"flip_timestamps":[],"response_ends_trial":false,"number_of_apertures":200,"number_of_dots":[1,1,1,1,1,1,1,1,1,1,1,1,1,1,1,1,1,1,1,1,1,1,1,1,1,1,1,1,1,1,1,1,1,1,1,1,1,1,1,1,1,1,1,1,1,1,1,1,1,1,1,1,1,1,1,1,1,1,1,1,1,1,1,1,1,1,1,1,1,1,1,1,1,1,1,1,1,1,1,1,1,1,1,1,1,1,1,1,1,1,1,1,1,1,1,1,1,1,1,1,1,1,1,1,1,1,1,1,1,1,1,1,1,1,1,1,1,1,1,1,1,1,1,1,1,1,1,1,1,1,1,1,1,1,1,1,1,1,1,1,1,1,1,1,1,1,1,1,1,1,1,1,1,1,1,1,1,1,1,1,1,1,1,1,1,1,1,1,1,1,1,1,1,1,1,1,1,1,1,1,1,1,1,1,1,1,1,1,1,1,1,1,1,1,1,1,1,1,1,1],"number_of_sets":1,"coherent_direction":[210,116,210,210,116,116,116,116,210,210,116,116,116,210,210,116,210,210,210,210,116,210,210,116,210,116,116,116,210,210,116,116,210,116,210,116,116,116,116,116,210,210,116,116,116,210,210,116,210,116,210,116,116,210,116,116,116,116,116,210,210,116,116,116,116,116,210,116,210,210,210,116,210,210,210,210,210,210,116,116,210,210,116,116,116,210,116,210,116,116,210,210,116,210,210,116,210,116,210,210,210,210,116,210,116,210,210,210,210,116,116,116,116,116,210,210,210,116,116,116,116,116,116,116,210,210,210,116,116,210,116,116,116,210,210,210,210,116,116,210,116,116,116,210,116,210,210,210,210,116,210,116,210,210,210,210,116,210,116,210,210,116,210,210,116,210,116,116,210,116,116,210,210,210,210,116,210,210,116,210,116,116,210,210,116,210,116,210,210,116,210,116,116,116,210,116,116,210,116,210],"coherence":1,"opposite_coherence":0,"dot_radius":2,"dot_side_length":1,"dot_life":-1,"move_distance":1,"aperture_width":300,"aperture_height":300,"dot_color":["white","black","white","white","black","black","black","black","white","white","black","black","black","white","white","black","white","white","white","white","black","white","white","black","white","black","black","black","white","white","black","black","white","black","white","black","black","black","black","black","white","white","black","black","black","white","white","black","white","black","white","black","black","white","black","black","black","black","black","white","white","black","black","black","black","black","white","black","white","white","white","black","white","white","white","white","white","white","black","black","white","white","black","black","black","white","black","white","black","black","white","white","black","white","white","black","white","black","white","white","white","white","black","white","black","white","white","white","white","black","black","black","black","black","white","white","white","black","black","black","black","black","black","black","white","white","white","black","black","white","black","black","black","white","white","white","white","black","black","white","black","black","black","white","black","white","white","white","white","black","white","black","white","white","white","white","black","white","black","white","white","black","white","white","black","white","black","black","white","black","black","white","white","white","white","black","white","white","black","white","black","black","white","white","black","white","black","white","white","black","white","black","black","black","white","black","black","white","black","white"],"dot_shape":"circle","background_color":"#AAA","RDK_type":3,"aperture_type":2,"reinsert_type":2,"frame_rate":18.453703703703702,"frame_rate_array":[41,8,14,25,22,23,27,22,27,23,23,18,23,24,19,21,15,11,17,17,16,18,19,17,17,16,16,19,23,24,19,19,22,21,15,8,9,21,18,18,19,16,16,14,19,18,19,18,21,21,19,19,18,18,10,13,17,17,18,22,15,18,17,14,29,27,17,22,21,21,11,17,15,22,15,16,19,15,16,17,18,22,18,19,22,19,20,19,19,21,21,18,20,15,14,13,20,16,18,15,17,19,16,15,17,17,17,17],"number_of_frames":108,"aperture_center_x":960,"aperture_center_y":540,"fixation_cross":true,"fixation_cross_width":15,"fixation_cross_height":15,"fixation_cross_color":"#111","fixation_cross_thickness":1,"border":true,"border_thickness":2,"border_color":"transparent","canvas_width":1920,"canvas_height":1080,"trial_type":"rdk","trial_index":64,"plugin_version":"2.0.0","time_elapsed":921617},{"rt":3665,"stimulus":"\n        <div class=\"response-container\">\n          <div class=\"response-instruction\">\n            <p>rotate the bar by using the left and right arrow keys.</p>\n            <p>when you are determined, press the Enter key.</p>\n          </div>\n          <div class=\"response-circle\">\n            <div class=\"response-fixation\"></div>\n            <div id=\"bar\" class=\"rotating-bar\"></div>\n          </div>\n        </div>\n      ","response":"Enter","trial_type":"html-keyboard-response","trial_index":65,"plugin_version":"2.1.0","time_elapsed":925284,"response_angle_css":313,"response_angle_rdk":137,"angular_error_target":21,"angular_error_distractor":-73,"target_direction":116,"target_group":"black","reward_points":5},{"rt":null,"stimulus":"\n          <p style=\"color: #00FF00;\">Your reward: 5 points</p>\n        ","response":null,"trial_type":"html-keyboard-response","trial_index":66,"plugin_version":"2.1.0","time_elapsed":927294},{"rt":null,"stimulus":"<div class=\"fixation\" style=\"font-size: 60px;\">+</div>","response":null,"trial_type":"html-keyboard-response","trial_index":67,"plugin_version":"2.1.0","time_elapsed":928310},{"target_group":"black","condition_label":"B_H_vs_W_L_rep14","target_direction":123,"distractor_direction":222,"session_rotation":3,"rt":-1,"response":"","correct":false,"choices":"ALL_KEYS","correct_choice":["a"],"trial_duration":2000,"flip_timestamps":[],"response_ends_trial":false,"number_of_apertures":200,"number_of_dots":[1,1,1,1,1,1,1,1,1,1,1,1,1,1,1,1,1,1,1,1,1,1,1,1,1,1,1,1,1,1,1,1,1,1,1,1,1,1,1,1,1,1,1,1,1,1,1,1,1,1,1,1,1,1,1,1,1,1,1,1,1,1,1,1,1,1,1,1,1,1,1,1,1,1,1,1,1,1,1,1,1,1,1,1,1,1,1,1,1,1,1,1,1,1,1,1,1,1,1,1,1,1,1,1,1,1,1,1,1,1,1,1,1,1,1,1,1,1,1,1,1,1,1,1,1,1,1,1,1,1,1,1,1,1,1,1,1,1,1,1,1,1,1,1,1,1,1,1,1,1,1,1,1,1,1,1,1,1,1,1,1,1,1,1,1,1,1,1,1,1,1,1,1,1,1,1,1,1,1,1,1,1,1,1,1,1,1,1,1,1,1,1,1,1,1,1,1,1,1,1],"number_of_sets":1,"coherent_direction":[123,222,123,123,123,222,222,123,222,123,222,222,222,123,222,222,123,222,123,222,123,222,222,222,222,222,222,222,123,222,123,123,222,123,222,222,123,222,123,222,222,222,123,222,123,123,123,123,123,123,222,222,123,123,123,222,123,222,123,222,123,222,123,123,222,222,123,222,222,222,123,222,123,222,123,222,123,222,222,123,123,222,222,222,123,222,123,123,123,123,222,123,123,123,123,123,222,123,123,222,123,222,222,123,123,222,222,123,123,222,123,123,222,222,222,222,222,123,123,123,222,123,222,222,222,123,222,222,123,123,222,123,222,123,123,222,222,123,222,123,123,222,123,222,222,222,222,222,222,222,123,123,222,222,123,222,123,222,123,123,222,123,123,123,222,123,123,222,222,222,123,123,123,123,123,222,222,222,123,123,123,123,123,123,222,222,222,222,123,123,222,123,123,123,222,222,123,222,222,123],"coherence":1,"opposite_coherence":0,"dot_radius":2,"dot_side_length":1,"dot_life":-1,"move_distance":1,"aperture_width":300,"aperture_height":300,"dot_color":["black","white","black","black","black","white","white","black","white","black","white","white","white","black","white","white","black","white","black","white","black","white","white","white","white","white","white","white","black","white","black","black","white","black","white","white","black","white","black","white","white","white","black","white","black","black","black","black","black","black","white","white","black","black","black","white","black","white","black","white","black","white","black","black","white","white","black","white","white","white","black","white","black","white","black","white","black","white","white","black","black","white","white","white","black","white","black","black","black","black","white","black","black","black","black","black","white","black","black","white","black","white","white","black","black","white","white","black","black","white","black","black","white","white","white","white","white","black","black","black","white","black","white","white","white","black","white","white","black","black","white","black","white","black","black","white","white","black","white","black","black","white","black","white","white","white","white","white","white","white","black","black","white","white","black","white","black","white","black","black","white","black","black","black","white","black","black","white","white","white","black","black","black","black","black","white","white","white","black","black","black","black","black","black","white","white","white","white","black","black","white","black","black","black","white","white","black","white","white","black"],"dot_shape":"circle","background_color":"#AAA","RDK_type":3,"aperture_type":2,"reinsert_type":2,"frame_rate":17.663716814159294,"frame_rate_array":[11,14,15,19,21,22,19,22,13,14,17,17,17,19,19,17,19,16,18,16,22,18,21,18,19,14,16,19,17,19,16,21,15,16,23,21,20,21,19,22,10,10,16,21,16,19,15,17,17,18,15,25,21,18,17,22,20,20,21,20,19,22,20,18,10,8,17,17,18,22,14,17,16,19,14,20,20,22,21,19,18,28,17,12,15,13,12,17,17,15,16,20,16,19,15,19,15,17,16,17,20,21,22,19,19,19,19,22,19,10,8,14,17],"number_of_frames":113,"aperture_center_x":960,"aperture_center_y":540,"fixation_cross":true,"fixation_cross_width":15,"fixation_cross_height":15,"fixation_cross_color":"#111","fixation_cross_thickness":1,"border":true,"border_thickness":2,"border_color":"transparent","canvas_width":1920,"canvas_height":1080,"trial_type":"rdk","trial_index":68,"plugin_version":"2.0.0","time_elapsed":930324},{"rt":6099,"stimulus":"\n        <div class=\"response-container\">\n          <div class=\"response-instruction\">\n            <p>rotate the bar by using the left and right arrow keys.</p>\n            <p>when you are determined, press the Enter key.</p>\n          </div>\n          <div class=\"response-circle\">\n            <div class=\"response-fixation\"></div>\n            <div id=\"bar\" class=\"rotating-bar\"></div>\n          </div>\n        </div>\n      ","response":"Enter","trial_type":"html-keyboard-response","trial_index":69,"plugin_version":"2.1.0","time_elapsed":936425,"response_angle_css":334,"response_angle_rdk":116,"angular_error_target":-7,"angular_error_distractor":-106,"target_direction":123,"target_group":"black","reward_points":8},{"rt":null,"stimulus":"\n          <p style=\"color: #00FF00;\">Your reward: 8 points</p>\n        ","response":null,"trial_type":"html-keyboard-response","trial_index":70,"plugin_version":"2.1.0","time_elapsed":938433},{"rt":null,"stimulus":"<div class=\"fixation\" style=\"font-size: 60px;\">+</div>","response":null,"trial_type":"html-keyboard-response","trial_index":71,"plugin_version":"2.1.0","time_elapsed":939449},{"target_group":"black","condition_label":"B_H_vs_W_L_rep7","target_direction":104,"distractor_direction":217,"session_rotation":3,"rt":-1,"response":"","correct":false,"choices":"ALL_KEYS","correct_choice":["a"],"trial_duration":2000,"flip_timestamps":[],"response_ends_trial":false,"number_of_apertures":200,"number_of_dots":[1,1,1,1,1,1,1,1,1,1,1,1,1,1,1,1,1,1,1,1,1,1,1,1,1,1,1,1,1,1,1,1,1,1,1,1,1,1,1,1,1,1,1,1,1,1,1,1,1,1,1,1,1,1,1,1,1,1,1,1,1,1,1,1,1,1,1,1,1,1,1,1,1,1,1,1,1,1,1,1,1,1,1,1,1,1,1,1,1,1,1,1,1,1,1,1,1,1,1,1,1,1,1,1,1,1,1,1,1,1,1,1,1,1,1,1,1,1,1,1,1,1,1,1,1,1,1,1,1,1,1,1,1,1,1,1,1,1,1,1,1,1,1,1,1,1,1,1,1,1,1,1,1,1,1,1,1,1,1,1,1,1,1,1,1,1,1,1,1,1,1,1,1,1,1,1,1,1,1,1,1,1,1,1,1,1,1,1,1,1,1,1,1,1,1,1,1,1,1,1],"number_of_sets":1,"coherent_direction":[104,104,217,217,217,217,104,217,104,217,104,217,217,104,217,104,104,104,217,217,217,104,217,104,104,217,104,217,104,217,104,217,217,104,217,217,217,104,217,217,104,104,104,217,104,104,217,217,104,104,104,217,104,104,217,217,104,104,217,104,104,217,217,104,217,217,217,104,217,104,217,104,104,217,217,104,217,217,217,217,217,104,104,217,104,217,104,104,104,104,104,217,104,217,104,217,104,104,217,104,104,104,217,104,217,104,104,104,104,104,217,217,217,104,104,217,104,217,104,217,217,217,217,104,217,217,104,217,104,217,104,217,217,104,217,217,217,217,104,104,217,104,104,217,104,217,217,104,104,104,217,104,217,217,217,217,217,217,104,217,104,104,217,104,217,217,104,104,217,104,104,217,217,217,104,104,104,217,104,104,104,104,217,104,217,104,104,217,217,217,104,104,104,104,217,104,217,104,217,217],"coherence":1,"opposite_coherence":0,"dot_radius":2,"dot_side_length":1,"dot_life":-1,"move_distance":1,"aperture_width":300,"aperture_height":300,"dot_color":["black","black","white","white","white","white","black","white","black","white","black","white","white","black","white","black","black","black","white","white","white","black","white","black","black","white","black","white","black","white","black","white","white","black","white","white","white","black","white","white","black","black","black","white","black","black","white","white","black","black","black","white","black","black","white","white","black","black","white","black","black","white","white","black","white","white","white","black","white","black","white","black","black","white","white","black","white","white","white","white","white","black","black","white","black","white","black","black","black","black","black","white","black","white","black","white","black","black","white","black","black","black","white","black","white","black","black","black","black","black","white","white","white","black","black","white","black","white","black","white","white","white","white","black","white","white","black","white","black","white","black","white","white","black","white","white","white","white","black","black","white","black","black","white","black","white","white","black","black","black","white","black","white","white","white","white","white","white","black","white","black","black","white","black","white","white","black","black","white","black","black","white","white","white","black","black","black","white","black","black","black","black","white","black","white","black","black","white","white","white","black","black","black","black","white","black","white","black","white","white"],"dot_shape":"circle","background_color":"#AAA","RDK_type":3,"aperture_type":2,"reinsert_type":2,"frame_rate":17.901785714285715,"frame_rate_array":[13,19,20,11,15,17,19,18,23,19,20,19,22,21,23,26,17,20,19,21,20,17,21,20,14,10,11,14,17,17,16,16,22,18,13,18,21,19,21,20,15,8,8,16,17,17,17,17,16,17,16,18,17,20,17,17,17,17,17,17,22,20,19,18,17,17,18,19,22,22,18,18,16,19,18,20,12,13,16,18,18,20,17,15,16,17,20,21,33,24,19,20,21,20,16,20,19,21,20,19,10,9,17,18,17,20,16,20,16,15,20,21],"number_of_frames":112,"aperture_center_x":960,"aperture_center_y":540,"fixation_cross":true,"fixation_cross_width":15,"fixation_cross_height":15,"fixation_cross_color":"#111","fixation_cross_thickness":1,"border":true,"border_thickness":2,"border_color":"transparent","canvas_width":1920,"canvas_height":1080,"trial_type":"rdk","trial_index":72,"plugin_version":"2.0.0","time_elapsed":941465},{"rt":2138,"stimulus":"\n        <div class=\"response-container\">\n          <div class=\"response-instruction\">\n            <p>rotate the bar by using the left and right arrow keys.</p>\n            <p>when you are determined, press the Enter key.</p>\n          </div>\n          <div class=\"response-circle\">\n            <div class=\"response-fixation\"></div>\n            <div id=\"bar\" class=\"rotating-bar\"></div>\n          </div>\n        </div>\n      ","response":"Enter","trial_type":"html-keyboard-response","trial_index":73,"plugin_version":"2.1.0","time_elapsed":943606,"response_angle_css":332,"response_angle_rdk":118,"angular_error_target":14,"angular_error_distractor":-99,"target_direction":104,"target_group":"black","reward_points":7},{"rt":null,"stimulus":"\n          <p style=\"color: #00FF00;\">Your reward: 7 points</p>\n        ","response":null,"trial_type":"html-keyboard-response","trial_index":74,"plugin_version":"2.1.0","time_elapsed":945610},{"rt":null,"stimulus":"<div class=\"fixation\" style=\"font-size: 60px;\">+</div>","response":null,"trial_type":"html-keyboard-response","trial_index":75,"plugin_version":"2.1.0","time_elapsed":946625},{"target_group":"white","condition_label":"W_H_vs_B_L_rep3","target_direction":45,"distractor_direction":303,"session_rotation":3,"rt":-1,"response":"","correct":false,"choices":"ALL_KEYS","correct_choice":["a"],"trial_duration":2000,"flip_timestamps":[],"response_ends_trial":false,"number_of_apertures":200,"number_of_dots":[1,1,1,1,1,1,1,1,1,1,1,1,1,1,1,1,1,1,1,1,1,1,1,1,1,1,1,1,1,1,1,1,1,1,1,1,1,1,1,1,1,1,1,1,1,1,1,1,1,1,1,1,1,1,1,1,1,1,1,1,1,1,1,1,1,1,1,1,1,1,1,1,1,1,1,1,1,1,1,1,1,1,1,1,1,1,1,1,1,1,1,1,1,1,1,1,1,1,1,1,1,1,1,1,1,1,1,1,1,1,1,1,1,1,1,1,1,1,1,1,1,1,1,1,1,1,1,1,1,1,1,1,1,1,1,1,1,1,1,1,1,1,1,1,1,1,1,1,1,1,1,1,1,1,1,1,1,1,1,1,1,1,1,1,1,1,1,1,1,1,1,1,1,1,1,1,1,1,1,1,1,1,1,1,1,1,1,1,1,1,1,1,1,1,1,1,1,1,1,1],"number_of_sets":1,"coherent_direction":[303,45,303,303,303,303,45,303,45,45,303,303,303,45,45,303,45,303,303,303,303,303,303,45,303,45,45,303,303,45,303,45,45,303,303,303,45,303,45,45,45,303,45,303,45,303,45,303,45,303,45,303,45,45,303,45,45,45,303,303,303,303,303,303,303,45,45,303,303,303,45,45,303,45,303,45,303,45,303,45,45,303,303,45,303,303,303,303,303,303,303,303,45,45,303,45,45,303,45,45,303,45,45,303,303,303,303,45,303,45,303,45,303,303,303,303,45,45,45,45,45,45,45,45,45,45,45,45,303,303,45,45,45,45,45,303,45,45,45,45,303,45,303,303,45,45,303,45,303,45,45,45,303,45,303,303,303,303,303,45,303,45,303,45,45,45,45,303,45,45,303,45,303,303,45,45,303,303,45,45,303,45,45,45,45,45,303,303,45,45,303,45,45,303,303,303,45,303,303,303],"coherence":1,"opposite_coherence":0,"dot_radius":2,"dot_side_length":1,"dot_life":-1,"move_distance":1,"aperture_width":300,"aperture_height":300,"dot_color":["black","white","black","black","black","black","white","black","white","white","black","black","black","white","white","black","white","black","black","black","black","black","black","white","black","white","white","black","black","white","black","white","white","black","black","black","white","black","white","white","white","black","white","black","white","black","white","black","white","black","white","black","white","white","black","white","white","white","black","black","black","black","black","black","black","white","white","black","black","black","white","white","black","white","black","white","black","white","black","white","white","black","black","white","black","black","black","black","black","black","black","black","white","white","black","white","white","black","white","white","black","white","white","black","black","black","black","white","black","white","black","white","black","black","black","black","white","white","white","white","white","white","white","white","white","white","white","white","black","black","white","white","white","white","white","black","white","white","white","white","black","white","black","black","white","white","black","white","black","white","white","white","black","white","black","black","black","black","black","white","black","white","black","white","white","white","white","black","white","white","black","white","black","black","white","white","black","black","white","white","black","white","white","white","white","white","black","black","white","white","black","white","white","black","black","black","white","black","black","black"],"dot_shape":"circle","background_color":"#AAA","RDK_type":3,"aperture_type":2,"reinsert_type":2,"frame_rate":18.44954128440367,"frame_rate_array":[22,16,12,19,25,23,28,23,9,7,16,25,19,19,20,19,18,20,18,20,20,23,19,28,22,11,17,17,20,18,18,15,17,16,16,17,23,21,23,19,21,24,21,22,19,19,20,17,17,11,8,13,17,17,19,18,18,15,17,19,18,20,18,20,26,27,19,14,15,23,16,16,17,16,17,20,25,29,21,18,21,18,20,20,12,9,15,21,18,16,18,16,13,14,22,20,17,13,24,24,18,17,18,12,23,16,16,15,20],"number_of_frames":109,"aperture_center_x":960,"aperture_center_y":540,"fixation_cross":true,"fixation_cross_width":15,"fixation_cross_height":15,"fixation_cross_color":"#111","fixation_cross_thickness":1,"border":true,"border_thickness":2,"border_color":"transparent","canvas_width":1920,"canvas_height":1080,"trial_type":"rdk","trial_index":76,"plugin_version":"2.0.0","time_elapsed":948652},{"rt":3304,"stimulus":"\n        <div class=\"response-container\">\n          <div class=\"response-instruction\">\n            <p>rotate the bar by using the left and right arrow keys.</p>\n            <p>when you are determined, press the Enter key.</p>\n          </div>\n          <div class=\"response-circle\">\n            <div class=\"response-fixation\"></div>\n            <div id=\"bar\" class=\"rotating-bar\"></div>\n          </div>\n        </div>\n      ","response":"Enter","trial_type":"html-keyboard-response","trial_index":77,"plugin_version":"2.1.0","time_elapsed":951958,"response_angle_css":409,"response_angle_rdk":41,"angular_error_target":-4,"angular_error_distractor":98,"target_direction":45,"target_group":"white","reward_points":9},{"rt":null,"stimulus":"\n          <p style=\"color: #00FF00;\">Your reward: 9 points</p>\n        ","response":null,"trial_type":"html-keyboard-response","trial_index":78,"plugin_version":"2.1.0","time_elapsed":953969},{"rt":null,"stimulus":"<div class=\"fixation\" style=\"font-size: 60px;\">+</div>","response":null,"trial_type":"html-keyboard-response","trial_index":79,"plugin_version":"2.1.0","time_elapsed":954985},{"target_group":"white","condition_label":"W_H_vs_B_L_rep21","target_direction":37,"distractor_direction":291,"session_rotation":3,"rt":-1,"response":"","correct":false,"choices":"ALL_KEYS","correct_choice":["a"],"trial_duration":2000,"flip_timestamps":[],"response_ends_trial":false,"number_of_apertures":200,"number_of_dots":[1,1,1,1,1,1,1,1,1,1,1,1,1,1,1,1,1,1,1,1,1,1,1,1,1,1,1,1,1,1,1,1,1,1,1,1,1,1,1,1,1,1,1,1,1,1,1,1,1,1,1,1,1,1,1,1,1,1,1,1,1,1,1,1,1,1,1,1,1,1,1,1,1,1,1,1,1,1,1,1,1,1,1,1,1,1,1,1,1,1,1,1,1,1,1,1,1,1,1,1,1,1,1,1,1,1,1,1,1,1,1,1,1,1,1,1,1,1,1,1,1,1,1,1,1,1,1,1,1,1,1,1,1,1,1,1,1,1,1,1,1,1,1,1,1,1,1,1,1,1,1,1,1,1,1,1,1,1,1,1,1,1,1,1,1,1,1,1,1,1,1,1,1,1,1,1,1,1,1,1,1,1,1,1,1,1,1,1,1,1,1,1,1,1,1,1,1,1,1,1],"number_of_sets":1,"coherent_direction":[37,291,37,37,37,37,37,291,37,37,291,37,291,291,291,37,291,37,291,37,37,291,291,291,37,37,291,291,291,37,37,291,37,291,291,37,37,37,37,37,37,37,291,291,291,291,37,37,291,291,291,37,291,37,291,291,37,291,37,37,37,291,37,37,291,291,291,37,37,37,291,37,37,37,37,37,37,37,37,37,291,291,291,291,37,291,37,291,37,291,37,291,37,291,291,291,291,37,291,291,291,37,291,37,37,37,291,37,37,37,291,37,37,37,291,291,291,291,291,37,291,291,291,291,37,291,37,291,37,37,291,37,291,291,37,37,37,291,37,291,37,291,37,291,37,291,291,37,291,291,291,291,37,37,291,291,291,37,37,37,37,291,37,37,291,291,37,291,37,291,291,291,37,291,291,37,37,37,37,37,291,291,291,37,37,291,291,291,37,37,291,37,291,37,291,37,291,291,291,291],"coherence":1,"opposite_coherence":0,"dot_radius":2,"dot_side_length":1,"dot_life":-1,"move_distance":1,"aperture_width":300,"aperture_height":300,"dot_color":["white","black","white","white","white","white","white","black","white","white","black","white","black","black","black","white","black","white","black","white","white","black","black","black","white","white","black","black","black","white","white","black","white","black","black","white","white","white","white","white","white","white","black","black","black","black","white","white","black","black","black","white","black","white","black","black","white","black","white","white","white","black","white","white","black","black","black","white","white","white","black","white","white","white","white","white","white","white","white","white","black","black","black","black","white","black","white","black","white","black","white","black","white","black","black","black","black","white","black","black","black","white","black","white","white","white","black","white","white","white","black","white","white","white","black","black","black","black","black","white","black","black","black","black","white","black","white","black","white","white","black","white","black","black","white","white","white","black","white","black","white","black","white","black","white","black","black","white","black","black","black","black","white","white","black","black","black","white","white","white","white","black","white","white","black","black","white","black","white","black","black","black","white","black","black","white","white","white","white","white","black","black","black","white","white","black","black","black","white","white","black","white","black","white","black","white","black","black","black","black"],"dot_shape":"circle","background_color":"#AAA","RDK_type":3,"aperture_type":2,"reinsert_type":2,"frame_rate":17.49122807017544,"frame_rate_array":[12,20,24,10,12,19,26,29,26,21,16,11,15,17,18,16,17,20,16,15,16,17,16,24,21,19,19,18,19,21,19,19,19,20,13,7,10,16,17,17,17,19,18,17,17,16,18,19,17,17,20,19,19,13,7,12,16,17,20,17,17,16,18,15,19,19,23,32,26,21,22,14,8,12,21,17,17,17,16,16,21,18,19,17,12,9,21,16,19,16,15,17,17,18,19,21,21,18,20,18,17,11,21,19,14,17,16,17,18,18,18,16,16,16],"number_o