[{"rt":16741,"stimulus":"Welcome to the experiment. Press any key to begin.","response":" ","trial_type":"html-keyboard-response","trial_index":0,"plugin_version":"2.1.0","time_elapsed":16747},{"rt":92367,"stimulus":"\n        <div class=\"instructions-container\">\n          <h2>Instructions</h2>\n\n          <p>\n          In this experiment, you will see <strong>two Random Dot Kinematograms (RDKs)</strong> displayed simultaneously.\n          </p>\n\n          <p>\n          An RDK is a visual stimulus consisting of many small dots that move coherently in a single direction. \n          In this experiment, the dots will be either <strong>white</strong> or <strong>black</strong> \n          (see the short demo below for an example of an RDK stimulus).\n          </p>\n\n          <p>\n          On each trial, the two RDKs will move in different directions. \n          Your task is to decide <strong>which RDK appears to contain more dots</strong>.\n          </p>\n\n          <p>\n          The RDK that you judge to have more dots is called the <strong>target RDK</strong>. \n          For example, if the white RDK appears to have more dots than the black RDK, \n          you should report the motion direction of the white RDK.\n          </p>\n\n          <p>\n          After viewing the RDKs, you will rotate a bar to indicate the perceived direction of the target RDK \n          using the <strong>left</strong> and <strong>right arrow keys</strong>. \n          Press <strong>Enter</strong> when you are satisfied with your response.\n          </p>\n\n          <p>\n          You will receive points based on the <strong>accuracy of your response</strong>, \n          and your final <strong>bonus reward</strong> may depend on your overall performance. \n          Please try to respond as accurately as possible.\n          </p>\n\n          <p>\n          You will first complete <strong>three practice trials</strong>. \n          Press the <strong>Enter</strong> key to start the practice phase.\n          </p>\n\n          <canvas id=\"instruction-demo-rdk\" width=\"300\" height=\"300\"style=\"display:block;margin:12px auto; border-radius: 50%;\"></canvas>\n        </div>\n      ","response":"Enter","trial_type":"html-keyboard-response","trial_index":1,"plugin_version":"2.1.0","time_elapsed":109118},{"rt":null,"stimulus":"<div class=\"fixation\" style=\"font-size: 60px;\">+</div>","response":null,"trial_type":"html-keyboard-response","trial_index":2,"plugin_version":"2.1.0","time_elapsed":110123},{"target_group":"black","target_index":1,"condition_label":"B_H_vs_W_L","rt":-1,"response":"","correct":false,"choices":"ALL_KEYS","correct_choice":["a"],"trial_duration":2000,"flip_timestamps":[],"response_ends_trial":false,"number_of_apertures":2,"number_of_dots":[50,100],"number_of_sets":1,"coherent_direction":[10,100],"coherence":1,"opposite_coherence":0,"dot_radius":2,"dot_side_length":1,"dot_life":-1,"move_distance":1,"aperture_width":300,"aperture_height":300,"dot_color":["white","black"],"dot_shape":"circle","background_color":"#AAA","RDK_type":3,"aperture_type":2,"reinsert_type":2,"frame_rate":8.388185654008439,"frame_rate_array":[2,7,8,18,11,9,7,9,9,7,9,9,8,9,8,8,7,9,8,8,9,8,8,9,8,8,9,8,9,8,9,8,8,9,9,7,7,8,9,9,10,7,9,9,8,9,9,8,9,8,7,9,8,9,7,9,8,10,9,6,10,6,10,8,8,9,8,9,7,8,8,8,9,9,8,8,8,9,8,8,9,8,8,9,9,9,9,8,7,10,9,9,5,8,9,8,9,9,9,8,8,8,9,8,8,9,8,9,9,9,7,9,10,6,8,8,8,8,8,11,6,8,8,8,9,9,9,7,8,9,7,9,8,8,8,9,8,9,8,7,9,9,8,9,9,8,8,9,8,8,8,8,8,9,8,8,9,8,9,8,7,8,9,9,8,9,8,7,8,9,8,9,9,9,8,9,9,7,9,8,8,8,9,9,8,9,9,8,8,9,8,23,1,6,7,13,9,8,8,10,7,8,8,8,9,8,9,8,8,8,8,9,8,8,9,8,9,8,8,9,8,9,8,8,9,8,8,8,8,9,8,8,8,11,5,9,8],"number_of_frames":237,"aperture_center_x":498,"aperture_center_y":240,"fixation_cross":true,"fixation_cross_width":15,"fixation_cross_height":15,"fixation_cross_color":"#111","fixation_cross_thickness":1,"border":true,"border_thickness":2,"border_color":"transparent","canvas_width":996,"canvas_height":480,"trial_type":"rdk","trial_index":3,"plugin_version":"2.0.0","time_elapsed":112137,"target_direction":100,"distractor_direction":10},{"rt":21006,"stimulus":"\n        <div class=\"response-container\">\n          <div class=\"response-instruction\">\n            <p>rotate the bar by using the left and right arrow keys.</p>\n            <p>when you are determined, press the Enter key.</p>\n          </div>\n          <div class=\"response-circle\">\n            <div class=\"response-fixation\"></div>\n            <div id=\"bar\" class=\"rotating-bar\"></div>\n          </div>\n        </div>\n      ","response":"Enter","trial_type":"html-keyboard-response","trial_index":4,"plugin_version":"2.1.0","time_elapsed":133145,"response_angle_css":319,"response_angle_rdk":131,"angular_error_target":31,"angular_error_distractor":121,"target_direction":100,"target_group":"black","reward_points":3},{"rt":null,"stimulus":"\n          <p style=\"color: #00FF00;\">Your reward: 3 points</p>\n        ","response":null,"trial_type":"html-keyboard-response","trial_index":5,"plugin_version":"2.1.0","time_elapsed":135149},{"rt":null,"stimulus":"<div class=\"fixation\" style=\"font-size: 60px;\">+</div>","response":null,"trial_type":"html-keyboard-response","trial_index":6,"plugin_version":"2.1.0","time_elapsed":136153},{"target_group":"white","target_index":0,"condition_label":"W_H_vs_B_L","rt":-1,"response":"","correct":false,"choices":"ALL_KEYS","correct_choice":["a"],"trial_duration":2000,"flip_timestamps":[],"response_ends_trial":false,"number_of_apertures":2,"number_of_dots":[100,50],"number_of_sets":1,"coherent_direction":[150,30],"coherence":1,"opposite_coherence":0,"dot_radius":2,"dot_side_length":1,"dot_life":-1,"move_distance":1,"aperture_width":300,"aperture_height":300,"dot_color":["white","black"],"dot_shape":"circle","background_color":"#AAA","RDK_type":3,"aperture_type":2,"reinsert_type":2,"frame_rate":8.36864406779661,"frame_rate_array":[10,7,33,8,9,8,9,9,8,9,9,8,9,8,8,9,8,9,8,8,8,8,8,8,8,9,8,9,8,8,8,9,9,9,8,8,9,8,8,8,8,8,8,8,8,8,8,8,8,8,8,8,9,8,8,8,8,9,9,8,8,8,9,8,9,8,8,9,8,9,8,8,9,8,9,8,9,8,8,9,8,9,8,8,9,8,8,8,8,8,8,8,8,9,8,8,8,8,8,8,8,9,8,8,9,8,9,8,8,8,8,8,8,8,9,9,8,9,8,9,9,8,9,9,8,8,8,8,8,8,9,9,8,8,9,8,8,8,8,8,8,9,8,8,8,8,8,9,8,8,8,8,9,8,9,9,8,8,8,8,8,8,8,8,8,8,8,8,8,8,8,9,8,8,8,8,8,9,8,8,8,8,8,8,8,9,8,9,8,8,8,8,9,8,8,8,8,8,9,8,8,9,8,8,9,8,8,8,8,8,8,8,8,8,9,9,8,8,8,9,8,8,8,8,8,9,8,8,9,8,8,8,9,8,9,8],"number_of_frames":236,"aperture_center_x":498,"aperture_center_y":240,"fixation_cross":true,"fixation_cross_width":15,"fixation_cross_height":15,"fixation_cross_color":"#111","fixation_cross_thickness":1,"border":true,"border_thickness":2,"border_color":"transparent","canvas_width":996,"canvas_height":480,"trial_type":"rdk","trial_index":7,"plugin_version":"2.0.0","time_elapsed":138164,"target_direction":150,"distractor_direction":30},{"rt":5575,"stimulus":"\n        <div class=\"response-container\">\n          <div class=\"response-instruction\">\n            <p>rotate the bar by using the left and right arrow keys.</p>\n            <p>when you are determined, press the Enter key.</p>\n          </div>\n          <div class=\"response-circle\">\n            <div class=\"response-fixation\"></div>\n            <div id=\"bar\" class=\"rotating-bar\"></div>\n          </div>\n        </div>\n      ","response":"Enter","trial_type":"html-keyboard-response","trial_index":8,"plugin_version":"2.1.0","time_elapsed":143742,"response_angle_css":312,"response_angle_rdk":138,"angular_error_target":-12,"angular_error_distractor":108,"target_direction":150,"target_group":"white","reward_points":7},{"rt":null,"stimulus":"\n          <p style=\"color: #00FF00;\">Your reward: 7 points</p>\n        ","response":null,"trial_type":"html-keyboard-response","trial_index":9,"plugin_version":"2.1.0","time_elapsed":145746},{"rt":null,"stimulus":"<div class=\"fixation\" style=\"font-size: 60px;\">+</div>","response":null,"trial_type":"html-keyboard-response","trial_index":10,"plugin_version":"2.1.0","time_elapsed":146750},{"target_group":"black","target_index":1,"condition_label":"B_H_vs_W_L","rt":-1,"response":"","correct":false,"choices":"ALL_KEYS","correct_choice":["a"],"trial_duration":2000,"flip_timestamps":[],"response_ends_trial":false,"number_of_apertures":2,"number_of_dots":[50,100],"number_of_sets":1,"coherent_direction":[270,180],"coherence":1,"opposite_coherence":0,"dot_radius":2,"dot_side_length":1,"dot_life":-1,"move_distance":1,"aperture_width":300,"aperture_height":300,"dot_color":["white","black"],"dot_shape":"circle","background_color":"#AAA","RDK_type":3,"aperture_type":2,"reinsert_type":2,"frame_rate":8.330543933054393,"frame_rate_array":[7,9,8,10,8,11,6,8,8,8,8,8,8,8,8,10,7,8,8,8,8,8,8,8,8,8,8,9,8,8,8,8,8,9,10,7,8,8,8,8,8,8,8,8,8,8,8,8,10,7,8,9,8,14,4,8,8,9,8,8,8,8,8,8,8,9,8,7,9,8,9,8,8,8,8,9,8,8,8,8,9,8,8,8,8,9,8,9,8,8,9,9,8,8,8,8,8,9,8,9,8,8,9,9,7,8,10,8,9,8,8,8,9,9,8,9,8,9,9,8,9,8,9,8,8,8,9,9,9,8,8,8,8,9,8,8,8,9,8,8,9,8,8,9,8,8,8,8,8,9,8,8,8,9,8,9,9,9,8,9,8,8,8,8,8,8,8,8,9,9,7,9,9,8,8,8,9,9,9,8,8,8,9,8,8,9,8,8,9,8,8,9,8,9,8,8,9,9,8,9,8,8,8,9,9,8,8,8,9,8,9,8,9,8,8,10,7,8,8,8,10,9,8,9,8,9,8,8,8,9,9,9,8,9,9,9,8,9,9],"number_of_frames":239,"aperture_center_x":498,"aperture_center_y":240,"fixation_cross":true,"fixation_cross_width":15,"fixation_cross_height":15,"fixation_cross_color":"#111","fixation_cross_thickness":1,"border":true,"border_thickness":2,"border_color":"transparent","canvas_width":996,"canvas_height":480,"trial_type":"rdk","trial_index":11,"plugin_version":"2.0.0","time_elapsed":148759,"target_direction":180,"distractor_direction":270},{"rt":3415,"stimulus":"\n        <div class=\"response-container\">\n          <div class=\"response-instruction\">\n            <p>rotate the bar by using the left and right arrow keys.</p>\n            <p>when you are determined, press the Enter key.</p>\n          </div>\n          <div class=\"response-circle\">\n            <div class=\"response-fixation\"></div>\n            <div id=\"bar\" class=\"rotating-bar\"></div>\n          </div>\n        </div>\n      ","response":"Enter","trial_type":"html-keyboard-response","trial_index":12,"plugin_version":"2.1.0","time_elapsed":152177,"response_angle_css":317,"response_angle_rdk":133,"angular_error_target":-47,"angular_error_distractor":-137,"target_direction":180,"target_group":"black","reward_points":0},{"rt":null,"stimulus":"\n          <p style=\"color: #FF3333;\">Your reward: 0 points</p>\n        ","response":null,"trial_type":"html-keyboard-response","trial_index":13,"plugin_version":"2.1.0","time_elapsed":154181},{"rt":2577,"stimulus":"\n        <div class=\"instructions-container\">\n          <h2>End of Practice</h2>\n          <p>You have completed the practice trials.</p>\n          <p>Press <strong>Enter</strong> key to begin the main experiment.</p>\n        </div>\n      ","response":"Enter","trial_type":"html-keyboard-response","trial_index":14,"plugin_version":"2.1.0","time_elapsed":156761},{"rt":null,"stimulus":"<div class=\"fixation\" style=\"font-size: 60px;\">+</div>","response":null,"trial_type":"html-keyboard-response","trial_index":15,"plugin_version":"2.1.0","time_elapsed":157764},{"target_group":"black","condition_label":"B_H_vs_W_L_rep20","target_direction":38,"distractor_direction":165,"session_rotation":302,"rt":-1,"response":"","correct":false,"choices":"ALL_KEYS","correct_choice":["a"],"trial_duration":2000,"flip_timestamps":[],"response_ends_trial":false,"number_of_apertures":200,"number_of_dots":[1,1,1,1,1,1,1,1,1,1,1,1,1,1,1,1,1,1,1,1,1,1,1,1,1,1,1,1,1,1,1,1,1,1,1,1,1,1,1,1,1,1,1,1,1,1,1,1,1,1,1,1,1,1,1,1,1,1,1,1,1,1,1,1,1,1,1,1,1,1,1,1,1,1,1,1,1,1,1,1,1,1,1,1,1,1,1,1,1,1,1,1,1,1,1,1,1,1,1,1,1,1,1,1,1,1,1,1,1,1,1,1,1,1,1,1,1,1,1,1,1,1,1,1,1,1,1,1,1,1,1,1,1,1,1,1,1,1,1,1,1,1,1,1,1,1,1,1,1,1,1,1,1,1,1,1,1,1,1,1,1,1,1,1,1,1,1,1,1,1,1,1,1,1,1,1,1,1,1,1,1,1,1,1,1,1,1,1,1,1,1,1,1,1,1,1,1,1,1,1],"number_of_sets":1,"coherent_direction":[38,165,38,165,165,38,38,38,38,165,38,165,38,38,165,38,38,38,38,38,165,38,38,165,165,165,165,165,165,165,165,38,38,38,38,165,38,38,165,38,165,165,165,38,165,165,165,38,38,165,38,38,165,165,38,38,38,38,38,38,165,38,165,165,165,38,165,38,38,38,165,165,38,38,38,38,165,165,165,38,165,38,165,38,38,165,165,165,165,38,165,165,38,165,165,38,165,165,38,38,165,165,165,165,165,38,165,38,165,38,165,165,165,165,165,38,38,38,38,165,38,38,165,165,165,165,38,38,165,38,38,38,38,165,165,38,165,38,165,165,165,165,38,38,38,38,38,165,165,38,38,38,38,38,165,165,165,165,165,38,165,165,38,165,38,38,165,38,165,38,165,38,165,38,165,165,38,38,165,165,38,38,165,38,165,38,38,38,38,165,38,165,165,38,165,165,165,38,38,165],"coherence":1,"opposite_coherence":0,"dot_radius":2,"dot_side_length":1,"dot_life":-1,"move_distance":1,"aperture_width":300,"aperture_height":300,"dot_color":["black","white","black","white","white","black","black","black","black","white","black","white","black","black","white","black","black","black","black","black","white","black","black","white","white","white","white","white","white","white","white","black","black","black","black","white","black","black","white","black","white","white","white","black","white","white","white","black","black","white","black","black","white","white","black","black","black","black","black","black","white","black","white","white","white","black","white","black","black","black","white","white","black","black","black","black","white","white","white","black","white","black","white","black","black","white","white","white","white","black","white","white","black","white","white","black","white","white","black","black","white","white","white","white","white","black","white","black","white","black","white","white","white","white","white","black","black","black","black","white","black","black","white","white","white","white","black","black","white","black","black","black","black","white","white","black","white","black","white","white","white","white","black","black","black","black","black","white","white","black","black","black","black","black","white","white","white","white","white","black","white","white","black","white","black","black","white","black","white","black","white","black","white","black","white","white","black","black","white","white","black","black","white","black","white","black","black","black","black","white","black","white","white","black","white","white","white","black","black","white"],"dot_shape":"circle","background_color":"#AAA","RDK_type":3,"aperture_type":2,"reinsert_type":2,"frame_rate":9.389671361502348,"frame_rate_array":[6,25,7,9,78,59,98,9,8,9,8,8,8,8,8,9,8,9,8,7,9,9,9,8,8,9,8,8,8,9,8,8,8,9,9,8,8,9,9,8,8,8,8,8,8,8,9,9,9,8,8,9,9,8,8,8,8,9,8,9,8,9,9,8,9,9,8,9,8,8,8,8,8,9,8,8,8,9,8,8,8,9,8,8,8,9,8,8,8,7,9,9,8,9,7,9,8,8,9,8,8,8,9,8,9,8,8,9,8,8,8,9,8,9,9,8,8,8,9,9,8,9,8,8,9,8,8,8,8,9,8,9,9,8,9,8,8,9,9,8,8,9,8,8,8,8,9,8,8,9,8,8,8,8,8,9,9,8,8,8,8,8,8,9,9,8,8,8,9,9,8,8,8,9,9,9,8,8,8,8,8,8,9,8,8,8,9,8,8,8,8,8,9,8,8,9,9,9,8,8,9,8,9,9,7,9,8,9,9,8,8,8,8],"number_of_frames":213,"aperture_center_x":498,"aperture_center_y":240,"fixation_cross":true,"fixation_cross_width":15,"fixation_cross_height":15,"fixation_cross_color":"#111","fixation_cross_thickness":1,"border":true,"border_thickness":2,"border_color":"transparent","canvas_width":996,"canvas_height":480,"trial_type":"rdk","trial_index":16,"plugin_version":"2.0.0","time_elapsed":159775},{"rt":3155,"stimulus":"\n        <div class=\"response-container\">\n          <div class=\"response-instruction\">\n            <p>rotate the bar by using the left and right arrow keys.</p>\n            <p>when you are determined, press the Enter key.</p>\n          </div>\n          <div class=\"response-circle\">\n            <div class=\"response-fixation\"></div>\n            <div id=\"bar\" class=\"rotating-bar\"></div>\n          </div>\n        </div>\n      ","response":"Enter","trial_type":"html-keyboard-response","trial_index":17,"plugin_version":"2.1.0","time_elapsed":162933,"response_angle_css":285,"response_angle_rdk":165,"angular_error_target":127,"angular_error_distractor":0,"target_direction":38,"target_group":"black","reward_points":0},{"rt":null,"stimulus":"\n          <p style=\"color: #FF3333;\">Your reward: 0 points</p>\n        ","response":null,"trial_type":"html-keyboard-response","trial_index":18,"plugin_version":"2.1.0","time_elapsed":164936},{"rt":null,"stimulus":"<div class=\"fixation\" style=\"font-size: 60px;\">+</div>","response":null,"trial_type":"html-keyboard-response","trial_index":19,"plugin_version":"2.1.0","time_elapsed":165939},{"target_group":"black","condition_label":"B_H_vs_W_L_rep12","target_direction":39,"distractor_direction":144,"session_rotation":302,"rt":-1,"response":"","correct":false,"choices":"ALL_KEYS","correct_choice":["a"],"trial_duration":2000,"flip_timestamps":[],"response_ends_trial":false,"number_of_apertures":200,"number_of_dots":[1,1,1,1,1,1,1,1,1,1,1,1,1,1,1,1,1,1,1,1,1,1,1,1,1,1,1,1,1,1,1,1,1,1,1,1,1,1,1,1,1,1,1,1,1,1,1,1,1,1,1,1,1,1,1,1,1,1,1,1,1,1,1,1,1,1,1,1,1,1,1,1,1,1,1,1,1,1,1,1,1,1,1,1,1,1,1,1,1,1,1,1,1,1,1,1,1,1,1,1,1,1,1,1,1,1,1,1,1,1,1,1,1,1,1,1,1,1,1,1,1,1,1,1,1,1,1,1,1,1,1,1,1,1,1,1,1,1,1,1,1,1,1,1,1,1,1,1,1,1,1,1,1,1,1,1,1,1,1,1,1,1,1,1,1,1,1,1,1,1,1,1,1,1,1,1,1,1,1,1,1,1,1,1,1,1,1,1,1,1,1,1,1,1,1,1,1,1,1,1],"number_of_sets":1,"coherent_direction":[144,39,39,144,144,144,144,39,39,39,39,39,39,39,144,144,39,39,144,39,144,144,39,39,39,39,144,39,39,144,144,144,39,144,39,144,39,39,39,144,39,144,144,39,144,39,39,39,144,39,39,39,39,39,39,39,144,144,39,39,39,39,39,144,39,39,39,39,39,144,144,39,144,39,39,144,144,39,144,39,39,39,39,144,144,39,144,144,39,39,144,144,144,144,39,144,144,144,39,144,39,39,39,39,144,39,39,144,144,144,39,144,144,39,144,144,144,39,39,39,144,39,144,39,144,39,144,144,144,144,144,144,144,39,144,144,144,39,144,144,39,39,39,144,144,39,39,39,144,144,144,39,144,144,39,39,144,144,39,144,144,39,144,39,144,39,39,39,39,39,144,144,144,39,144,39,144,39,144,39,144,144,39,39,39,144,144,144,144,39,39,144,144,144,144,144,144,144,144,144],"coherence":1,"opposite_coherence":0,"dot_radius":2,"dot_side_length":1,"dot_life":-1,"move_distance":1,"aperture_width":300,"aperture_height":300,"dot_color":["white","black","black","white","white","white","white","black","black","black","black","black","black","black","white","white","black","black","white","black","white","white","black","black","black","black","white","black","black","white","white","white","black","white","black","white","black","black","black","white","black","white","white","black","white","black","black","black","white","black","black","black","black","black","black","black","white","white","black","black","black","black","black","white","black","black","black","black","black","white","white","black","white","black","black","white","white","black","white","black","black","black","black","white","white","black","white","white","black","black","white","white","white","white","black","white","white","white","black","white","black","black","black","black","white","black","black","white","white","white","black","white","white","black","white","white","white","black","black","black","white","black","white","black","white","black","white","white","white","white","white","white","white","black","white","white","white","black","white","white","black","black","black","white","white","black","black","black","white","white","white","black","white","white","black","black","white","white","black","white","white","black","white","black","white","black","black","black","black","black","white","white","white","black","white","black","white","black","white","black","white","white","black","black","black","white","white","white","white","black","black","white","white","white","white","white","white","white","white","white"],"dot_shape":"circle","background_color":"#AAA","RDK_type":3,"aperture_type":2,"reinsert_type":2,"frame_rate":8.338912133891213,"frame_rate_array":[7,7,9,9,9,8,9,9,7,8,9,8,9,9,8,7,8,9,8,8,9,9,8,8,9,8,9,8,8,8,8,9,9,9,8,8,8,8,9,8,8,8,9,9,8,9,9,9,7,8,9,8,9,8,9,8,9,8,8,9,9,8,9,8,8,8,9,8,8,8,8,10,8,8,8,8,9,8,9,8,8,8,8,8,9,8,9,8,8,8,8,9,9,8,8,9,8,9,8,9,8,8,8,9,8,8,8,9,8,8,9,8,9,7,8,9,8,8,8,9,8,8,8,9,8,8,9,9,8,8,8,8,9,8,9,8,9,8,7,9,8,9,8,8,8,8,10,8,8,8,9,8,9,8,8,8,9,9,8,8,8,9,8,9,9,8,8,8,9,9,8,8,9,9,9,8,8,8,9,8,9,8,9,8,8,8,9,8,8,9,8,8,8,8,8,9,8,8,8,8,9,9,8,8,8,9,8,8,8,8,8,8,9,9,8,8,8,8,8,8,9,8,9,8,8,8,9,9,8,8,9,8,8,8,9,8,9,9,8],"number_of_frames":239,"aperture_center_x":498,"aperture_center_y":240,"fixation_cross":true,"fixation_cross_width":15,"fixation_cross_height":15,"fixation_cross_color":"#111","fixation_cross_thickness":1,"border":true,"border_thickness":2,"border_color":"transparent","canvas_width":996,"canvas_height":480,"trial_type":"rdk","trial_index":20,"plugin_version":"2.0.0","time_elapsed":167948},{"rt":3968,"stimulus":"\n        <div class=\"response-container\">\n          <div class=\"response-instruction\">\n            <p>rotate the bar by using the left and right arrow keys.</p>\n            <p>when you are determined, press the Enter key.</p>\n          </div>\n          <div class=\"response-circle\">\n            <div class=\"response-fixation\"></div>\n            <div id=\"bar\" class=\"rotating-bar\"></div>\n          </div>\n        </div>\n      ","response":"Enter","trial_type":"html-keyboard-response","trial_index":21,"plugin_version":"2.1.0","time_elapsed":171918,"response_angle_css":55,"response_angle_rdk":35,"angular_error_target":-4,"angular_error_distractor":-109,"target_direction":39,"target_group":"black","reward_points":9},{"rt":null,"stimulus":"\n          <p style=\"color: #00FF00;\">Your reward: 9 points</p>\n        ","response":null,"trial_type":"html-keyboard-response","trial_index":22,"plugin_version":"2.1.0","time_elapsed":173922},{"rt":null,"stimulus":"<div class=\"fixation\" style=\"font-size: 60px;\">+</div>","response":null,"trial_type":"html-keyboard-response","trial_index":23,"plugin_version":"2.1.0","time_elapsed":174926},{"target_group":"black","condition_label":"B_H_vs_W_L_rep24","target_direction":44,"distractor_direction":155,"session_rotation":302,"rt":-1,"response":"","correct":false,"choices":"ALL_KEYS","correct_choice":["a"],"trial_duration":2000,"flip_timestamps":[],"response_ends_trial":false,"number_of_apertures":200,"number_of_dots":[1,1,1,1,1,1,1,1,1,1,1,1,1,1,1,1,1,1,1,1,1,1,1,1,1,1,1,1,1,1,1,1,1,1,1,1,1,1,1,1,1,1,1,1,1,1,1,1,1,1,1,1,1,1,1,1,1,1,1,1,1,1,1,1,1,1,1,1,1,1,1,1,1,1,1,1,1,1,1,1,1,1,1,1,1,1,1,1,1,1,1,1,1,1,1,1,1,1,1,1,1,1,1,1,1,1,1,1,1,1,1,1,1,1,1,1,1,1,1,1,1,1,1,1,1,1,1,1,1,1,1,1,1,1,1,1,1,1,1,1,1,1,1,1,1,1,1,1,1,1,1,1,1,1,1,1,1,1,1,1,1,1,1,1,1,1,1,1,1,1,1,1,1,1,1,1,1,1,1,1,1,1,1,1,1,1,1,1,1,1,1,1,1,1,1,1,1,1,1,1],"number_of_sets":1,"coherent_direction":[44,155,155,155,44,44,155,44,44,44,44,44,155,44,44,44,44,44,155,44,44,44,155,44,155,155,44,44,155,44,44,44,44,155,44,155,155,155,44,44,44,44,155,44,155,155,44,44,155,155,155,155,44,155,155,44,155,155,44,155,44,155,155,44,155,44,155,155,155,44,155,155,155,155,44,44,44,44,155,155,155,155,44,44,155,155,155,155,44,44,155,44,155,44,155,44,44,155,44,155,155,44,155,44,44,44,44,44,44,155,155,155,44,44,44,155,44,155,44,44,155,155,155,155,155,44,155,44,155,44,44,155,44,44,155,155,155,44,155,155,44,155,155,155,44,155,44,44,44,44,155,155,44,44,44,155,44,44,155,44,155,44,155,155,44,155,155,155,155,155,155,44,44,155,155,155,155,44,155,44,155,155,155,44,44,44,155,44,155,155,44,155,44,44,44,155,44,44,44,155],"coherence":1,"opposite_coherence":0,"dot_radius":2,"dot_side_length":1,"dot_life":-1,"move_distance":1,"aperture_width":300,"aperture_height":300,"dot_color":["black","white","white","white","black","black","white","black","black","black","black","black","white","black","black","black","black","black","white","black","black","black","white","black","white","white","black","black","white","black","black","black","black","white","black","white","white","white","black","black","black","black","white","black","white","white","black","black","white","white","white","white","black","white","white","black","white","white","black","white","black","white","white","black","white","black","white","white","white","black","white","white","white","white","black","black","black","black","white","white","white","white","black","black","white","white","white","white","black","black","white","black","white","black","white","black","black","white","black","white","white","black","white","black","black","black","black","black","black","white","white","white","black","black","black","white","black","white","black","black","white","white","white","white","white","black","white","black","white","black","black","white","black","black","white","white","white","black","white","white","black","white","white","white","black","white","black","black","black","black","white","white","black","black","black","white","black","black","white","black","white","black","white","white","black","white","white","white","white","white","white","black","black","white","white","white","white","black","white","black","white","white","white","black","black","black","white","black","white","white","black","white","black","black","black","white","black","black","black","white"],"dot_shape":"circle","background_color":"#AAA","RDK_type":3,"aperture_type":2,"reinsert_type":2,"frame_rate":8.457627118644067,"frame_rate_array":[7,6,17,9,10,8,9,7,8,8,8,8,9,8,8,9,8,8,9,8,9,9,8,9,8,8,9,8,8,9,8,9,8,8,8,8,8,8,8,8,33,7,8,10,8,8,8,9,8,8,8,9,8,9,8,9,8,9,8,8,8,8,7,9,9,9,8,9,7,10,8,9,8,9,8,9,7,8,8,8,10,8,8,8,9,7,8,9,8,9,8,9,8,8,8,9,9,8,8,9,8,9,8,8,8,8,8,8,8,8,8,9,8,9,8,8,8,9,8,8,8,9,9,8,9,9,8,9,8,9,8,9,8,9,8,9,8,8,8,8,9,9,9,8,8,9,8,8,8,9,8,9,8,8,9,8,8,9,8,8,8,9,8,9,8,9,8,8,8,8,9,8,9,8,8,9,8,9,8,8,8,8,8,9,8,9,8,8,8,9,8,9,8,8,8,8,8,9,8,8,8,8,8,8,9,8,8,9,9,8,8,9,8,9,8,8,8,8,9,8,8,8,8,9,8,9,8,9,8,9,8,8,8,9,8,9],"number_of_frames":236,"aperture_center_x":498,"aperture_center_y":240,"fixation_cross":true,"fixation_cross_width":15,"fixation_cross_height":15,"fixation_cross_color":"#111","fixation_cross_thickness":1,"border":true,"border_thickness":2,"border_color":"transparent","canvas_width":996,"canvas_height":480,"trial_type":"rdk","trial_index":24,"plugin_version":"2.0.0","time_elapsed":176935},{"rt":1739,"stimulus":"\n        <div class=\"response-container\">\n          <div class=\"response-instruction\">\n            <p>rotate the bar by using the left and right arrow keys.</p>\n            <p>when you are determined, press the Enter key.</p>\n          </div>\n          <div class=\"response-circle\">\n            <div class=\"response-fixation\"></div>\n            <div id=\"bar\" class=\"rotating-bar\"></div>\n          </div>\n        </div>\n      ","response":"Enter","trial_type":"html-keyboard-response","trial_index":25,"plugin_version":"2.1.0","time_elapsed":178676,"response_angle_css":59,"response_angle_rdk":31,"angular_error_target":-13,"angular_error_distractor":-124,"target_direction":44,"target_group":"black","reward_points":7},{"rt":null,"stimulus":"\n          <p style=\"color: #00FF00;\">Your reward: 7 points</p>\n        ","response":null,"trial_type":"html-keyboard-response","trial_index":26,"plugin_version":"2.1.0","time_elapsed":180679},{"rt":null,"stimulus":"<div class=\"fixation\" style=\"font-size: 60px;\">+</div>","response":null,"trial_type":"html-keyboard-response","trial_index":27,"plugin_version":"2.1.0","time_elapsed":181683},{"target_group":"white","condition_label":"W_H_vs_B_L_rep1","target_direction":327,"distractor_direction":227,"session_rotation":302,"rt":-1,"response":"","correct":false,"choices":"ALL_KEYS","correct_choice":["a"],"trial_duration":2000,"flip_timestamps":[],"response_ends_trial":false,"number_of_apertures":200,"number_of_dots":[1,1,1,1,1,1,1,1,1,1,1,1,1,1,1,1,1,1,1,1,1,1,1,1,1,1,1,1,1,1,1,1,1,1,1,1,1,1,1,1,1,1,1,1,1,1,1,1,1,1,1,1,1,1,1,1,1,1,1,1,1,1,1,1,1,1,1,1,1,1,1,1,1,1,1,1,1,1,1,1,1,1,1,1,1,1,1,1,1,1,1,1,1,1,1,1,1,1,1,1,1,1,1,1,1,1,1,1,1,1,1,1,1,1,1,1,1,1,1,1,1,1,1,1,1,1,1,1,1,1,1,1,1,1,1,1,1,1,1,1,1,1,1,1,1,1,1,1,1,1,1,1,1,1,1,1,1,1,1,1,1,1,1,1,1,1,1,1,1,1,1,1,1,1,1,1,1,1,1,1,1,1,1,1,1,1,1,1,1,1,1,1,1,1,1,1,1,1,1,1],"number_of_sets":1,"coherent_direction":[327,327,227,227,227,327,227,327,327,227,227,227,227,327,327,327,327,327,327,227,227,227,327,227,327,327,327,227,227,227,227,327,327,227,227,227,327,227,227,327,327,227,327,327,327,327,327,327,227,327,227,327,227,327,327,227,227,327,327,327,327,227,327,227,327,327,327,327,327,227,327,327,327,227,327,227,327,327,227,227,327,327,327,227,327,227,227,327,227,327,227,227,227,227,227,327,327,227,327,327,327,327,327,227,327,227,327,327,227,227,227,227,227,227,227,327,227,327,227,227,227,227,327,327,327,227,227,327,227,327,227,227,327,227,327,227,327,327,327,227,227,227,327,327,227,327,327,227,227,327,327,327,227,327,327,227,227,227,327,227,327,227,327,227,227,327,227,227,327,227,227,227,327,227,327,227,227,227,227,227,227,327,227,227,327,227,227,227,327,227,227,327,227,327,327,227,327,327,327,327],"coherence":1,"opposite_coherence":0,"dot_radius":2,"dot_side_length":1,"dot_life":-1,"move_distance":1,"aperture_width":300,"aperture_height":300,"dot_color":["white","white","black","black","black","white","black","white","white","black","black","black","black","white","white","white","white","white","white","black","black","black","white","black","white","white","white","black","black","black","black","white","white","black","black","black","white","black","black","white","white","black","white","white","white","white","white","white","black","white","black","white","black","white","white","black","black","white","white","white","white","black","white","black","white","white","white","white","white","black","white","white","white","black","white","black","white","white","black","black","white","white","white","black","white","black","black","white","black","white","black","black","black","black","black","white","white","black","white","white","white","white","white","black","white","black","white","white","black","black","black","black","black","black","black","white","black","white","black","black","black","black","white","white","white","black","black","white","black","white","black","black","white","black","white","black","white","white","white","black","black","black","white","white","black","white","white","black","black","white","white","white","black","white","white","black","black","black","white","black","white","black","white","black","black","white","black","black","white","black","black","black","white","black","white","black","black","black","black","black","black","white","black","black","white","black","black","black","white","black","black","white","black","white","white","black","white","white","white","white"],"dot_shape":"circle","background_color":"#AAA","RDK_type":3,"aperture_type":2,"reinsert_type":2,"frame_rate":8.354166666666666,"frame_rate_array":[6,6,7,10,11,8,8,8,7,10,8,8,8,9,8,9,8,8,8,9,8,8,8,9,8,9,8,8,9,9,9,8,8,9,7,9,7,8,9,8,9,8,9,8,8,9,8,8,9,9,9,8,8,8,9,8,9,7,9,9,8,8,9,8,9,8,8,9,9,8,7,10,9,8,8,8,10,8,8,9,7,8,8,9,9,7,9,9,9,9,8,9,8,9,8,10,7,9,8,8,9,9,8,8,7,9,8,10,7,8,9,8,9,9,9,8,10,8,9,7,8,8,8,9,9,9,8,8,9,8,8,9,9,8,9,9,8,9,8,8,9,9,8,8,8,9,9,8,7,9,9,7,8,8,9,8,8,9,8,8,8,9,9,8,8,9,7,9,8,9,8,8,8,8,9,8,9,9,7,8,9,8,8,8,9,8,8,8,8,8,9,9,8,9,7,10,9,8,9,8,8,8,10,7,8,8,10,8,9,8,8,9,7,10,7,9,8,7,8,9,10,7,9,9,8,8,8,8,9,8,7,9,8,8,9,9,6,9,9,7],"number_of_frames":240,"aperture_center_x":498,"aperture_center_y":240,"fixation_cross":true,"fixation_cross_width":15,"fixation_cross_height":15,"fixation_cross_color":"#111","fixation_cross_thickness":1,"border":true,"border_thickness":2,"border_color":"transparent","canvas_width":996,"canvas_height":480,"trial_type":"rdk","trial_index":28,"plugin_version":"2.0.0","time_elapsed":183692},{"rt":3627,"stimulus":"\n        <div class=\"response-container\">\n          <div class=\"response-instruction\">\n            <p>rotate the bar by using the left and right arrow keys.</p>\n            <p>when you are determined, press the Enter key.</p>\n          </div>\n          <div class=\"response-circle\">\n            <div class=\"response-fixation\"></div>\n            <div id=\"bar\" class=\"rotating-bar\"></div>\n          </div>\n        </div>\n      ","response":"Enter","trial_type":"html-keyboard-response","trial_index":29,"plugin_version":"2.1.0","time_elapsed":187323,"response_angle_css":495,"response_angle_rdk":315,"angular_error_target":-12,"angular_error_distractor":88,"target_direction":327,"target_group":"white","reward_points":7},{"rt":null,"stimulus":"\n          <p style=\"color: #00FF00;\">Your reward: 7 points</p>\n        ","response":null,"trial_type":"html-keyboard-response","trial_index":30,"plugin_version":"2.1.0","time_elapsed":189325},{"rt":null,"stimulus":"<div class=\"fixation\" style=\"font-size: 60px;\">+</div>","response":null,"trial_type":"html-keyboard-response","trial_index":31,"plugin_version":"2.1.0","time_elapsed":190328},{"target_group":"black","condition_label":"B_H_vs_W_L_rep8","target_direction":71,"distractor_direction":161,"session_rotation":302,"rt":-1,"response":"","correct":false,"choices":"ALL_KEYS","correct_choice":["a"],"trial_duration":2000,"flip_timestamps":[],"response_ends_trial":false,"number_of_apertures":200,"number_of_dots":[1,1,1,1,1,1,1,1,1,1,1,1,1,1,1,1,1,1,1,1,1,1,1,1,1,1,1,1,1,1,1,1,1,1,1,1,1,1,1,1,1,1,1,1,1,1,1,1,1,1,1,1,1,1,1,1,1,1,1,1,1,1,1,1,1,1,1,1,1,1,1,1,1,1,1,1,1,1,1,1,1,1,1,1,1,1,1,1,1,1,1,1,1,1,1,1,1,1,1,1,1,1,1,1,1,1,1,1,1,1,1,1,1,1,1,1,1,1,1,1,1,1,1,1,1,1,1,1,1,1,1,1,1,1,1,1,1,1,1,1,1,1,1,1,1,1,1,1,1,1,1,1,1,1,1,1,1,1,1,1,1,1,1,1,1,1,1,1,1,1,1,1,1,1,1,1,1,1,1,1,1,1,1,1,1,1,1,1,1,1,1,1,1,1,1,1,1,1,1,1],"number_of_sets":1,"coherent_direction":[71,71,161,71,71,161,71,71,71,71,71,161,71,161,71,161,161,71,71,161,71,161,71,161,161,71,71,161,71,71,161,161,161,161,71,161,161,71,161,161,161,161,161,71,71,71,71,161,71,71,71,161,71,161,71,161,71,161,71,161,71,71,71,161,161,71,161,161,161,161,71,161,161,71,161,161,161,71,71,71,161,161,71,71,71,71,71,71,71,161,71,71,71,71,161,71,161,161,161,161,71,161,161,161,161,71,71,71,161,161,161,71,71,161,71,161,71,161,161,71,71,161,161,161,161,71,161,161,71,71,71,161,161,161,71,161,71,71,71,71,161,161,71,71,161,161,161,161,161,161,161,161,71,71,161,71,71,161,161,71,71,71,161,71,71,161,71,161,71,71,71,71,161,161,161,71,161,71,161,161,161,161,161,71,71,161,161,161,161,71,71,161,71,71,71,161,71,71,161,71],"coherence":1,"opposite_coherence":0,"dot_radius":2,"dot_side_length":1,"dot_life":-1,"move_distance":1,"aperture_width":300,"aperture_height":300,"dot_color":["black","black","white","black","black","white","black","black","black","black","black","white","black","white","black","white","white","black","black","white","black","white","black","white","white","black","black","white","black","black","white","white","white","white","black","white","white","black","white","white","white","white","white","black","black","black","black","white","black","black","black","white","black","white","black","white","black","white","black","white","black","black","black","white","white","black","white","white","white","white","black","white","white","black","white","white","white","black","black","black","white","white","black","black","black","black","black","black","black","white","black","black","black","black","white","black","white","white","white","white","black","white","white","white","white","black","black","black","white","white","white","black","black","white","black","white","black","white","white","black","black","white","white","white","white","black","white","white","black","black","black","white","white","white","black","white","black","black","black","black","white","white","black","black","white","white","white","white","white","white","white","white","black","black","white","black","black","white","white","black","black","black","white","black","black","white","black","white","black","black","black","black","white","white","white","black","white","black","white","white","white","white","white","black","black","white","white","white","white","black","black","white","black","black","black","white","black","black","white","black"],"dot_shape":"circle","background_color":"#AAA","RDK_type":3,"aperture_type":2,"reinsert_type":2,"frame_rate":8.40084388185654,"frame_rate_array":[10,5,26,6,8,9,8,9,8,9,8,8,8,9,9,8,9,8,7,9,8,9,8,9,8,8,9,8,8,9,9,8,8,8,8,9,8,8,8,8,8,8,9,8,8,8,9,9,9,8,8,8,9,8,9,8,9,9,8,9,8,8,8,9,8,8,8,9,8,8,8,8,8,8,9,9,8,8,8,8,9,8,9,8,9,9,8,9,8,8,8,8,9,9,8,9,8,9,8,9,9,8,9,8,8,8,9,8,8,9,8,8,8,9,8,8,9,8,9,8,8,8,9,8,9,8,8,8,9,9,8,8,8,8,8,8,8,8,9,7,9,9,8,9,8,8,9,9,8,9,8,8,8,8,9,8,9,8,9,8,8,8,9,8,8,9,8,8,9,8,8,8,8,9,8,8,9,9,8,9,8,8,8,8,8,8,9,8,8,8,8,9,8,8,9,8,9,8,8,8,9,8,8,8,9,8,9,8,8,9,8,8,9,8,9,9,8,8,8,9,9,8,8,9,7,9,9,8,9,9,8,9,8,8,8,8,8],"number_of_frames":237,"aperture_center_x":498,"aperture_center_y":240,"fixation_cross":true,"fixation_cross_width":15,"fixation_cross_height":15,"fixation_cross_color":"#111","fixation_cross_thickness":1,"border":true,"border_thickness":2,"border_color":"transparent","canvas_width":996,"canvas_height":480,"trial_type":"rdk","trial_index":32,"plugin_version":"2.0.0","time_elapsed":192339},{"rt":2055,"stimulus":"\n        <div class=\"response-container\">\n          <div class=\"response-instruction\">\n            <p>rotate the bar by using the left and right arrow keys.</p>\n            <p>when you are determined, press the Enter key.</p>\n          </div>\n          <div class=\"response-circle\">\n            <div class=\"response-fixation\"></div>\n            <div id=\"bar\" class=\"rotating-bar\"></div>\n          </div>\n        </div>\n      ","response":"Enter","trial_type":"html-keyboard-response","trial_index":33,"plugin_version":"2.1.0","time_elapsed":194396,"response_angle_css":222,"response_angle_rdk":228,"angular_error_target":157,"angular_error_distractor":67,"target_direction":71,"target_group":"black","reward_points":0},{"rt":null,"stimulus":"\n          <p style=\"color: #FF3333;\">Your reward: 0 points</p>\n        ","response":null,"trial_type":"html-keyboard-response","trial_index":34,"plugin_version":"2.1.0","time_elapsed":196399},{"rt":null,"stimulus":"<div class=\"fixation\" style=\"font-size: 60px;\">+</div>","response":null,"trial_type":"html-keyboard-response","trial_index":35,"plugin_version":"2.1.0","time_elapsed":197402},{"target_group":"black","condition_label":"B_H_vs_W_L_rep5","target_direction":63,"distractor_direction":160,"session_rotation":302,"rt":-1,"response":"","correct":false,"choices":"ALL_KEYS","correct_choice":["a"],"trial_duration":2000,"flip_timestamps":[],"response_ends_trial":false,"number_of_apertures":200,"number_of_dots":[1,1,1,1,1,1,1,1,1,1,1,1,1,1,1,1,1,1,1,1,1,1,1,1,1,1,1,1,1,1,1,1,1,1,1,1,1,1,1,1,1,1,1,1,1,1,1,1,1,1,1,1,1,1,1,1,1,1,1,1,1,1,1,1,1,1,1,1,1,1,1,1,1,1,1,1,1,1,1,1,1,1,1,1,1,1,1,1,1,1,1,1,1,1,1,1,1,1,1,1,1,1,1,1,1,1,1,1,1,1,1,1,1,1,1,1,1,1,1,1,1,1,1,1,1,1,1,1,1,1,1,1,1,1,1,1,1,1,1,1,1,1,1,1,1,1,1,1,1,1,1,1,1,1,1,1,1,1,1,1,1,1,1,1,1,1,1,1,1,1,1,1,1,1,1,1,1,1,1,1,1,1,1,1,1,1,1,1,1,1,1,1,1,1,1,1,1,1,1,1],"number_of_sets":1,"coherent_direction":[63,63,63,63,160,63,63,160,63,160,63,63,160,63,63,160,63,160,160,160,160,63,63,63,63,160,63,160,160,160,160,160,160,63,160,160,160,63,160,63,160,63,160,160,160,63,160,160,63,63,160,63,63,160,63,160,160,160,63,63,160,63,63,160,63,63,160,63,63,160,160,160,63,160,63,63,63,160,63,160,63,160,63,160,63,160,63,63,63,160,160,160,160,160,63,160,160,63,63,160,160,160,63,63,160,160,160,63,63,63,160,160,63,63,63,160,63,63,63,160,63,160,160,63,160,160,63,160,160,160,63,160,160,160,160,63,160,63,160,160,63,63,160,63,160,63,63,160,63,63,63,63,160,160,63,63,63,63,63,160,160,63,160,63,160,160,160,160,63,160,63,160,63,63,63,63,63,160,160,63,160,63,63,63,160,63,160,160,63,160,160,160,160,63,63,63,160,63,160,63],"coherence":1,"opposite_coherence":0,"dot_radius":2,"dot_side_length":1,"dot_life":-1,"move_distance":1,"aperture_width":300,"aperture_height":300,"dot_color":["black","black","black","black","white","black","black","white","black","white","black","black","white","black","black","white","black","white","white","white","white","black","black","black","black","white","black","white","white","white","white","white","white","black","white","white","white","black","white","black","white","black","white","white","white","black","white","white","black","black","white","black","black","white","black","white","white","white","black","black","white","black","black","white","black","black","white","black","black","white","white","white","black","white","black","black","black","white","black","white","black","white","black","white","black","white","black","black","black","white","white","white","white","white","black","white","white","black","black","white","white","white","black","black","white","white","white","black","black","black","white","white","black","black","black","white","black","black","black","white","black","white","white","black","white","white","black","white","white","white","black","white","white","white","white","black","white","black","white","white","black","black","white","black","white","black","black","white","black","black","black","black","white","white","black","black","black","black","black","white","white","black","white","black","white","white","white","white","black","white","black","white","black","black","black","black","black","white","white","black","white","black","black","black","white","black","white","white","black","white","white","white","white","black","black","black","white","black","white","black"],"dot_shape":"circle","background_color":"#AAA","RDK_type":3,"aperture_type":2,"reinsert_type":2,"frame_rate":8.372384937238493,"frame_rate_array":[9,7,14,2,10,8,8,9,8,8,7,8,9,9,8,9,8,9,8,8,8,9,8,9,9,8,8,8,8,9,8,9,9,8,8,9,7,10,8,9,8,8,9,8,8,8,9,8,8,9,8,8,8,8,9,9,8,8,9,8,8,9,8,9,9,8,9,8,9,8,8,8,9,8,9,7,10,8,8,9,8,9,9,8,8,9,8,8,8,9,8,9,8,9,9,7,8,8,9,8,8,8,9,8,9,8,8,9,7,8,9,8,8,9,9,8,8,9,10,7,8,8,8,9,8,9,9,9,8,8,10,8,8,9,8,8,8,9,9,7,8,10,8,8,8,9,8,9,8,8,10,7,8,8,9,7,9,8,10,8,7,8,8,8,7,10,8,8,9,7,10,8,9,10,8,7,9,9,8,8,8,9,9,8,9,8,8,9,9,8,8,8,8,9,9,8,9,9,9,7,9,8,9,8,8,8,9,8,7,10,8,9,9,8,8,9,9,8,7,8,8,9,8,8,7,9,8,9,9,8,9,7,10,8,9,9,8,8,8],"number_of_frames":239,"aperture_center_x":498,"aperture_center_y":240,"fixation_cross":true,"fixation_cross_width":15,"fixation_cross_height":15,"fixation_cross_color":"#111","fixation_cross_thickness":1,"border":true,"border_thickness":2,"border_color":"transparent","canvas_width":996,"canvas_height":480,"trial_type":"rdk","trial_index":36,"plugin_version":"2.0.0","time_elapsed":199413},{"rt":4723,"stimulus":"\n        <div class=\"response-container\">\n          <div class=\"response-instruction\">\n            <p>rotate the bar by using the left and right arrow keys.</p>\n            <p>when you are determined, press the Enter key.</p>\n          </div>\n          <div class=\"response-circle\">\n            <div class=\"response-fixation\"></div>\n            <div id=\"bar\" class=\"rotating-bar\"></div>\n          </div>\n        </div>\n      ","response":"Enter","trial_type":"html-keyboard-response","trial_index":37,"plugin_version":"2.1.0","time_elapsed":204139,"response_angle_css":408,"response_angle_rdk":42,"angular_error_target":-21,"angular_error_distractor":-118,"target_direction":63,"target_group":"black","reward_points":5},{"rt":null,"stimulus":"\n          <p style=\"color: #00FF00;\">Your reward: 5 points</p>\n        ","response":null,"trial_type":"html-keyboard-response","trial_index":38,"plugin_version":"2.1.0","time_elapsed":206142},{"rt":null,"stimulus":"<div class=\"fixation\" style=\"font-size: 60px;\">+</div>","response":null,"trial_type":"html-keyboard-response","trial_index":39,"plugin_version":"2.1.0","time_elapsed":207146},{"target_group":"black","condition_label":"B_H_vs_W_L_rep2","target_direction":34,"distractor_direction":136,"session_rotation":302,"rt":-1,"response":"","correct":false,"choices":"ALL_KEYS","correct_choice":["a"],"trial_duration":2000,"flip_timestamps":[],"response_ends_trial":false,"number_of_apertures":200,"number_of_dots":[1,1,1,1,1,1,1,1,1,1,1,1,1,1,1,1,1,1,1,1,1,1,1,1,1,1,1,1,1,1,1,1,1,1,1,1,1,1,1,1,1,1,1,1,1,1,1,1,1,1,1,1,1,1,1,1,1,1,1,1,1,1,1,1,1,1,1,1,1,1,1,1,1,1,1,1,1,1,1,1,1,1,1,1,1,1,1,1,1,1,1,1,1,1,1,1,1,1,1,1,1,1,1,1,1,1,1,1,1,1,1,1,1,1,1,1,1,1,1,1,1,1,1,1,1,1,1,1,1,1,1,1,1,1,1,1,1,1,1,1,1,1,1,1,1,1,1,1,1,1,1,1,1,1,1,1,1,1,1,1,1,1,1,1,1,1,1,1,1,1,1,1,1,1,1,1,1,1,1,1,1,1,1,1,1,1,1,1,1,1,1,1,1,1,1,1,1,1,1,1],"number_of_sets":1,"coherent_direction":[34,136,136,136,34,136,34,136,34,136,136,136,34,136,34,34,136,34,34,34,34,34,136,136,34,34,136,136,34,136,34,136,34,34,136,34,136,34,136,34,34,136,34,136,136,34,136,34,136,34,136,34,136,34,136,136,136,136,34,136,136,34,34,136,136,34,34,34,136,34,34,136,34,136,34,136,136,34,136,136,34,136,136,34,34,34,34,136,34,34,34,136,34,136,136,136,136,34,136,136,136,34,34,34,136,136,136,34,136,34,136,136,34,136,34,34,136,34,34,136,136,34,34,136,34,34,34,136,34,34,34,136,34,136,136,136,34,136,136,136,34,34,136,136,136,34,136,136,34,136,34,34,136,34,34,136,136,136,136,34,34,136,34,34,34,34,136,34,34,136,34,34,34,34,34,136,136,34,136,34,136,34,34,136,136,136,136,136,136,136,34,34,136,34,136,34,136,34,136,34],"coherence":1,"opposite_coherence":0,"dot_radius":2,"dot_side_length":1,"dot_life":-1,"move_distance":1,"aperture_width":300,"aperture_height":300,"dot_color":["black","white","white","white","black","white","black","white","black","white","white","white","black","white","black","black","white","black","black","black","black","black","white","white","black","black","white","white","black","white","black","white","black","black","white","black","white","black","white","black","black","white","black","white","white","black","white","black","white","black","white","black","white","black","white","white","white","white","black","white","white","black","black","white","white","black","black","black","white","black","black","white","black","white","black","white","white","black","white","white","black","white","white","black","black","black","black","white","black","black","black","white","black","white","white","white","white","black","white","white","white","black","black","black","white","white","white","black","white","black","white","white","black","white","black","black","white","black","black","white","white","black","black","white","black","black","black","white","black","black","black","white","black","white","white","white","black","white","white","white","black","black","white","white","white","black","white","white","black","white","black","black","white","black","black","white","white","white","white","black","black","white","black","black","black","black","white","black","black","white","black","black","black","black","black","white","white","black","white","black","white","black","black","white","white","white","white","white","white","white","black","black","white","black","white","black","white","black","white","black"],"dot_shape":"circle","background_color":"#AAA","RDK_type":3,"aperture_type":2,"reinsert_type":2,"frame_rate":8.40084388185654,"frame_rate_array":[10,7,14,10,9,8,8,9,7,9,8,8,8,9,8,8,8,9,9,8,9,8,8,8,9,7,9,8,8,9,8,8,25,3,9,4,8,10,9,8,8,8,9,8,8,8,8,8,8,8,8,8,8,9,8,9,8,8,9,9,9,8,9,8,8,8,9,8,9,8,8,9,8,8,8,8,9,8,9,8,9,8,8,9,8,8,8,9,8,8,9,8,9,7,9,8,8,9,8,9,8,8,8,9,8,9,8,9,8,8,8,8,8,8,9,8,9,7,9,8,9,8,9,8,8,8,9,8,9,8,9,9,8,8,9,8,8,9,8,9,8,9,8,8,9,8,9,8,8,9,8,8,9,8,8,8,9,8,8,8,9,8,9,8,9,7,8,9,8,8,9,9,9,8,8,8,9,8,8,9,8,8,8,9,8,9,8,8,8,8,9,8,9,8,9,8,8,9,8,8,8,8,9,8,8,9,8,8,9,8,8,9,8,9,8,8,9,8,9,8,8,8,9,8,9,8,9,9,8,8,8,9,8,8,9,8,8],"number_of_frames":237,"aperture_center_x":498,"aperture_center_y":240,"fixation_cross":true,"fixation_cross_width":15,"fixation_cross_height":15,"fixation_cross_color":"#111","fixation_cross_thickness":1,"border":true,"border_thickness":2,"border_color":"transparent","canvas_width":996,"canvas_height":480,"trial_type":"rdk","trial_index":40,"plugin_version":"2.0.0","time_elapsed":209156},{"rt":5615,"stimulus":"\n        <div class=\"response-container\">\n          <div class=\"response-instruction\">\n            <p>rotate the bar by using the left and right arrow keys.</p>\n            <p>when you are determined, press the Enter key.</p>\n          </div>\n          <div class=\"response-circle\">\n            <div class=\"response-fixation\"></div>\n            <div id=\"bar\" class=\"rotating-bar\"></div>\n          </div>\n        </div>\n      ","response":"Enter","trial_type":"html-keyboard-response","trial_index":41,"plugin_version":"2.1.0","time_elapsed":214773,"response_angle_css":459,"response_angle_rdk":351,"angular_error_target":-43,"angular_error_distractor":-145,"target_direction":34,"target_group":"black","reward_points":1},{"rt":null,"stimulus":"\n          <p style=\"color: #FF3333;\">Your reward: 1 points</p>\n        ","response":null,"trial_type":"html-keyboard-response","trial_index":42,"plugin_version":"2.1.0","time_elapsed":216774},{"rt":null,"stimulus":"<div class=\"fixation\" style=\"font-size: 60px;\">+</div>","response":null,"trial_type":"html-keyboard-response","trial_index":43,"plugin_version":"2.1.0","time_elapsed":217776},{"target_group":"white","condition_label":"W_H_vs_B_L_rep7","target_direction":334,"distractor_direction":230,"session_rotation":302,"rt":-1,"response":"","correct":false,"choices":"ALL_KEYS","correct_choice":["a"],"trial_duration":2000,"flip_timestamps":[],"response_ends_trial":false,"number_of_apertures":200,"number_of_dots":[1,1,1,1,1,1,1,1,1,1,1,1,1,1,1,1,1,1,1,1,1,1,1,1,1,1,1,1,1,1,1,1,1,1,1,1,1,1,1,1,1,1,1,1,1,1,1,1,1,1,1,1,1,1,1,1,1,1,1,1,1,1,1,1,1,1,1,1,1,1,1,1,1,1,1,1,1,1,1,1,1,1,1,1,1,1,1,1,1,1,1,1,1,1,1,1,1,1,1,1,1,1,1,1,1,1,1,1,1,1,1,1,1,1,1,1,1,1,1,1,1,1,1,1,1,1,1,1,1,1,1,1,1,1,1,1,1,1,1,1,1,1,1,1,1,1,1,1,1,1,1,1,1,1,1,1,1,1,1,1,1,1,1,1,1,1,1,1,1,1,1,1,1,1,1,1,1,1,1,1,1,1,1,1,1,1,1,1,1,1,1,1,1,1,1,1,1,1,1,1],"number_of_sets":1,"coherent_direction":[230,230,334,230,230,230,230,230,230,230,334,230,334,334,230,334,230,334,334,334,334,334,334,334,230,230,334,230,230,230,334,230,334,230,334,230,230,230,230,230,334,230,334,334,334,230,230,334,230,334,230,230,230,334,334,230,230,334,334,334,334,230,334,334,230,334,230,230,230,334,230,334,230,334,334,230,230,230,334,334,334,334,230,334,334,334,230,230,230,230,334,230,334,230,334,230,230,334,334,230,334,230,230,334,334,334,334,334,230,230,334,230,230,230,334,334,334,334,334,334,334,230,230,230,230,334,230,334,334,230,334,230,230,230,230,334,334,334,334,334,334,334,334,230,230,334,334,230,230,334,230,230,334,230,334,230,334,230,230,334,230,334,334,230,334,230,230,230,230,334,230,334,334,230,334,334,334,230,334,334,230,230,334,230,334,334,334,230,334,230,334,230,230,334,230,334,230,334,230,230],"coherence":1,"opposite_coherence":0,"dot_radius":2,"dot_side_length":1,"dot_life":-1,"move_distance":1,"aperture_width":300,"aperture_height":300,"dot_color":["black","black","white","black","black","black","black","black","black","black","white","black","white","white","black","white","black","white","white","white","white","white","white","white","black","black","white","black","black","black","white","black","white","black","white","black","black","black","black","black","white","black","white","white","white","black","black","white","black","white","black","black","black","white","white","black","black","white","white","white","white","black","white","white","black","white","black","black","black","white","black","white","black","white","white","black","black","black","white","white","white","white","black","white","white","white","black","black","black","black","white","black","white","black","white","black","black","white","white","black","white","black","black","white","white","white","white","white","black","black","white","black","black","black","white","white","white","white","white","white","white","black","black","black","black","white","black","white","white","black","white","black","black","black","black","white","white","white","white","white","white","white","white","black","black","white","white","black","black","white","black","black","white","black","white","black","white","black","black","white","black","white","white","black","white","black","black","black","black","white","black","white","white","black","white","white","white","black","white","white","black","black","white","black","white","white","white","black","white","black","white","black","black","white","black","white","black","white","black","black"],"dot_shape":"circle","background_color":"#AAA","RDK_type":3,"aperture_type":2,"reinsert_type":2,"frame_rate":8.376569037656903,"frame_rate_array":[7,9,9,9,9,8,9,9,8,8,8,9,8,9,9,8,8,8,8,9,8,8,8,8,9,7,9,8,9,9,8,8,9,8,8,8,9,8,9,8,8,8,8,9,8,9,7,9,9,8,8,9,8,8,9,8,9,8,8,8,9,8,9,8,8,9,8,8,8,9,8,8,9,8,8,8,9,8,8,8,9,8,8,8,9,8,8,8,9,8,9,9,8,8,9,8,8,9,9,8,9,8,8,8,9,9,8,8,8,9,9,8,8,8,8,8,8,9,9,8,8,7,9,9,9,8,8,8,8,9,8,9,8,8,8,8,9,8,8,7,9,9,9,9,8,8,9,9,8,9,8,8,9,9,8,9,9,8,8,9,8,8,8,9,9,8,8,8,9,8,9,8,8,8,9,8,9,9,9,8,9,8,8,8,9,8,9,8,7,10,8,8,8,8,9,8,8,9,8,10,7,8,9,8,8,8,8,9,8,9,8,9,9,8,9,9,8,8,8,9,8,9,8,8,8,9,9,8,9,8,9,9,8,9,8,8,9,8,9],"number_of_frames":239,"aperture_center_x":498,"aperture_center_y":240,"fixation_cross":true,"fixation_cross_width":15,"fixation_cross_height":15,"fixation_cross_color":"#111","fixation_cross_thickness":1,"border":true,"border_thickness":2,"border_color":"transparent","canvas_width":996,"canvas_height":480,"trial_type":"rdk","trial_index":44,"plugin_version":"2.0.0","time_elapsed":219787},{"rt":2059,"stimulus":"\n        <div class=\"response-container\">\n          <div class=\"response-instruction\">\n            <p>rotate the bar by using the left and right arrow keys.</p>\n            <p>when you are determined, press the Enter key.</p>\n          </div>\n          <div class=\"response-circle\">\n            <div class=\"response-fixation\"></div>\n            <div id=\"bar\" class=\"rotating-bar\"></div>\n          </div>\n        </div>\n      ","response":"Enter","trial_type":"html-keyboard-response","trial_index":45,"plugin_version":"2.1.0","time_elapsed":221848,"response_angle_css":232,"response_angle_rdk":218,"angular_error_target":-116,"angular_error_distractor":-12,"target_direction":334,"target_group":"white","reward_points":0},{"rt":null,"stimulus":"\n          <p style=\"color: #FF3333;\">Your reward: 0 points</p>\n        ","response":null,"trial_type":"html-keyboard-response","trial_index":46,"plugin_version":"2.1.0","time_elapsed":223851},{"rt":null,"stimulus":"<div class=\"fixation\" style=\"font-size: 60px;\">+</div>","response":null,"trial_type":"html-keyboard-response","trial_index":47,"plugin_version":"2.1.0","time_elapsed":224854},{"target_group":"white","condition_label":"W_H_vs_B_L_rep2","target_direction":321,"distractor_direction":228,"session_rotation":302,"rt":-1,"response":"","correct":false,"choices":"ALL_KEYS","correct_choice":["a"],"trial_duration":2000,"flip_timestamps":[],"response_ends_trial":false,"number_of_apertures":200,"number_of_dots":[1,1,1,1,1,1,1,1,1,1,1,1,1,1,1,1,1,1,1,1,1,1,1,1,1,1,1,1,1,1,1,1,1,1,1,1,1,1,1,1,1,1,1,1,1,1,1,1,1,1,1,1,1,1,1,1,1,1,1,1,1,1,1,1,1,1,1,1,1,1,1,1,1,1,1,1,1,1,1,1,1,1,1,1,1,1,1,1,1,1,1,1,1,1,1,1,1,1,1,1,1,1,1,1,1,1,1,1,1,1,1,1,1,1,1,1,1,1,1,1,1,1,1,1,1,1,1,1,1,1,1,1,1,1,1,1,1,1,1,1,1,1,1,1,1,1,1,1,1,1,1,1,1,1,1,1,1,1,1,1,1,1,1,1,1,1,1,1,1,1,1,1,1,1,1,1,1,1,1,1,1,1,1,1,1,1,1,1,1,1,1,1,1,1,1,1,1,1,1,1],"number_of_sets":1,"coherent_direction":[228,228,321,321,228,321,321,321,228,321,228,228,321,321,228,321,228,321,228,321,321,321,228,228,321,228,228,228,321,228,228,228,228,228,321,321,321,228,228,228,228,228,321,228,228,228,321,321,228,228,321,321,228,321,228,321,228,228,228,228,321,321,321,228,228,321,228,321,321,228,321,321,228,228,228,321,228,321,321,228,228,228,321,321,321,228,321,228,228,228,321,228,321,321,321,321,228,228,321,228,321,228,228,228,228,321,321,321,228,228,321,321,228,228,228,321,321,321,321,321,228,228,321,321,228,321,228,321,228,321,228,228,321,321,321,321,228,321,321,321,321,321,321,321,321,321,228,228,321,321,228,321,321,228,321,321,321,228,228,228,228,321,228,228,321,321,228,228,321,228,228,228,228,228,321,228,228,321,228,321,321,321,228,321,321,321,321,321,228,321,228,228,228,228,321,228,321,228,321,228],"coherence":1,"opposite_coherence":0,"dot_radius":2,"dot_side_length":1,"dot_life":-1,"move_distance":1,"aperture_width":300,"aperture_height":300,"dot_color":["black","black","white","white","black","white","white","white","black","white","black","black","white","white","black","white","black","white","black","white","white","white","black","black","white","black","black","black","white","black","black","black","black","black","white","white","white","black","black","black","black","black","white","black","black","black","white","white","black","black","white","white","black","white","black","white","black","black","black","black","white","white","white","black","black","white","black","white","white","black","white","white","black","black","black","white","black","white","white","black","black","black","white","white","white","black","white","black","black","black","white","black","white","white","white","white","black","black","white","black","white","black","black","black","black","white","white","white","black","black","white","white","black","black","black","white","white","white","white","white","black","black","white","white","black","white","black","white","black","white","black","black","white","white","white","white","black","white","white","white","white","white","white","white","white","white","black","black","white","white","black","white","white","black","white","white","white","black","black","black","black","white","black","black","white","white","black","black","white","black","black","black","black","black","white","black","black","white","black","white","white","white","black","white","white","white","white","white","black","white","black","black","black","black","white","black","white","black","white","black"],"dot_shape":"circle","background_color":"#AAA","RDK_type":3,"aperture_type":2,"reinsert_type":2,"frame_rate":8.369747899159664,"frame_rate_array":[9,7,8,9,9,8,8,9,8,8,8,9,8,8,9,8,8,9,8,8,8,8,9,8,8,8,9,8,8,8,8,9,9,8,9,8,8,8,8,8,8,9,8,8,8,8,8,8,8,9,9,23,2,8,8,8,10,8,8,9,8,9,8,8,8,9,8,8,8,8,9,9,9,8,8,9,8,8,7,9,8,9,8,9,8,8,8,8,8,8,9,8,8,8,9,8,9,9,8,8,8,8,8,8,9,9,8,9,9,8,8,8,8,9,8,9,8,8,8,9,8,9,9,8,9,8,8,8,8,8,8,8,9,8,8,8,9,8,8,8,7,9,9,9,8,8,8,8,8,9,8,8,8,9,9,9,8,8,8,8,9,8,8,9,9,8,9,8,9,8,8,8,8,9,9,8,8,9,8,9,9,8,9,8,8,9,8,8,9,8,8,8,8,9,8,8,8,9,8,9,8,9,8,9,9,8,9,8,8,8,8,8,9,9,8,8,9,9,8,8,9,8,9,9,8,8,8,9,9,8,8,8,9,8,9,9,8,8],"number_of_frames":238,"aperture_center_x":498,"aperture_center_y":240,"fixation_cross":true,"fixation_cross_width":15,"fixation_cross_height":15,"fixation_cross_color":"#111","fixation_cross_thickness":1,"border":true,"border_thickness":2,"border_color":"transparent","canvas_width":996,"canvas_height":480,"trial_type":"rdk","trial_index":48,"plugin_version":"2.0.0","time_elapsed":226861},{"rt":3780,"stimulus":"\n        <div class=\"response-container\">\n          <div class=\"response-instruction\">\n            <p>rotate the bar by using the left and right arrow keys.</p>\n            <p>when you are determined, press the Enter key.</p>\n          </div>\n          <div class=\"response-circle\">\n            <div class=\"response-fixation\"></div>\n            <div id=\"bar\" class=\"rotating-bar\"></div>\n          </div>\n        </div>\n      ","response":"Enter","trial_type":"html-keyboard-response","trial_index":49,"plugin_version":"2.1.0","time_elapsed":230644,"response_angle_css":231,"response_angle_rdk":219,"angular_error_target":-102,"angular_error_distractor":-9,"target_direction":321,"target_group":"white","reward_points":0},{"rt":null,"stimulus":"\n          <p style=\"color: #FF3333;\">Your reward: 0 points</p>\n        ","response":null,"trial_type":"html-keyboard-response","trial_index":50,"plugin_version":"2.1.0","time_elapsed":232647},{"rt":null,"stimulus":"<div class=\"fixation\" style=\"font-size: 60px;\">+</div>","response":null,"trial_type":"html-keyboard-response","trial_index":51,"plugin_version":"2.1.0","time_elapsed":233650},{"target_group":"white","condition_label":"W_H_vs_B_L_rep17","target_direction":319,"distractor_direction":218,"session_rotation":302,"rt":-1,"response":"","correct":false,"choices":"ALL_KEYS","correct_choice":["a"],"trial_duration":2000,"flip_timestamps":[],"response_ends_trial":false,"number_of_apertures":200,"number_of_dots":[1,1,1,1,1,1,1,1,1,1,1,1,1,1,1,1,1,1,1,1,1,1,1,1,1,1,1,1,1,1,1,1,1,1,1,1,1,1,1,1,1,1,1,1,1,1,1,1,1,1,1,1,1,1,1,1,1,1,1,1,1,1,1,1,1,1,1,1,1,1,1,1,1,1,1,1,1,1,1,1,1,1,1,1,1,1,1,1,1,1,1,1,1,1,1,1,1,1,1,1,1,1,1,1,1,1,1,1,1,1,1,1,1,1,1,1,1,1,1,1,1,1,1,1,1,1,1,1,1,1,1,1,1,1,1,1,1,1,1,1,1,1,1,1,1,1,1,1,1,1,1,1,1,1,1,1,1,1,1,1,1,1,1,1,1,1,1,1,1,1,1,1,1,1,1,1,1,1,1,1,1,1,1,1,1,1,1,1,1,1,1,1,1,1,1,1,1,1,1,1],"number_of_sets":1,"coherent_direction":[319,218,319,218,319,218,218,319,218,319,218,218,319,218,218,319,218,319,218,319,319,319,319,218,218,218,319,319,218,319,319,319,319,319,319,319,319,319,218,218,218,218,218,218,218,319,319,319,319,218,218,218,319,218,218,218,218,218,218,319,319,218,319,319,319,218,319,319,319,218,218,218,218,319,319,218,218,218,218,218,319,218,218,218,319,319,319,319,218,319,319,319,319,218,218,218,319,218,218,218,218,319,218,218,218,319,218,218,319,218,218,319,319,319,319,319,319,218,218,319,218,218,319,218,218,319,319,218,218,319,319,319,319,319,218,319,218,319,218,319,218,218,319,319,319,319,218,319,218,218,319,319,218,218,218,319,319,218,319,218,319,218,218,218,319,319,218,218,218,319,218,218,319,218,319,218,319,319,319,319,319,319,319,218,218,218,218,218,319,218,319,319,218,218,319,218,319,319,319,319],"coherence":1,"opposite_coherence":0,"dot_radius":2,"dot_side_length":1,"dot_life":-1,"move_distance":1,"aperture_width":300,"aperture_height":300,"dot_color":["white","black","white","black","white","black","black","white","black","white","black","black","white","black","black","white","black","white","black","white","white","white","white","black","black","black","white","white","black","white","white","white","white","white","white","white","white","white","black","black","black","black","black","black","black","white","white","white","white","black","black","black","white","black","black","black","black","black","black","white","white","black","white","white","white","black","white","white","white","black","black","black","black","white","white","black","black","black","black","black","white","black","black","black","white","white","white","white","black","white","white","white","white","black","black","black","white","black","black","black","black","white","black","black","black","white","black","black","white","black","black","white","white","white","white","white","white","black","black","white","black","black","white","black","black","white","white","black","black","white","white","white","white","white","black","white","black","white","black","white","black","black","white","white","white","white","black","white","black","black","white","white","black","black","black","white","white","black","white","black","white","black","black","black","white","white","black","black","black","white","black","black","white","black","white","black","white","white","white","white","white","white","white","black","black","black","black","black","white","black","white","white","black","black","white","black","white","white","white","white"],"dot_shape":"circle","background_color":"#AAA","RDK_type":3,"aperture_type":2,"reinsert_type":2,"frame_rate":8.390756302521009,"frame_rate_array":[10,8,14,10,9,9,8,7,8,8,8,8,9,8,8,9,8,9,9,8,8,8,8,9,8,9,8,8,8,9,8,8,8,9,8,8,9,9,8,9,8,8,9,9,8,8,9,8,9,8,8,8,8,8,8,9,9,8,9,8,8,9,7,8,9,8,9,8,9,9,8,8,8,9,9,8,8,9,8,10,6,9,8,8,8,9,8,8,8,9,8,9,8,8,8,9,9,8,8,9,8,9,8,8,8,9,8,8,9,9,8,8,9,8,8,8,8,8,9,8,9,9,8,9,8,9,7,9,8,9,8,8,8,8,9,9,9,8,8,8,8,8,9,8,9,8,8,9,8,9,8,8,8,9,9,8,9,8,8,9,8,9,8,9,8,9,8,8,9,8,8,9,8,9,8,8,8,8,9,9,8,8,8,9,8,9,8,9,8,9,8,8,9,9,8,9,8,7,9,8,8,8,9,9,8,9,9,8,8,8,8,8,9,8,8,9,8,8,9,7,9,9,8,8,9,8,7,9,8,9,8,8,8,9,8,9,8,9],"number_of_frames":238,"aperture_center_x":498,"aperture_center_y":240,"fixation_cross":true,"fixation_cross_width":15,"fixation_cross_height":15,"fixation_cross_color":"#111","fixation_cross_thickness":1,"border":true,"border_thickness":2,"border_color":"transparent","canvas_width":996,"canvas_height":480,"trial_type":"rdk","trial_index":52,"plugin_version":"2.0.0","time_elapsed":235661},{"rt":1848,"stimulus":"\n        <div class=\"response-container\">\n          <div class=\"response-instruction\">\n            <p>rotate the bar by using the left and right arrow keys.</p>\n            <p>when you are determined, press the Enter key.</p>\n          </div>\n          <div class=\"response-circle\">\n            <div class=\"response-fixation\"></div>\n            <div id=\"bar\" class=\"rotating-bar\"></div>\n          </div>\n        </div>\n      ","response":"Enter","trial_type":"html-keyboard-response","trial_index":53,"plugin_version":"2.1.0","time_elapsed":237510,"response_angle_css":221,"response_angle_rdk":229,"angular_error_target":-90,"angular_error_distractor":11,"target_direction":319,"target_group":"white","reward_points":0},{"rt":null,"stimulus":"\n          <p style=\"color: #FF3333;\">Your reward: 0 points</p>\n        ","response":null,"trial_type":"html-keyboard-response","trial_index":54,"plugin_version":"2.1.0","time_elapsed":239514},{"rt":null,"stimulus":"<div class=\"fixation\" style=\"font-size: 60px;\">+</div>","response":null,"trial_type":"html-keyboard-response","trial_index":55,"plugin_version":"2.1.0","time_elapsed":240520},{"target_group":"black","condition_label":"B_H_vs_W_L_rep13","target_direction":66,"distractor_direction":164,"session_rotation":302,"rt":-1,"response":"","correct":false,"choices":"ALL_KEYS","correct_choice":["a"],"trial_duration":2000,"flip_timestamps":[],"response_ends_trial":false,"number_of_apertures":200,"number_of_dots":[1,1,1,1,1,1,1,1,1,1,1,1,1,1,1,1,1,1,1,1,1,1,1,1,1,1,1,1,1,1,1,1,1,1,1,1,1,1,1,1,1,1,1,1,1,1,1,1,1,1,1,1,1,1,1,1,1,1,1,1,1,1,1,1,1,1,1,1,1,1,1,1,1,1,1,1,1,1,1,1,1,1,1,1,1,1,1,1,1,1,1,1,1,1,1,1,1,1,1,1,1,1,1,1,1,1,1,1,1,1,1,1,1,1,1,1,1,1,1,1,1,1,1,1,1,1,1,1,1,1,1,1,1,1,1,1,1,1,1,1,1,1,1,1,1,1,1,1,1,1,1,1,1,1,1,1,1,1,1,1,1,1,1,1,1,1,1,1,1,1,1,1,1,1,1,1,1,1,1,1,1,1,1,1,1,1,1,1,1,1,1,1,1,1,1,1,1,1,1,1],"number_of_sets":1,"coherent_direction":[164,164,164,164,66,164,66,66,66,164,164,164,164,164,164,66,164,66,164,66,164,66,164,66,66,164,66,164,164,164,164,164,164,66,164,164,164,66,66,164,66,164,164,164,66,66,66,66,66,66,66,66,66,164,66,66,66,66,66,66,66,66,66,164,164,66,164,164,66,66,66,66,164,66,164,164,164,164,66,164,66,164,66,164,66,66,164,66,164,164,164,164,164,66,164,66,164,164,66,66,164,66,66,164,164,66,66,66,66,164,66,164,66,164,66,66,66,164,66,164,66,66,164,164,66,164,66,66,164,164,164,164,66,164,164,66,164,164,164,164,66,66,66,164,66,164,164,164,66,66,164,66,164,66,164,66,66,66,164,164,164,66,164,66,66,66,164,66,164,164,66,66,164,164,66,66,66,164,164,66,66,66,164,164,164,66,66,66,66,164,164,66,164,66,164,164,164,66,164,66],"coherence":1,"opposite_coherence":0,"dot_radius":2,"dot_side_length":1,"dot_life":-1,"move_distance":1,"aperture_width":300,"aperture_height":300,"dot_color":["white","white","white","white","black","white","black","black","black","white","white","white","white","white","white","black","white","black","white","black","white","black","white","black","black","white","black","white","white","white","white","white","white","black","white","white","white","black","black","white","black","white","white","white","black","black","black","black","black","black","black","black","black","white","black","black","black","black","black","black","black","black","black","white","white","black","white","white","black","black","black","black","white","black","white","white","white","white","black","white","black","white","black","white","black","black","white","black","white","white","white","white","white","black","white","black","white","white","black","black","white","black","black","white","white","black","black","black","black","white","black","white","black","white","black","black","black","white","black","white","black","black","white","white","black","white","black","black","white","white","white","white","black","white","white","black","white","white","white","white","black","black","black","white","black","white","white","white","black","black","white","black","white","black","white","black","black","black","white","white","white","black","white","black","black","black","white","black","white","white","black","black","white","white","black","black","black","white","white","black","black","black","white","white","white","black","black","black","black","white","white","black","white","black","white","white","white","black","white","black"],"dot_shape":"circle","background_color":"#AAA","RDK_type":3,"aperture_type":2,"reinsert_type":2,"frame_rate":8.39406779661017,"frame_rate_array":[8,9,9,17,9,8,9,7,8,9,26,5,8,8,10,9,8,8,8,8,9,8,8,8,8,9,8,8,9,7,9,8,8,9,8,8,8,8,9,8,9,8,8,8,8,8,9,8,9,8,8,8,9,8,9,9,8,8,9,9,8,9,8,8,8,8,8,9,8,9,8,9,8,8,8,8,8,9,8,8,8,8,9,9,8,9,8,8,8,9,9,8,8,8,9,8,9,9,8,8,9,8,8,9,8,8,8,8,8,8,8,9,8,8,8,8,8,9,8,8,8,8,8,9,8,8,9,8,8,9,8,8,9,8,8,8,8,8,9,8,8,8,9,8,8,8,8,8,8,9,8,9,8,8,9,8,8,9,8,8,8,9,8,8,8,8,8,8,9,8,8,9,9,8,8,9,8,9,8,8,9,8,8,8,9,9,8,9,8,8,8,8,9,8,8,9,9,9,8,8,9,8,8,8,8,9,8,8,9,9,8,8,8,9,8,8,8,8,8,8,8,9,8,8,8,8,8,8,8,8,8,8,9,8,9,8],"number_of_frames":236,"aperture_center_x":498,"aperture_center_y":240,"fixation_cross":true,"fixation_cross_width":15,"fixation_cross_height":15,"fixation_cross_color":"#111","fixation_cross_thickness":1,"border":true,"border_thickness":2,"border_color":"transparent","canvas_width":996,"canvas_height":480,"trial_type":"rdk","trial_index":56,"plugin_version":"2.0.0","time_elapsed":242526},{"rt":2048,"stimulus":"\n        <div class=\"response-container\">\n          <div class=\"response-instruction\">\n            <p>rotate the bar by using the left and right arrow keys.</p>\n            <p>when you are determined, press the Enter key.</p>\n          </div>\n          <div class=\"response-circle\">\n            <div class=\"response-fixation\"></div>\n            <div id=\"bar\" class=\"rotating-bar\"></div>\n          </div>\n        </div>\n      ","response":"Enter","trial_type":"html-keyboard-response","trial_index":57,"plugin_version":"2.1.0","time_elapsed":244575,"response_angle_css":37,"response_angle_rdk":53,"angular_error_target":-13,"angular_error_distractor":-111,"target_direction":66,"target_group":"black","reward_points":7},{"rt":null,"stimulus":"\n          <p style=\"color: #00FF00;\">Your reward: 7 points</p>\n        ","response":null,"trial_type":"html-keyboard-response","trial_index":58,"plugin_version":"2.1.0","time_elapsed":246578},{"rt":null,"stimulus":"<div class=\"fixation\" style=\"font-size: 60px;\">+</div>","response":null,"trial_type":"html-keyboard-response","trial_index":59,"plugin_version":"2.1.0","time_elapsed":247581},{"target_group":"black","condition_label":"B_H_vs_W_L_rep16","target_direction":41,"distractor_direction":142,"session_rotation":302,"rt":-1,"response":"","correct":false,"choices":"ALL_KEYS","correct_choice":["a"],"trial_duration":2000,"flip_timestamps":[],"response_ends_trial":false,"number_of_apertures":200,"number_of_dots":[1,1,1,1,1,1,1,1,1,1,1,1,1,1,1,1,1,1,1,1,1,1,1,1,1,1,1,1,1,1,1,1,1,1,1,1,1,1,1,1,1,1,1,1,1,1,1,1,1,1,1,1,1,1,1,1,1,1,1,1,1,1,1,1,1,1,1,1,1,1,1,1,1,1,1,1,1,1,1,1,1,1,1,1,1,1,1,1,1,1,1,1,1,1,1,1,1,1,1,1,1,1,1,1,1,1,1,1,1,1,1,1,1,1,1,1,1,1,1,1,1,1,1,1,1,1,1,1,1,1,1,1,1,1,1,1,1,1,1,1,1,1,1,1,1,1,1,1,1,1,1,1,1,1,1,1,1,1,1,1,1,1,1,1,1,1,1,1,1,1,1,1,1,1,1,1,1,1,1,1,1,1,1,1,1,1,1,1,1,1,1,1,1,1,1,1,1,1,1,1],"number_of_sets":1,"coherent_direction":[41,41,142,41,142,142,41,41,41,142,142,41,142,142,41,142,41,142,142,142,142,41,41,142,41,41,142,41,41,142,41,142,41,142,142,41,41,142,142,41,142,142,142,41,142,41,41,142,41,142,142,142,41,41,142,142,142,142,41,41,142,41,142,41,41,142,142,142,142,41,41,142,41,142,142,142,142,41,41,142,41,142,142,41,142,142,142,41,142,142,41,41,142,41,142,41,41,142,142,142,41,142,142,142,41,142,41,142,41,142,142,41,41,41,41,41,41,142,41,41,142,41,142,41,142,41,142,41,41,41,41,142,142,142,142,142,41,41,142,41,41,41,142,41,142,142,41,41,41,41,142,41,41,41,41,41,41,142,142,142,142,142,41,142,142,41,142,142,41,142,41,41,41,41,142,41,142,142,142,41,41,142,41,142,142,142,41,41,142,41,41,41,142,41,142,41,41,142,41,41],"coherence":1,"opposite_coherence":0,"dot_radius":2,"dot_side_length":1,"dot_life":-1,"move_distance":1,"aperture_width":300,"aperture_height":300,"dot_color":["black","black","white","black","white","white","black","black","black","white","white","black","white","white","black","white","black","white","white","white","white","black","black","white","black","black","white","black","black","white","black","white","black","white","white","black","black","white","white","black","white","white","white","black","white","black","black","white","black","white","white","white","black","black","white","white","white","white","black","black","white","black","white","black","black","white","white","white","white","black","black","white","black","white","white","white","white","black","black","white","black","white","white","black","white","white","white","black","white","white","black","black","white","black","white","black","black","white","white","white","black","white","white","white","black","white","black","white","black","white","white","black","black","black","black","black","black","white","black","black","white","black","white","black","white","black","white","black","black","black","black","white","white","white","white","white","black","black","white","black","black","black","white","black","white","white","black","black","black","black","white","black","black","black","black","black","black","white","white","white","white","white","black","white","white","black","white","white","black","white","black","black","black","black","white","black","white","white","white","black","black","white","black","white","white","white","black","black","white","black","black","black","white","black","white","black","black","white","black","black"],"dot_shape":"circle","background_color":"#AAA","RDK_type":3,"aperture_type":2,"reinsert_type":2,"frame_rate":8.399159663865547,"frame_rate_array":[9,7,11,15,8,7,9,9,7,9,8,9,7,8,8,9,8,9,8,8,8,9,8,8,8,8,9,9,8,8,8,8,9,8,8,8,9,9,8,8,8,9,8,9,8,9,8,9,7,9,9,9,9,8,9,8,8,9,8,8,9,8,9,8,8,8,9,9,8,8,9,9,8,9,8,9,9,8,8,8,9,8,9,9,9,7,8,8,9,8,8,9,8,8,9,9,8,8,9,9,8,8,8,8,8,9,8,9,8,9,7,8,9,8,9,9,8,8,8,8,9,8,9,8,9,8,8,8,9,8,8,8,8,9,8,8,9,9,8,8,8,9,8,8,9,7,9,7,9,9,8,8,9,7,9,8,9,9,8,9,8,8,9,9,8,8,8,9,9,8,9,8,9,8,8,9,8,9,9,8,8,9,8,8,8,9,9,9,8,9,9,8,8,8,9,9,8,9,8,8,8,9,8,8,8,9,8,9,8,8,9,8,8,9,8,8,8,8,9,8,8,9,8,8,8,9,8,8,8,9,9,7,8,8,8,11,8,8],"number_of_frames":238,"aperture_center_x":498,"aperture_center_y":240,"fixation_cross":true,"fixation_cross_width":15,"fixation_cross_height":15,"fixation_cross_color":"#111","fixation_cross_thickness":1,"border":true,"border_thickness":2,"border_color":"transparent","canvas_width":996,"canvas_height":480,"trial_type":"rdk","trial_index":60,"plugin_version":"2.0.0","time_elapsed":249592},{"rt":2555,"stimulus":"\n        <div class=\"response-container\">\n          <div class=\"response-instruction\">\n            <p>rotate the bar by using the left and right arrow keys.</p>\n            <p>when you are determined, press the Enter key.</p>\n          </div>\n          <div class=\"response-circle\">\n            <div class=\"response-fixation\"></div>\n            <div id=\"bar\" class=\"rotating-bar\"></div>\n          </div>\n        </div>\n      ","response":"Enter","trial_type":"html-keyboard-response","trial_index":61,"plugin_version":"2.1.0","time_elapsed":252149,"response_angle_css":403,"response_angle_rdk":47,"angular_error_target":6,"angular_error_distractor":-95,"target_direction":41,"target_group":"black","reward_points":8},{"rt":null,"stimulus":"\n          <p style=\"color: #00FF00;\">Your reward: 8 points</p>\n        ","response":null,"trial_type":"html-keyboard-response","trial_index":62,"plugin_version":"2.1.0","time_elapsed":254152},{"rt":null,"stimulus":"<div class=\"fixation\" style=\"font-size: 60px;\">+</div>","response":null,"trial_type":"html-keyboard-response","trial_index":63,"plugin_version":"2.1.0","time_elapsed":255156},{"target_group":"white","condition_label":"W_H_vs_B_L_rep4","target_direction":344,"distractor_direction":213,"session_rotation":302,"rt":-1,"response":"","correct":false,"choices":"ALL_KEYS","correct_choice":["a"],"trial_duration":2000,"flip_timestamps":[],"response_ends_trial":false,"number_of_apertures":200,"number_of_dots":[1,1,1,1,1,1,1,1,1,1,1,1,1,1,1,1,1,1,1,1,1,1,1,1,1,1,1,1,1,1,1,1,1,1,1,1,1,1,1,1,1,1,1,1,1,1,1,1,1,1,1,1,1,1,1,1,1,1,1,1,1,1,1,1,1,1,1,1,1,1,1,1,1,1,1,1,1,1,1,1,1,1,1,1,1,1,1,1,1,1,1,1,1,1,1,1,1,1,1,1,1,1,1,1,1,1,1,1,1,1,1,1,1,1,1,1,1,1,1,1,1,1,1,1,1,1,1,1,1,1,1,1,1,1,1,1,1,1,1,1,1,1,1,1,1,1,1,1,1,1,1,1,1,1,1,1,1,1,1,1,1,1,1,1,1,1,1,1,1,1,1,1,1,1,1,1,1,1,1,1,1,1,1,1,1,1,1,1,1,1,1,1,1,1,1,1,1,1,1,1],"number_of_sets":1,"coherent_direction":[344,344,344,213,213,213,213,213,213,344,344,213,213,344,344,344,344,213,213,344,344,344,344,213,213,344,344,213,213,344,213,344,344,213,344,213,344,213,213,213,344,213,213,344,213,344,344,344,344,213,344,213,213,213,344,344,213,213,344,213,213,213,344,344,344,213,344,344,344,344,213,213,344,344,344,213,344,344,213,213,213,213,344,344,344,213,213,344,344,344,213,344,213,344,213,213,344,213,344,344,213,344,213,213,213,344,213,213,213,213,213,344,344,213,344,344,344,344,344,213,213,344,213,344,213,344,213,344,213,213,344,344,344,213,344,344,213,213,213,213,344,213,213,344,344,213,213,344,344,213,213,213,213,344,344,213,213,213,344,344,213,344,213,344,213,213,344,213,344,344,213,213,344,344,344,344,344,344,213,213,344,344,213,344,213,213,344,213,344,213,213,344,344,213,213,344,344,213,213,213],"coherence":1,"opposite_coherence":0,"dot_radius":2,"dot_side_length":1,"dot_life":-1,"move_distance":1,"aperture_width":300,"aperture_height":300,"dot_color":["white","white","white","black","black","black","black","black","black","white","white","black","black","white","white","white","white","black","black","white","white","white","white","black","black","white","white","black","black","white","black","white","white","black","white","black","white","black","black","black","white","black","black","white","black","white","white","white","white","black","white","black","black","black","white","white","black","black","white","black","black","black","white","white","white","black","white","white","white","white","black","black","white","white","white","black","white","white","black","black","black","black","white","white","white","black","black","white","white","white","black","white","black","white","black","black","white","black","white","white","black","white","black","black","black","white","black","black","black","black","black","white","white","black","white","white","white","white","white","black","black","white","black","white","black","white","black","white","black","black","white","white","white","black","white","white","black","black","black","black","white","black","black","white","white","black","black","white","white","black","black","black","black","white","white","black","black","black","white","white","black","white","black","white","black","black","white","black","white","white","black","black","white","white","white","white","white","white","black","black","white","white","black","white","black","black","white","black","white","black","black","white","white","black","black","white","white","black","black","black"],"dot_shape":"circle","background_color":"#AAA","RDK_type":3,"aperture_type":2,"reinsert_type":2,"frame_rate":8.390756302521009,"frame_rate_array":[9,8,11,2,11,8,9,9,8,7,9,8,8,10,8,8,9,9,8,7,9,8,8,9,10,8,8,8,8,9,9,9,7,9,8,8,7,9,8,8,8,8,32,1,7,9,10,8,8,8,8,8,8,8,8,8,9,9,8,9,9,8,8,8,8,9,8,9,9,8,9,8,8,9,8,8,9,8,8,8,9,8,7,9,8,9,9,7,9,9,8,8,9,8,9,8,8,8,9,8,8,9,8,8,8,8,8,8,7,9,8,9,8,8,9,8,9,8,8,8,8,9,8,8,9,9,8,9,8,8,8,9,9,9,8,8,9,8,8,8,9,8,8,8,8,9,8,8,9,8,9,8,9,8,8,9,8,9,8,8,8,8,8,9,8,8,8,8,9,9,8,8,8,8,9,8,9,8,8,8,9,8,8,8,8,9,8,8,9,8,9,8,9,8,8,8,9,9,8,9,8,8,9,8,8,9,9,8,9,8,8,8,9,8,9,8,8,8,9,8,8,8,8,8,8,8,9,8,9,8,9,8,9,7,8,8,9,9],"number_of_frames":238,"aperture_center_x":498,"aperture_center_y":240,"fixation_cross":true,"fixation_cross_width":15,"fixation_cross_height":15,"fixation_cross_color":"#111","fixation_cross_thickness":1,"border":true,"border_thickness":2,"border_color":"transparent","canvas_width":996,"canvas_height":480,"trial_type":"rdk","trial_index":64,"plugin_version":"2.0.0","time_elapsed":257166},{"rt":2162,"stimulus":"\n        <div class=\"response-container\">\n          <div class=\"response-instruction\">\n            <p>rotate the bar by using the left and right arrow keys.</p>\n            <p>when you are determined, press the Enter key.</p>\n          </div>\n          <div class=\"response-circle\">\n            <div class=\"response-fixation\"></div>\n            <div id=\"bar\" class=\"rotating-bar\"></div>\n          </div>\n        </div>\n      ","response":"Enter","trial_type":"html-keyboard-response","trial_index":65,"plugin_version":"2.1.0","time_elapsed":259330,"response_angle_css":223,"response_angle_rdk":227,"angular_error_target":-117,"angular_error_distractor":14,"target_direction":344,"target_group":"white","reward_points":0},{"rt":null,"stimulus":"\n          <p style=\"color: #FF3333;\">Your reward: 0 points</p>\n        ","response":null,"trial_type":"html-keyboard-response","trial_index":66,"plugin_version":"2.1.0","time_elapsed":261333},{"rt":null,"stimulus":"<div class=\"fixation\" style=\"font-size: 60px;\">+</div>","response":null,"trial_type":"html-keyboard-response","trial_index":67,"plugin_version":"2.1.0","time_elapsed":262336},{"target_group":"black","condition_label":"B_H_vs_W_L_rep10","target_direction":60,"distractor_direction":160,"session_rotation":302,"rt":-1,"response":"","correct":false,"choices":"ALL_KEYS","correct_choice":["a"],"trial_duration":2000,"flip_timestamps":[],"response_ends_trial":false,"number_of_apertures":200,"number_of_dots":[1,1,1,1,1,1,1,1,1,1,1,1,1,1,1,1,1,1,1,1,1,1,1,1,1,1,1,1,1,1,1,1,1,1,1,1,1,1,1,1,1,1,1,1,1,1,1,1,1,1,1,1,1,1,1,1,1,1,1,1,1,1,1,1,1,1,1,1,1,1,1,1,1,1,1,1,1,1,1,1,1,1,1,1,1,1,1,1,1,1,1,1,1,1,1,1,1,1,1,1,1,1,1,1,1,1,1,1,1,1,1,1,1,1,1,1,1,1,1,1,1,1,1,1,1,1,1,1,1,1,1,1,1,1,1,1,1,1,1,1,1,1,1,1,1,1,1,1,1,1,1,1,1,1,1,1,1,1,1,1,1,1,1,1,1,1,1,1,1,1,1,1,1,1,1,1,1,1,1,1,1,1,1,1,1,1,1,1,1,1,1,1,1,1,1,1,1,1,1,1],"number_of_sets":1,"coherent_direction":[60,160,60,160,160,160,160,60,60,160,160,60,160,60,160,160,160,60,160,160,160,60,60,60,160,160,60,60,160,60,160,60,60,160,60,160,160,60,60,60,160,60,160,160,160,60,60,60,160,160,60,60,60,160,160,60,60,160,160,160,160,60,60,60,60,160,60,60,60,60,160,60,160,60,160,160,60,160,60,60,160,160,160,60,60,60,60,60,160,60,60,160,160,160,60,60,60,160,60,160,160,60,60,160,160,160,160,160,160,160,160,160,160,60,60,160,160,60,160,160,160,60,160,60,60,160,160,60,60,160,60,160,60,60,160,160,160,60,60,60,60,160,160,160,160,60,160,160,60,160,60,160,60,60,60,60,60,60,60,60,160,60,60,160,60,160,160,160,160,160,160,160,160,60,160,160,60,160,160,60,160,160,160,60,60,60,160,60,60,160,60,60,60,60,160,60,60,60,60,60],"coherence":1,"opposite_coherence":0,"dot_radius":2,"dot_side_length":1,"dot_life":-1,"move_distance":1,"aperture_width":300,"aperture_height":300,"dot_color":["black","white","black","white","white","white","white","black","black","white","white","black","white","black","white","white","white","black","white","white","white","black","black","black","white","white","black","black","white","black","white","black","black","white","black","white","white","black","black","black","white","black","white","white","white","black","black","black","white","white","black","black","black","white","white","black","black","white","white","white","white","black","black","black","black","white","black","black","black","black","white","black","white","black","white","white","black","white","black","black","white","white","white","black","black","black","black","black","white","black","black","white","white","white","black","black","black","white","black","white","white","black","black","white","white","white","white","white","white","white","white","white","white","black","black","white","white","black","white","white","white","black","white","black","black","white","white","black","black","white","black","white","black","black","white","white","white","black","black","black","black","white","white","white","white","black","white","white","black","white","black","white","black","black","black","black","black","black","black","black","white","black","black","white","black","white","white","white","white","white","white","white","white","black","white","white","black","white","white","black","white","white","white","black","black","black","white","black","black","white","black","black","black","black","white","black","black","black","black","black"],"dot_shape":"circle","background_color":"#AAA","RDK_type":3,"aperture_type":2,"reinsert_type":2,"frame_rate":8.372384937238493,"frame_rate_array":[8,8,9,9,10,8,8,8,8,8,8,9,8,9,9,8,9,9,8,8,8,8,8,9,8,9,8,8,9,8,9,9,8,9,8,8,8,8,8,8,9,8,8,9,8,8,9,8,9,8,8,8,9,8,9,8,9,8,8,8,8,9,8,8,9,9,8,8,9,8,8,9,8,9,8,8,9,8,8,8,8,9,9,8,8,9,8,8,9,8,9,8,8,8,9,8,8,8,9,8,8,8,8,9,9,8,9,9,8,9,8,8,9,8,9,8,9,8,9,8,9,8,9,8,9,8,9,8,8,8,9,8,9,8,9,8,9,8,9,8,9,8,8,9,8,8,8,9,9,9,8,8,8,9,8,8,8,9,8,9,9,8,8,8,9,7,8,9,9,9,8,9,8,7,9,8,9,9,7,8,8,9,9,8,10,7,8,9,8,8,9,8,9,8,8,8,8,9,8,8,8,8,9,9,9,8,9,8,8,9,8,7,9,8,9,8,9,9,8,7,9,8,8,8,9,8,9,8,9,8,9,8,8,9,8,7,9,8,9],"number_of_frames":239,"aperture_center_x":498,"aperture_center_y":240,"fixation_cross":true,"fixation_cross_width":15,"fixation_cross_height":15,"fixation_cross_color":"#111","fixation_cross_thickness":1,"border":true,"border_thickness":2,"border_color":"transparent","canvas_width":996,"canvas_height":480,"trial_type":"rdk","trial_index":68,"plugin_version":"2.0.0","time_elapsed":264347},{"rt":1391,"stimulus":"\n        <div class=\"response-container\">\n          <div class=\"response-instruction\">\n            <p>rotate the bar by using the left and right arrow keys.</p>\n            <p>when you are determined, press the Enter key.</p>\n          </div>\n          <div class=\"response-circle\">\n            <div class=\"response-fixation\"></div>\n            <div id=\"bar\" class=\"rotating-bar\"></div>\n          </div>\n        </div>\n      ","response":"Enter","trial_type":"html-keyboard-response","trial_index":69,"plugin_version":"2.1.0","time_elapsed":265740,"response_angle_css":400,"response_angle_rdk":50,"angular_error_target":-10,"angular_error_distractor":-110,"target_direction":60,"target_group":"black","reward_points":8},{"rt":null,"stimulus":"\n          <p style=\"color: #00FF00;\">Your reward: 8 points</p>\n        ","response":null,"trial_type":"html-keyboard-response","trial_index":70,"plugin_version":"2.1.0","time_elapsed":267743},{"rt":null,"stimulus":"<div class=\"fixation\" style=\"font-size: 60px;\">+</div>","response":null,"trial_type":"html-keyboard-response","trial_index":71,"plugin_version":"2.1.0","time_elapsed":268746},{"target_group":"black","condition_label":"B_H_vs_W_L_rep3","target_direction":44,"distractor_direction":150,"session_rotation":302,"rt":-1,"response":"","correct":false,"choices":"ALL_KEYS","correct_choice":["a"],"trial_duration":2000,"flip_timestamps":[],"response_ends_trial":false,"number_of_apertures":200,"number_of_dots":[1,1,1,1,1,1,1,1,1,1,1,1,1,1,1,1,1,1,1,1,1,1,1,1,1,1,1,1,1,1,1,1,1,1,1,1,1,1,1,1,1,1,1,1,1,1,1,1,1,1,1,1,1,1,1,1,1,1,1,1,1,1,1,1,1,1,1,1,1,1,1,1,1,1,1,1,1,1,1,1,1,1,1,1,1,1,1,1,1,1,1,1,1,1,1,1,1,1,1,1,1,1,1,1,1,1,1,1,1,1,1,1,1,1,1,1,1,1,1,1,1,1,1,1,1,1,1,1,1,1,1,1,1,1,1,1,1,1,1,1,1,1,1,1,1,1,1,1,1,1,1,1,1,1,1,1,1,1,1,1,1,1,1,1,1,1,1,1,1,1,1,1,1,1,1,1,1,1,1,1,1,1,1,1,1,1,1,1,1,1,1,1,1,1,1,1,1,1,1,1],"number_of_sets":1,"coherent_direction":[150,150,44,44,44,44,150,44,44,150,150,150,150,150,44,44,44,150,44,150,150,150,150,150,150,44,150,150,44,44,150,44,44,44,44,44,44,44,44,150,150,150,44,44,150,150,44,150,150,44,150,150,150,150,44,150,44,150,44,150,44,44,150,150,150,150,44,150,150,150,150,44,44,44,150,150,150,44,44,44,150,44,150,44,44,150,150,44,150,150,150,44,44,150,150,44,44,44,44,44,150,150,150,44,44,150,150,150,44,150,150,150,150,44,150,150,150,44,44,150,44,44,150,44,150,150,44,150,44,150,44,150,44,44,44,44,44,150,150,44,150,44,150,150,44,150,44,44,44,44,44,150,150,44,44,44,44,44,44,150,150,44,150,150,44,44,44,44,150,44,44,150,150,44,44,44,150,150,150,44,150,44,150,150,150,44,150,150,150,150,150,44,44,44,44,44,44,150,44,44],"coherence":1,"opposite_coherence":0,"dot_radius":2,"dot_side_length":1,"dot_life":-1,"move_distance":1,"aperture_width":300,"aperture_height":300,"dot_color":["white","white","black","black","black","black","white","black","black","white","white","white","white","white","black","black","black","white","black","white","white","white","white","white","white","black","white","white","black","black","white","black","black","black","black","black","black","black","black","white","white","white","black","black","white","white","black","white","white","black","white","white","white","white","black","white","black","white","black","white","black","black","white","white","white","white","black","white","white","white","white","black","black","black","white","white","white","black","black","black","white","black","white","black","black","white","white","black","white","white","white","black","black","white","white","black","black","black","black","black","white","white","white","black","black","white","white","white","black","white","white","white","white","black","white","white","white","black","black","white","black","black","white","black","white","white","black","white","black","white","black","white","black","black","black","black","black","white","white","black","white","black","white","white","black","white","black","black","black","black","black","white","white","black","black","black","black","black","black","white","white","black","white","white","black","black","black","black","white","black","black","white","white","black","black","black","white","white","white","black","white","black","white","white","white","black","white","white","white","white","white","black","black","black","black","black","black","white","black","black"],"dot_shape":"circle","background_color":"#AAA","RDK_type":3,"aperture_type":2,"reinsert_type":2,"frame_rate":8.440677966101696,"frame_rate_array":[10,5,12,13,25,7,9,8,10,8,8,8,8,9,8,8,9,8,8,8,8,9,8,8,9,9,8,8,9,8,9,9,8,8,9,8,8,9,8,8,8,8,9,9,8,9,8,8,8,8,8,8,8,8,8,9,8,9,8,9,8,9,8,9,9,8,9,8,8,9,8,8,9,8,8,8,7,9,8,9,8,8,9,8,8,9,8,8,9,8,9,9,8,8,8,7,9,9,9,8,8,8,9,8,9,9,9,8,8,9,8,7,9,9,9,8,8,8,9,9,8,8,8,9,8,8,8,9,9,8,8,8,8,8,8,8,9,8,8,8,8,9,9,9,8,9,8,9,8,8,8,8,8,8,8,9,9,8,8,8,8,9,8,8,8,8,9,8,8,9,9,7,8,9,9,9,8,8,8,9,9,8,9,8,8,8,8,9,8,9,8,8,9,8,9,8,8,9,8,8,9,8,8,8,9,8,8,8,8,8,9,8,8,9,8,8,8,8,9,8,8,9,8,9,8,9,9,8,8,8,9,9,8,9,8,9],"number_of_frames":236,"aperture_center_x":498,"aperture_center_y":240,"fixation_cross":true,"fixation_cross_width":15,"fixation_cross_height":15,"fixation_cross_color":"#111","fixation_cross_thickness":1,"border":true,"border_thickness":2,"border_color":"transparent","canvas_width":996,"canvas_height":480,"trial_type":"rdk","trial_index":72,"plugin_version":"2.0.0","time_elapsed":270752},{"rt":1964,"stimulus":"\n        <div class=\"response-container\">\n          <div class=\"response-instruction\">\n            <p>rotate the bar by using the left and right arrow keys.</p>\n            <p>when you are determined, press the Enter key.</p>\n          </div>\n          <div class=\"response-circle\">\n            <div class=\"response-fixation\"></div>\n            <div id=\"bar\" class=\"rotating-bar\"></div>\n          </div>\n        </div>\n      ","response":"Enter","trial_type":"html-keyboard-response","trial_index":73,"plugin_version":"2.1.0","time_elapsed":272717,"response_angle_css":321,"response_angle_rdk":129,"angular_error_target":85,"angular_error_distractor":-21,"target_direction":44,"target_group":"black","reward_points":0},{"rt":null,"stimulus":"\n          <p style=\"color: #FF3333;\">Your reward: 0 points</p>\n        ","response":null,"trial_type":"html-keyboard-response","trial_index":74,"plugin_version":"2.1.0","time_elapsed":274719},{"rt":null,"stimulus":"<div class=\"fixation\" style=\"font-size: 60px;\">+</div>","response":null,"trial_type":"html-keyboard-response","trial_index":75,"plugin_version":"2.1.0","time_elapsed":275724},{"target_group":"black","condition_label":"B_H_vs_W_L_rep15","target_direction":40,"distractor_direction":137,"session_rotation":302,"rt":-1,"response":"","correct":false,"choices":"ALL_KEYS","correct_choice":["a"],"trial_duration":2000,"flip_timestamps":[],"response_ends_trial":false,"number_of_apertures":200,"number_of_dots":[1,1,1,1,1,1,1,1,1,1,1,1,1,1,1,1,1,1,1,1,1,1,1,1,1,1,1,1,1,1,1,1,1,1,1,1,1,1,1,1,1,1,1,1,1,1,1,1,1,1,1,1,1,1,1,1,1,1,1,1,1,1,1,1,1,1,1,1,1,1,1,1,1,1,1,1,1,1,1,1,1,1,1,1,1,1,1,1,1,1,1,1,1,1,1,1,1,1,1,1,1,1,1,1,1,1,1,1,1,1,1,1,1,1,1,1,1,1,1,1,1,1,1,1,1,1,1,1,1,1,1,1,1,1,1,1,1,1,1,1,1,1,1,1,1,1,1,1,1,1,1,1,1,1,1,1,1,1,1,1,1,1,1,1,1,1,1,1,1,1,1,1,1,1,1,1,1,1,1,1,1,1,1,1,1,1,1,1,1,1,1,1,1,1,1,1,1,1,1,1],"number_of_sets":1,"coherent_direction":[40,40,137,40,137,137,40,137,137,137,137,137,40,40,137,40,137,40,137,40,40,40,40,137,137,137,137,40,137,137,40,137,137,137,40,137,40,137,40,137,137,40,137,40,40,137,137,40,40,40,40,40,40,137,40,137,40,40,137,137,137,40,137,137,40,137,40,40,40,137,137,40,40,40,137,40,40,40,137,40,137,137,40,40,137,40,40,137,137,137,137,137,137,40,40,137,40,137,137,137,40,137,40,40,40,137,40,40,137,40,40,137,40,40,40,40,137,40,137,137,40,137,40,137,40,137,137,40,40,40,137,137,40,137,40,137,40,40,40,137,40,40,137,137,137,137,137,137,137,40,40,137,40,40,40,137,137,137,137,40,40,40,137,40,40,40,137,137,40,137,137,137,40,40,40,137,40,137,137,40,40,40,137,137,137,137,40,137,40,40,40,40,137,137,40,137,40,137,137,137],"coherence":1,"opposite_coherence":0,"dot_radius":2,"dot_side_length":1,"dot_life":-1,"move_distance":1,"aperture_width":300,"aperture_height":300,"dot_color":["black","black","white","black","white","white","black","white","white","white","white","white","black","black","white","black","white","black","white","black","black","black","black","white","white","white","white","black","white","white","black","white","white","white","black","white","black","white","black","white","white","black","white","black","black","white","white","black","black","black","black","black","black","white","black","white","black","black","white","white","white","black","white","white","black","white","black","black","black","white","white","black","black","black","white","black","black","black","white","black","white","white","black","black","white","black","black","white","white","white","white","white","white","black","black","white","black","white","white","white","black","white","black","black","black","white","black","black","white","black","black","white","black","black","black","black","white","black","white","white","black","white","black","white","black","white","white","black","black","black","white","white","black","white","black","white","black","black","black","white","black","black","white","white","white","white","white","white","white","black","black","white","black","black","black","white","white","white","white","black","black","black","white","black","black","black","white","white","black","white","white","white","black","black","black","white","black","white","white","black","black","black","white","white","white","white","black","white","black","black","black","black","white","white","black","white","black","white","white","white"],"dot_shape":"circle","background_color":"#AAA","RDK_type":3,"aperture_type":2,"reinsert_type":2,"frame_rate":8.333333333333334,"frame_rate_array":[10,6,8,9,9,8,8,8,8,9,8,10,6,9,7,9,9,9,8,8,8,8,8,8,9,8,9,8,9,8,8,8,8,8,9,8,9,8,9,8,10,7,10,7,9,9,7,10,8,8,8,8,8,9,8,8,8,8,10,8,8,8,9,8,8,8,9,8,9,7,9,8,10,7,6,8,9,9,8,8,9,8,9,8,9,8,11,6,9,8,8,9,8,8,9,8,8,9,8,8,9,10,7,8,8,8,9,9,9,7,9,9,6,8,9,8,8,9,8,8,9,8,8,9,8,8,9,8,8,9,9,8,8,9,8,8,8,9,8,10,7,8,8,9,8,8,8,9,8,9,8,8,8,8,9,8,9,8,8,8,8,9,8,8,8,9,8,8,8,9,8,8,9,8,8,9,8,8,8,8,8,9,9,8,10,7,9,8,9,8,8,8,9,9,8,8,8,9,8,9,8,8,8,9,8,9,8,8,9,8,8,8,9,8,9,8,8,9,8,8,8,8,8,9,9,13,8,4,8,9,9,9,8,9,8,9,8,9,8,8],"number_of_frames":240,"aperture_center_x":498,"aperture_center_y":240,"fixation_cross":true,"fixation_cross_width":15,"fixation_cross_height":15,"fixation_cross_color":"#111","fixation_cross_thickness":1,"border":true,"border_thickness":2,"border_color":"transparent","canvas_width":996,"canvas_height":480,"trial_type":"rdk","trial_index":76,"plugin_version":"2.0.0","time_elapsed":277733},{"rt":2481,"stimulus":"\n        <div class=\"response-container\">\n          <div class=\"response-instruction\">\n            <p>rotate the bar by using the left and right arrow keys.</p>\n            <p>when you are determined, press the Enter key.</p>\n          </div>\n          <div class=\"response-circle\">\n            <div class=\"response-fixation\"></div>\n            <div id=\"bar\" class=\"rotating-bar\"></div>\n          </div>\n        </div>\n      ","response":"Enter","trial_type":"html-keyboard-response","trial_index":77,"plugin_version":"2.1.0","time_elapsed":280215,"response_angle_css":420,"response_angle_rdk":30,"angular_error_target":-10,"angular_error_distractor":-107,"target_direction":40,"target_group":"black","reward_points":8},{"rt":null,"stimulus":"\n          <p style=\"color: #00FF00;\">Your reward: 8 points</p>\n        ","response":null,"trial_type":"html-keyboard-response","trial_index":78,"plugin_version":"2.1.0","time_elapsed":282218},{"rt":null,"stimulus":"<div class=\"fixation\" style=\"font-size: 60px;\">+</div>","response":null,"trial_type":"html-keyboard-response","trial_index":79,"plugin_version":"2.1.0","time_elapsed":283221},{"target_group":"black","condition_label":"B_H_vs_W_L_rep6","target_direction":47,"distractor_direction":162,"session_rotation":302,"rt":1439,"response":"ArrowRight","correct":false,"choices":"ALL_KEYS","correct_choice":["a"],"trial_duration":2000,"flip_timestamps":[],"response_ends_trial":false,"number_of_apertures":200,"number_of_dots":[1,1,1,1,1,1,1,1,1,1,1,1,1,1,1,1,1,1,1,1,1,1,1,1,1,1,1,1,1,1,1,1,1,1,1,1,1,1,1,1,1,1,1,1,1,1,1,1,1,1,1,1,1,1,1,1,1,1,1,1,1,1,1,1,1,1,1,1,1,1,1,1,1,1,1,1,1,1,1,1,1,1,1,1,1,1,1,1,1,1,1,1,1,1,1,1,1,1,1,1,1,1,1,1,1,1,1,1,1,1,1,1,1,1,1,1,1,1,1,1,1,1,1,1,1,1,1,1,1,1,1,1,1,1,1,1,1,1,1,1,1,1,1,1,1,1,1,1,1,1,1,1,1,1,1,1,1,1,1,1,1,1,1,1,1,1,1,1,1,1,1,1,1,1,1,1,1,1,1,1,1,1,1,1,1,1,1,1,1,1,1,1,1,1,1,1,1,1,1,1],"number_of_sets":1,"coherent_direction":[47,47,47,162,162,47,162,47,162,162,47,162,162,162,162,162,47,47,47,47,162,47,47,47,47,162,47,162,162,47,47,47,162,162,47,162,162,162,162,162,162,162,47,162,47,162,162,162,47,47,47,162,162,47,47,47,47,47,162,162,162,162,162,47,47,47,47,162,162,162,47,47,47,162,47,47,47,47,47,47,162,162,162,162,162,162,47,162,162,47,47,47,162,47,47,162,47,47,162,47,162,162,162,162,47,162,47,47,47,47,47,162,162,162,47,162,47,47,47,162,47,47,47,47,162,162,162,47,47,47,162,47,162,162,162,4