[{"rt":1070134,"stimulus":"Welcome to the experiment. Press any key to begin.","response":"g","trial_type":"html-keyboard-response","trial_index":0,"plugin_version":"2.1.0","time_elapsed":1070138},{"rt":4363,"stimulus":"\n        <div class=\"instructions-container\">\n          <h2>Instructions</h2>\n\n          <p>\n          In this experiment, you will see <strong>two Random Dot Kinematograms (RDKs)</strong> displayed simultaneously.\n          </p>\n\n          <p>\n          An RDK is a visual stimulus consisting of many small dots that move coherently in a single direction. \n          In this experiment, the dots will be either <strong>white</strong> or <strong>black</strong> \n          (see the short demo below for an example of an RDK stimulus).\n          </p>\n\n          <p>\n          On each trial, the two RDKs will move in different directions. \n          Your task is to decide <strong>which RDK appears to contain more dots</strong>.\n          </p>\n\n          <p>\n          The RDK that you judge to have more dots is called the <strong>target RDK</strong>. \n          For example, if the white RDK appears to have more dots than the black RDK, \n          you should report the motion direction of the white RDK.\n          </p>\n\n          <p>\n          After viewing the RDKs, you will rotate a bar to indicate the perceived direction of the target RDK \n          using the <strong>left</strong> and <strong>right arrow keys</strong>. \n          Press <strong>Enter</strong> when you are satisfied with your response.\n          </p>\n\n          <p>\n          You will receive points based on the <strong>accuracy of your response</strong>, \n          and your final <strong>bonus reward</strong> may depend on your overall performance. \n          Please try to respond as accurately as possible.\n          </p>\n\n          <p>\n          You will first complete <strong>three practice trials</strong>. \n          Press the <strong>Enter</strong> key to start the practice phase.\n          </p>\n\n          <canvas id=\"instruction-demo-rdk\" width=\"300\" height=\"300\"style=\"display:block;margin:12px auto; border-radius: 50%;\"></canvas>\n        </div>\n      ","response":"Enter","trial_type":"html-keyboard-response","trial_index":1,"plugin_version":"2.1.0","time_elapsed":1074503},{"rt":null,"stimulus":"<div class=\"fixation\" style=\"font-size: 60px;\">+</div>","response":null,"trial_type":"html-keyboard-response","trial_index":2,"plugin_version":"2.1.0","time_elapsed":1075513},{"target_group":"black","target_index":1,"condition_label":"B_H_vs_W_L","rt":-1,"response":"","correct":false,"choices":"ALL_KEYS","correct_choice":["a"],"trial_duration":2000,"flip_timestamps":[],"response_ends_trial":false,"number_of_apertures":2,"number_of_dots":[50,100],"number_of_sets":1,"coherent_direction":[10,100],"coherence":1,"opposite_coherence":0,"dot_radius":2,"dot_side_length":1,"dot_life":-1,"move_distance":1,"aperture_width":300,"aperture_height":300,"dot_color":["white","black"],"dot_shape":"circle","background_color":"#AAA","RDK_type":3,"aperture_type":2,"reinsert_type":2,"frame_rate":16.56198347107438,"frame_rate_array":[5,7,14,17,17,16,17,18,18,18,17,16,18,16,17,16,18,16,17,16,16,17,17,16,16,18,16,18,16,17,16,16,16,17,17,17,18,16,17,17,14,16,17,17,16,17,17,17,19,18,15,18,16,16,18,16,15,18,16,17,18,17,17,17,15,16,18,16,16,18,16,16,18,16,16,17,17,16,18,16,17,18,17,16,17,17,17,17,17,17,17,16,17,17,16,16,17,16,18,16,15,17,17,20,15,18,17,16,18,17,15,18,17,16,18,17,15,18,16,16,17],"number_of_frames":121,"aperture_center_x":683,"aperture_center_y":384,"fixation_cross":true,"fixation_cross_width":15,"fixation_cross_height":15,"fixation_cross_color":"#111","fixation_cross_thickness":1,"border":true,"border_thickness":2,"border_color":"transparent","canvas_width":1366,"canvas_height":768,"trial_type":"rdk","trial_index":3,"plugin_version":"2.0.0","time_elapsed":1077530,"target_direction":100,"distractor_direction":10},{"rt":3289,"stimulus":"\n        <div class=\"response-container\">\n          <div class=\"response-instruction\">\n            <p>rotate the bar by using the left and right arrow keys.</p>\n            <p>when you are determined, press the Enter key.</p>\n          </div>\n          <div class=\"response-circle\">\n            <div class=\"response-fixation\"></div>\n            <div id=\"bar\" class=\"rotating-bar\"></div>\n          </div>\n        </div>\n      ","response":"Enter","trial_type":"html-keyboard-response","trial_index":4,"plugin_version":"2.1.0","time_elapsed":1080821,"response_angle_css":318,"response_angle_rdk":132,"angular_error_target":32,"angular_error_distractor":122,"target_direction":100,"target_group":"black","reward_points":3},{"rt":null,"stimulus":"\n          <p style=\"color: #00FF00;\">Your reward: 3 points</p>\n        ","response":null,"trial_type":"html-keyboard-response","trial_index":5,"plugin_version":"2.1.0","time_elapsed":1082832},{"rt":null,"stimulus":"<div class=\"fixation\" style=\"font-size: 60px;\">+</div>","response":null,"trial_type":"html-keyboard-response","trial_index":6,"plugin_version":"2.1.0","time_elapsed":1083852},{"target_group":"white","target_index":0,"condition_label":"W_H_vs_B_L","rt":-1,"response":"","correct":false,"choices":"ALL_KEYS","correct_choice":["a"],"trial_duration":2000,"flip_timestamps":[],"response_ends_trial":false,"number_of_apertures":2,"number_of_dots":[100,50],"number_of_sets":1,"coherent_direction":[150,30],"coherence":1,"opposite_coherence":0,"dot_radius":2,"dot_side_length":1,"dot_life":-1,"move_distance":1,"aperture_width":300,"aperture_height":300,"dot_color":["white","black"],"dot_shape":"circle","background_color":"#AAA","RDK_type":3,"aperture_type":2,"reinsert_type":2,"frame_rate":16.619834710743802,"frame_rate_array":[1,11,17,17,17,17,17,17,17,17,17,17,17,16,17,17,16,17,16,16,17,17,17,17,17,17,17,17,17,17,17,17,17,17,17,16,17,17,17,16,17,17,17,17,17,16,17,16,17,17,17,16,17,17,17,17,16,17,17,16,17,17,17,17,17,17,17,17,17,17,17,17,18,15,16,17,17,16,17,16,17,17,17,17,17,18,17,17,16,17,17,16,17,17,17,16,17,17,17,16,17,17,16,17,16,17,17,17,17,16,17,17,19,15,16,17,17,16,17,17,16],"number_of_frames":121,"aperture_center_x":683,"aperture_center_y":384,"fixation_cross":true,"fixation_cross_width":15,"fixation_cross_height":15,"fixation_cross_color":"#111","fixation_cross_thickness":1,"border":true,"border_thickness":2,"border_color":"transparent","canvas_width":1366,"canvas_height":768,"trial_type":"rdk","trial_index":7,"plugin_version":"2.0.0","time_elapsed":1085860,"target_direction":150,"distractor_direction":30},{"rt":4372,"stimulus":"\n        <div class=\"response-container\">\n          <div class=\"response-instruction\">\n            <p>rotate the bar by using the left and right arrow keys.</p>\n            <p>when you are determined, press the Enter key.</p>\n          </div>\n          <div class=\"response-circle\">\n            <div class=\"response-fixation\"></div>\n            <div id=\"bar\" class=\"rotating-bar\"></div>\n          </div>\n        </div>\n      ","response":"Enter","trial_type":"html-keyboard-response","trial_index":8,"plugin_version":"2.1.0","time_elapsed":1090234,"response_angle_css":84,"response_angle_rdk":6,"angular_error_target":-144,"angular_error_distractor":-24,"target_direction":150,"target_group":"white","reward_points":0},{"rt":null,"stimulus":"\n          <p style=\"color: #FF3333;\">Your reward: 0 points</p>\n        ","response":null,"trial_type":"html-keyboard-response","trial_index":9,"plugin_version":"2.1.0","time_elapsed":1092241},{"rt":null,"stimulus":"<div class=\"fixation\" style=\"font-size: 60px;\">+</div>","response":null,"trial_type":"html-keyboard-response","trial_index":10,"plugin_version":"2.1.0","time_elapsed":1093261},{"target_group":"black","target_index":1,"condition_label":"B_H_vs_W_L","rt":-1,"response":"","correct":false,"choices":"ALL_KEYS","correct_choice":["a"],"trial_duration":2000,"flip_timestamps":[],"response_ends_trial":false,"number_of_apertures":2,"number_of_dots":[50,100],"number_of_sets":1,"coherent_direction":[270,180],"coherence":1,"opposite_coherence":0,"dot_radius":2,"dot_side_length":1,"dot_life":-1,"move_distance":1,"aperture_width":300,"aperture_height":300,"dot_color":["white","black"],"dot_shape":"circle","background_color":"#AAA","RDK_type":3,"aperture_type":2,"reinsert_type":2,"frame_rate":16.716666666666665,"frame_rate_array":[8,17,17,17,17,18,17,17,16,16,17,17,17,17,17,18,17,17,17,17,16,16,16,17,17,17,17,17,17,16,17,17,17,17,17,17,16,17,17,16,17,17,17,17,17,16,16,17,17,17,17,17,17,17,17,19,17,15,17,16,17,16,18,18,14,17,19,16,15,16,16,17,16,19,17,14,18,17,19,12,18,17,17,15,16,17,19,17,15,19,17,15,16,17,17,17,17,18,16,17,16,17,18,18,15,18,16,16,17,17,19,16,16,16,17,17,18,16,16,17],"number_of_frames":120,"aperture_center_x":683,"aperture_center_y":384,"fixation_cross":true,"fixation_cross_width":15,"fixation_cross_height":15,"fixation_cross_color":"#111","fixation_cross_thickness":1,"border":true,"border_thickness":2,"border_color":"transparent","canvas_width":1366,"canvas_height":768,"trial_type":"rdk","trial_index":11,"plugin_version":"2.0.0","time_elapsed":1095271,"target_direction":180,"distractor_direction":270},{"rt":2845,"stimulus":"\n        <div class=\"response-container\">\n          <div class=\"response-instruction\">\n            <p>rotate the bar by using the left and right arrow keys.</p>\n            <p>when you are determined, press the Enter key.</p>\n          </div>\n          <div class=\"response-circle\">\n            <div class=\"response-fixation\"></div>\n            <div id=\"bar\" class=\"rotating-bar\"></div>\n          </div>\n        </div>\n      ","response":"Enter","trial_type":"html-keyboard-response","trial_index":12,"plugin_version":"2.1.0","time_elapsed":1098117,"response_angle_css":491,"response_angle_rdk":319,"angular_error_target":139,"angular_error_distractor":49,"target_direction":180,"target_group":"black","reward_points":0},{"rt":null,"stimulus":"\n          <p style=\"color: #FF3333;\">Your reward: 0 points</p>\n        ","response":null,"trial_type":"html-keyboard-response","trial_index":13,"plugin_version":"2.1.0","time_elapsed":1100127},{"rt":4277,"stimulus":"\n        <div class=\"instructions-container\">\n          <h2>End of Practice</h2>\n          <p>You have completed the practice trials.</p>\n          <p>Press <strong>Enter</strong> key to begin the main experiment.</p>\n        </div>\n      ","response":"Enter","trial_type":"html-keyboard-response","trial_index":14,"plugin_version":"2.1.0","time_elapsed":1104406},{"rt":null,"stimulus":"<div class=\"fixation\" style=\"font-size: 60px;\">+</div>","response":null,"trial_type":"html-keyboard-response","trial_index":15,"plugin_version":"2.1.0","time_elapsed":1105413},{"target_group":"white","condition_label":"W_H_vs_B_L_rep20","target_direction":294,"distractor_direction":195,"session_rotation":275,"rt":-1,"response":"","correct":false,"choices":"ALL_KEYS","correct_choice":["a"],"trial_duration":2000,"flip_timestamps":[],"response_ends_trial":false,"number_of_apertures":200,"number_of_dots":[1,1,1,1,1,1,1,1,1,1,1,1,1,1,1,1,1,1,1,1,1,1,1,1,1,1,1,1,1,1,1,1,1,1,1,1,1,1,1,1,1,1,1,1,1,1,1,1,1,1,1,1,1,1,1,1,1,1,1,1,1,1,1,1,1,1,1,1,1,1,1,1,1,1,1,1,1,1,1,1,1,1,1,1,1,1,1,1,1,1,1,1,1,1,1,1,1,1,1,1,1,1,1,1,1,1,1,1,1,1,1,1,1,1,1,1,1,1,1,1,1,1,1,1,1,1,1,1,1,1,1,1,1,1,1,1,1,1,1,1,1,1,1,1,1,1,1,1,1,1,1,1,1,1,1,1,1,1,1,1,1,1,1,1,1,1,1,1,1,1,1,1,1,1,1,1,1,1,1,1,1,1,1,1,1,1,1,1,1,1,1,1,1,1,1,1,1,1,1,1],"number_of_sets":1,"coherent_direction":[195,294,294,294,294,195,294,294,294,294,195,195,294,294,195,195,195,195,195,195,294,294,294,294,294,294,195,195,195,294,195,195,294,294,195,294,195,195,195,294,195,195,294,195,294,294,195,195,195,294,294,294,294,195,294,195,195,195,294,195,294,294,294,195,195,294,195,294,294,195,195,195,195,195,294,294,294,294,294,294,195,294,294,294,294,294,294,294,195,195,294,195,294,294,195,294,294,195,294,195,294,294,294,294,195,195,294,294,294,195,294,294,294,195,195,294,294,294,294,195,195,294,294,195,195,294,195,195,294,294,195,195,195,195,294,294,195,294,195,294,195,195,294,195,294,294,195,195,294,195,195,195,294,294,195,195,195,195,195,195,195,195,195,294,294,195,294,294,294,195,195,195,195,195,195,195,294,294,294,195,195,195,195,195,294,195,294,294,294,195,195,195,195,294,294,195,294,195,195,294],"coherence":1,"opposite_coherence":0,"dot_radius":2,"dot_side_length":1,"dot_life":-1,"move_distance":1,"aperture_width":300,"aperture_height":300,"dot_color":["black","white","white","white","white","black","white","white","white","white","black","black","white","white","black","black","black","black","black","black","white","white","white","white","white","white","black","black","black","white","black","black","white","white","black","white","black","black","black","white","black","black","white","black","white","white","black","black","black","white","white","white","white","black","white","black","black","black","white","black","white","white","white","black","black","white","black","white","white","black","black","black","black","black","white","white","white","white","white","white","black","white","white","white","white","white","white","white","black","black","white","black","white","white","black","white","white","black","white","black","white","white","white","white","black","black","white","white","white","black","white","white","white","black","black","white","white","white","white","black","black","white","white","black","black","white","black","black","white","white","black","black","black","black","white","white","black","white","black","white","black","black","white","black","white","white","black","black","white","black","black","black","white","white","black","black","black","black","black","black","black","black","black","white","white","black","white","white","white","black","black","black","black","black","black","black","white","white","white","black","black","black","black","black","white","black","white","white","white","black","black","black","black","white","white","black","white","black","black","white"],"dot_shape":"circle","background_color":"#AAA","RDK_type":3,"aperture_type":2,"reinsert_type":2,"frame_rate":16.570247933884296,"frame_rate_array":[6,7,16,17,17,17,17,16,17,17,17,17,17,17,17,17,16,17,17,17,16,17,17,17,17,17,17,17,17,17,17,16,17,17,16,16,18,16,17,17,17,21,11,17,16,17,17,17,17,16,17,17,17,17,18,15,17,17,17,17,16,17,17,17,16,17,16,17,17,16,17,17,17,16,17,17,16,16,17,16,18,16,17,17,17,16,17,17,17,17,16,17,16,17,17,17,16,17,17,16,17,17,17,17,17,17,16,15,17,17,16,18,16,16,17,17,17,16,18,17,16],"number_of_frames":121,"aperture_center_x":683,"aperture_center_y":384,"fixation_cross":true,"fixation_cross_width":15,"fixation_cross_height":15,"fixation_cross_color":"#111","fixation_cross_thickness":1,"border":true,"border_thickness":2,"border_color":"transparent","canvas_width":1366,"canvas_height":768,"trial_type":"rdk","trial_index":16,"plugin_version":"2.0.0","time_elapsed":1107426},{"rt":3271,"stimulus":"\n        <div class=\"response-container\">\n          <div class=\"response-instruction\">\n            <p>rotate the bar by using the left and right arrow keys.</p>\n            <p>when you are determined, press the Enter key.</p>\n          </div>\n          <div class=\"response-circle\">\n            <div class=\"response-fixation\"></div>\n            <div id=\"bar\" class=\"rotating-bar\"></div>\n          </div>\n        </div>\n      ","response":"Enter","trial_type":"html-keyboard-response","trial_index":17,"plugin_version":"2.1.0","time_elapsed":1110697,"response_angle_css":123,"response_angle_rdk":327,"angular_error_target":33,"angular_error_distractor":132,"target_direction":294,"target_group":"white","reward_points":3},{"rt":null,"stimulus":"\n          <p style=\"color: #00FF00;\">Your reward: 3 points</p>\n        ","response":null,"trial_type":"html-keyboard-response","trial_index":18,"plugin_version":"2.1.0","time_elapsed":1112702},{"rt":null,"stimulus":"<div class=\"fixation\" style=\"font-size: 60px;\">+</div>","response":null,"trial_type":"html-keyboard-response","trial_index":19,"plugin_version":"2.1.0","time_elapsed":1113712},{"target_group":"white","condition_label":"W_H_vs_B_L_rep16","target_direction":295,"distractor_direction":185,"session_rotation":275,"rt":-1,"response":"","correct":false,"choices":"ALL_KEYS","correct_choice":["a"],"trial_duration":2000,"flip_timestamps":[],"response_ends_trial":false,"number_of_apertures":200,"number_of_dots":[1,1,1,1,1,1,1,1,1,1,1,1,1,1,1,1,1,1,1,1,1,1,1,1,1,1,1,1,1,1,1,1,1,1,1,1,1,1,1,1,1,1,1,1,1,1,1,1,1,1,1,1,1,1,1,1,1,1,1,1,1,1,1,1,1,1,1,1,1,1,1,1,1,1,1,1,1,1,1,1,1,1,1,1,1,1,1,1,1,1,1,1,1,1,1,1,1,1,1,1,1,1,1,1,1,1,1,1,1,1,1,1,1,1,1,1,1,1,1,1,1,1,1,1,1,1,1,1,1,1,1,1,1,1,1,1,1,1,1,1,1,1,1,1,1,1,1,1,1,1,1,1,1,1,1,1,1,1,1,1,1,1,1,1,1,1,1,1,1,1,1,1,1,1,1,1,1,1,1,1,1,1,1,1,1,1,1,1,1,1,1,1,1,1,1,1,1,1,1,1],"number_of_sets":1,"coherent_direction":[295,185,295,185,185,295,185,295,295,295,185,185,295,295,185,295,295,295,185,295,295,185,185,185,295,295,185,295,295,185,185,295,295,185,185,295,295,185,295,185,185,185,295,185,185,185,295,185,295,295,185,295,295,295,295,295,185,185,295,185,185,185,185,185,295,295,185,295,295,295,185,295,295,295,185,295,185,295,185,295,185,295,185,185,185,185,185,185,295,295,295,185,295,295,295,185,185,295,185,295,295,295,295,185,185,185,295,295,295,295,295,295,185,295,185,185,185,295,295,295,185,295,185,295,295,185,185,295,185,185,185,185,185,295,185,185,295,185,295,185,185,295,295,295,185,185,185,295,185,295,295,295,185,185,295,295,295,185,295,185,295,185,185,185,295,295,185,295,295,295,185,295,295,185,295,185,185,185,295,185,185,295,185,185,185,185,185,295,295,185,185,295,185,185,295,185,185,185,295,295],"coherence":1,"opposite_coherence":0,"dot_radius":2,"dot_side_length":1,"dot_life":-1,"move_distance":1,"aperture_width":300,"aperture_height":300,"dot_color":["white","black","white","black","black","white","black","white","white","white","black","black","white","white","black","white","white","white","black","white","white","black","black","black","white","white","black","white","white","black","black","white","white","black","black","white","white","black","white","black","black","black","white","black","black","black","white","black","white","white","black","white","white","white","white","white","black","black","white","black","black","black","black","black","white","white","black","white","white","white","black","white","white","white","black","white","black","white","black","white","black","white","black","black","black","black","black","black","white","white","white","black","white","white","white","black","black","white","black","white","white","white","white","black","black","black","white","white","white","white","white","white","black","white","black","black","black","white","white","white","black","white","black","white","white","black","black","white","black","black","black","black","black","white","black","black","white","black","white","black","black","white","white","white","black","black","black","white","black","white","white","white","black","black","white","white","white","black","white","black","white","black","black","black","white","white","black","white","white","white","black","white","white","black","white","black","black","black","white","black","black","white","black","black","black","black","black","white","white","black","black","white","black","black","white","black","black","black","white","white"],"dot_shape":"circle","background_color":"#AAA","RDK_type":3,"aperture_type":2,"reinsert_type":2,"frame_rate":16.56198347107438,"frame_rate_array":[4,17,17,17,16,17,17,16,17,17,17,16,17,16,17,17,17,16,17,16,17,17,17,17,17,17,17,16,17,16,18,16,17,16,21,12,17,17,16,16,17,17,16,18,16,17,16,17,18,16,17,16,17,16,17,16,17,16,17,16,17,17,17,16,17,17,16,17,17,16,17,16,16,17,16,17,17,16,17,16,17,17,16,17,16,17,17,16,17,17,17,16,17,17,16,17,17,17,17,17,17,17,17,17,16,16,17,16,17,17,16,16,18,16,16,17,16,17,17,17,16],"number_of_frames":121,"aperture_center_x":683,"aperture_center_y":384,"fixation_cross":true,"fixation_cross_width":15,"fixation_cross_height":15,"fixation_cross_color":"#111","fixation_cross_thickness":1,"border":true,"border_thickness":2,"border_color":"transparent","canvas_width":1366,"canvas_height":768,"trial_type":"rdk","trial_index":20,"plugin_version":"2.0.0","time_elapsed":1115722},{"rt":1554,"stimulus":"\n        <div class=\"response-container\">\n          <div class=\"response-instruction\">\n            <p>rotate the bar by using the left and right arrow keys.</p>\n            <p>when you are determined, press the Enter key.</p>\n          </div>\n          <div class=\"response-circle\">\n            <div class=\"response-fixation\"></div>\n            <div id=\"bar\" class=\"rotating-bar\"></div>\n          </div>\n        </div>\n      ","response":"Enter","trial_type":"html-keyboard-response","trial_index":21,"plugin_version":"2.1.0","time_elapsed":1117277,"response_angle_css":141,"response_angle_rdk":309,"angular_error_target":14,"angular_error_distractor":124,"target_direction":295,"target_group":"white","reward_points":7},{"rt":null,"stimulus":"\n          <p style=\"color: #00FF00;\">Your reward: 7 points</p>\n        ","response":null,"trial_type":"html-keyboard-response","trial_index":22,"plugin_version":"2.1.0","time_elapsed":1119287},{"rt":null,"stimulus":"<div class=\"fixation\" style=\"font-size: 60px;\">+</div>","response":null,"trial_type":"html-keyboard-response","trial_index":23,"plugin_version":"2.1.0","time_elapsed":1120292},{"target_group":"white","condition_label":"W_H_vs_B_L_rep25","target_direction":302,"distractor_direction":185,"session_rotation":275,"rt":-1,"response":"","correct":false,"choices":"ALL_KEYS","correct_choice":["a"],"trial_duration":2000,"flip_timestamps":[],"response_ends_trial":false,"number_of_apertures":200,"number_of_dots":[1,1,1,1,1,1,1,1,1,1,1,1,1,1,1,1,1,1,1,1,1,1,1,1,1,1,1,1,1,1,1,1,1,1,1,1,1,1,1,1,1,1,1,1,1,1,1,1,1,1,1,1,1,1,1,1,1,1,1,1,1,1,1,1,1,1,1,1,1,1,1,1,1,1,1,1,1,1,1,1,1,1,1,1,1,1,1,1,1,1,1,1,1,1,1,1,1,1,1,1,1,1,1,1,1,1,1,1,1,1,1,1,1,1,1,1,1,1,1,1,1,1,1,1,1,1,1,1,1,1,1,1,1,1,1,1,1,1,1,1,1,1,1,1,1,1,1,1,1,1,1,1,1,1,1,1,1,1,1,1,1,1,1,1,1,1,1,1,1,1,1,1,1,1,1,1,1,1,1,1,1,1,1,1,1,1,1,1,1,1,1,1,1,1,1,1,1,1,1,1],"number_of_sets":1,"coherent_direction":[302,185,185,185,185,302,185,185,185,185,302,185,185,185,185,302,185,185,302,302,302,302,302,302,302,302,302,185,302,302,185,302,185,302,185,302,302,302,302,302,302,302,302,185,302,302,185,302,302,185,302,185,302,302,185,185,302,185,185,302,302,302,185,302,302,185,302,302,302,302,185,185,185,185,302,185,302,302,302,185,302,185,302,302,185,185,302,302,185,185,185,185,185,302,302,302,185,302,185,185,185,302,302,185,302,302,185,302,302,185,302,302,185,185,185,185,185,302,185,185,185,185,185,302,302,302,302,185,185,302,185,302,302,302,185,185,185,302,302,302,185,185,185,302,185,302,302,302,302,185,302,185,302,302,185,185,302,185,302,185,185,185,302,185,185,302,302,185,185,302,302,302,302,185,302,185,185,185,302,302,185,302,185,185,185,185,302,185,185,185,185,185,302,185,302,185,185,185,185,302],"coherence":1,"opposite_coherence":0,"dot_radius":2,"dot_side_length":1,"dot_life":-1,"move_distance":1,"aperture_width":300,"aperture_height":300,"dot_color":["white","black","black","black","black","white","black","black","black","black","white","black","black","black","black","white","black","black","white","white","white","white","white","white","white","white","white","black","white","white","black","white","black","white","black","white","white","white","white","white","white","white","white","black","white","white","black","white","white","black","white","black","white","white","black","black","white","black","black","white","white","white","black","white","white","black","white","white","white","white","black","black","black","black","white","black","white","white","white","black","white","black","white","white","black","black","white","white","black","black","black","black","black","white","white","white","black","white","black","black","black","white","white","black","white","white","black","white","white","black","white","white","black","black","black","black","black","white","black","black","black","black","black","white","white","white","white","black","black","white","black","white","white","white","black","black","black","white","white","white","black","black","black","white","black","white","white","white","white","black","white","black","white","white","black","black","white","black","white","black","black","black","white","black","black","white","white","black","black","white","white","white","white","black","white","black","black","black","white","white","black","white","black","black","black","black","white","black","black","black","black","black","white","black","white","black","black","black","black","white"],"dot_shape":"circle","background_color":"#AAA","RDK_type":3,"aperture_type":2,"reinsert_type":2,"frame_rate":16.570247933884296,"frame_rate_array":[7,13,17,16,17,17,16,17,17,17,16,17,17,18,16,17,17,17,17,17,16,17,16,17,16,17,17,16,18,16,17,17,16,16,17,17,16,17,17,17,16,16,17,16,17,17,17,17,16,17,17,16,17,17,17,17,15,18,16,17,16,18,17,16,17,16,17,17,16,17,17,17,16,17,16,17,17,16,17,18,16,16,17,17,16,17,16,17,17,18,16,17,16,16,17,16,16,17,17,16,18,16,16,17,17,16,17,18,15,17,17,16,17,17,16,18,16,16,17,17,16],"number_of_frames":121,"aperture_center_x":683,"aperture_center_y":384,"fixation_cross":true,"fixation_cross_width":15,"fixation_cross_height":15,"fixation_cross_color":"#111","fixation_cross_thickness":1,"border":true,"border_thickness":2,"border_color":"transparent","canvas_width":1366,"canvas_height":768,"trial_type":"rdk","trial_index":24,"plugin_version":"2.0.0","time_elapsed":1122305},{"rt":2406,"stimulus":"\n        <div class=\"response-container\">\n          <div class=\"response-instruction\">\n            <p>rotate the bar by using the left and right arrow keys.</p>\n            <p>when you are determined, press the Enter key.</p>\n          </div>\n          <div class=\"response-circle\">\n            <div class=\"response-fixation\"></div>\n            <div id=\"bar\" class=\"rotating-bar\"></div>\n          </div>\n        </div>\n      ","response":"Enter","trial_type":"html-keyboard-response","trial_index":25,"plugin_version":"2.1.0","time_elapsed":1124712,"response_angle_css":136,"response_angle_rdk":314,"angular_error_target":12,"angular_error_distractor":129,"target_direction":302,"target_group":"white","reward_points":7},{"rt":null,"stimulus":"\n          <p style=\"color: #00FF00;\">Your reward: 7 points</p>\n        ","response":null,"trial_type":"html-keyboard-response","trial_index":26,"plugin_version":"2.1.0","time_elapsed":1126722},{"rt":null,"stimulus":"<div class=\"fixation\" style=\"font-size: 60px;\">+</div>","response":null,"trial_type":"html-keyboard-response","trial_index":27,"plugin_version":"2.1.0","time_elapsed":1127741},{"target_group":"white","condition_label":"W_H_vs_B_L_rep3","target_direction":318,"distractor_direction":224,"session_rotation":275,"rt":1418,"response":"ArrowLeft","correct":false,"choices":"ALL_KEYS","correct_choice":["a"],"trial_duration":2000,"flip_timestamps":[],"response_ends_trial":false,"number_of_apertures":200,"number_of_dots":[1,1,1,1,1,1,1,1,1,1,1,1,1,1,1,1,1,1,1,1,1,1,1,1,1,1,1,1,1,1,1,1,1,1,1,1,1,1,1,1,1,1,1,1,1,1,1,1,1,1,1,1,1,1,1,1,1,1,1,1,1,1,1,1,1,1,1,1,1,1,1,1,1,1,1,1,1,1,1,1,1,1,1,1,1,1,1,1,1,1,1,1,1,1,1,1,1,1,1,1,1,1,1,1,1,1,1,1,1,1,1,1,1,1,1,1,1,1,1,1,1,1,1,1,1,1,1,1,1,1,1,1,1,1,1,1,1,1,1,1,1,1,1,1,1,1,1,1,1,1,1,1,1,1,1,1,1,1,1,1,1,1,1,1,1,1,1,1,1,1,1,1,1,1,1,1,1,1,1,1,1,1,1,1,1,1,1,1,1,1,1,1,1,1,1,1,1,1,1,1],"number_of_sets":1,"coherent_direction":[224,224,318,224,318,224,318,224,318,318,224,224,318,224,224,318,318,318,224,318,224,224,318,224,224,318,318,224,224,318,318,224,224,224,318,318,318,318,318,318,224,224,224,224,318,318,224,224,224,224,318,318,318,224,224,318,224,318,224,318,224,318,224,224,318,318,224,318,224,318,318,224,318,318,318,224,224,318,318,224,224,224,318,224,318,224,318,224,224,318,318,318,224,318,318,224,224,224,318,224,224,224,224,318,224,318,318,318,224,318,318,224,318,224,224,224,224,318,318,224,224,318,318,318,318,224,318,318,224,318,224,224,224,224,224,224,224,318,318,224,318,318,318,224,224,318,224,224,318,224,224,224,318,224,318,318,224,224,318,224,318,318,318,318,224,224,318,224,224,318,318,224,318,318,224,318,318,318,318,318,224,318,224,224,224,318,318,318,318,318,224,224,224,318,318,224,224,224,318,318],"coherence":1,"opposite_coherence":0,"dot_radius":2,"dot_side_length":1,"dot_life":-1,"move_distance":1,"aperture_width":300,"aperture_height":300,"dot_color":["black","black","white","black","white","black","white","black","white","white","black","black","white","black","black","white","white","white","black","white","black","black","white","black","black","white","white","black","black","white","white","black","black","black","white","white","white","white","white","white","black","black","black","black","white","white","black","black","black","black","white","white","white","black","black","white","black","white","black","white","black","white","black","black","white","white","black","white","black","white","white","black","white","white","white","black","black","white","white","black","black","black","white","black","white","black","white","black","black","white","white","white","black","white","white","black","black","black","white","black","black","black","black","white","black","white","white","white","black","white","white","black","white","black","black","black","black","white","white","black","black","white","white","white","white","black","white","white","black","white","black","black","black","black","black","black","black","white","white","black","white","white","white","black","black","white","black","black","white","black","black","black","white","black","white","white","black","black","white","black","white","white","white","white","black","black","white","black","black","white","white","black","white","white","black","white","white","white","white","white","black","white","black","black","black","white","white","white","white","white","black","black","black","white","white","black","black","black","white","white"],"dot_shape":"circle","background_color":"#AAA","RDK_type":3,"aperture_type":2,"reinsert_type":2,"frame_rate":16.801652892561982,"frame_rate_array":[10,17,17,17,17,17,17,17,17,16,17,17,17,17,17,17,17,17,16,17,17,16,17,17,16,17,17,16,17,17,16,17,17,16,17,17,17,17,16,17,17,17,16,17,17,17,17,17,17,17,17,17,17,17,16,18,16,17,17,17,17,17,17,17,17,17,17,17,16,17,17,17,17,17,16,17,17,17,17,17,17,17,17,17,16,17,17,16,17,16,17,17,17,17,17,17,17,17,16,17,17,17,17,17,17,17,17,16,17,17,17,17,17,17,17,17,17,17,17,17,17],"number_of_frames":121,"aperture_center_x":683,"aperture_center_y":384,"fixation_cross":true,"fixation_cross_width":15,"fixation_cross_height":15,"fixation_cross_color":"#111","fixation_cross_thickness":1,"border":true,"border_thickness":2,"border_color":"transparent","canvas_width":1366,"canvas_height":768,"trial_type":"rdk","trial_index":28,"plugin_version":"2.0.0","time_elapsed":1129754},{"rt":2418,"stimulus":"\n        <div class=\"response-container\">\n          <div class=\"response-instruction\">\n            <p>rotate the bar by using the left and right arrow keys.</p>\n            <p>when you are determined, press the Enter key.</p>\n          </div>\n          <div class=\"response-circle\">\n            <div class=\"response-fixation\"></div>\n            <div id=\"bar\" class=\"rotating-bar\"></div>\n          </div>\n        </div>\n      ","response":"Enter","trial_type":"html-keyboard-response","trial_index":29,"plugin_version":"2.1.0","time_elapsed":1132173,"response_angle_css":49,"response_angle_rdk":41,"angular_error_target":83,"angular_error_distractor":177,"target_direction":318,"target_group":"white","reward_points":0},{"rt":null,"stimulus":"\n          <p style=\"color: #FF3333;\">Your reward: 0 points</p>\n        ","response":null,"trial_type":"html-keyboard-response","trial_index":30,"plugin_version":"2.1.0","time_elapsed":1134182},{"rt":null,"stimulus":"<div class=\"fixation\" style=\"font-size: 60px;\">+</div>","response":null,"trial_type":"html-keyboard-response","trial_index":31,"plugin_version":"2.1.0","time_elapsed":1135202},{"target_group":"black","condition_label":"B_H_vs_W_L_rep3","target_direction":40,"distractor_direction":133,"session_rotation":275,"rt":-1,"response":"","correct":false,"choices":"ALL_KEYS","correct_choice":["a"],"trial_duration":2000,"flip_timestamps":[],"response_ends_trial":false,"number_of_apertures":200,"number_of_dots":[1,1,1,1,1,1,1,1,1,1,1,1,1,1,1,1,1,1,1,1,1,1,1,1,1,1,1,1,1,1,1,1,1,1,1,1,1,1,1,1,1,1,1,1,1,1,1,1,1,1,1,1,1,1,1,1,1,1,1,1,1,1,1,1,1,1,1,1,1,1,1,1,1,1,1,1,1,1,1,1,1,1,1,1,1,1,1,1,1,1,1,1,1,1,1,1,1,1,1,1,1,1,1,1,1,1,1,1,1,1,1,1,1,1,1,1,1,1,1,1,1,1,1,1,1,1,1,1,1,1,1,1,1,1,1,1,1,1,1,1,1,1,1,1,1,1,1,1,1,1,1,1,1,1,1,1,1,1,1,1,1,1,1,1,1,1,1,1,1,1,1,1,1,1,1,1,1,1,1,1,1,1,1,1,1,1,1,1,1,1,1,1,1,1,1,1,1,1,1,1],"number_of_sets":1,"coherent_direction":[40,133,133,133,40,133,40,40,40,40,133,40,40,133,133,40,40,40,40,133,133,40,40,40,133,40,133,40,133,133,40,133,133,133,133,133,133,133,133,133,133,133,40,40,40,40,40,133,133,40,133,40,40,133,40,40,40,133,133,133,40,133,40,40,133,133,133,40,133,133,133,133,40,40,40,40,40,133,133,133,40,40,40,133,133,40,40,40,40,40,40,40,133,40,40,133,40,133,40,40,40,133,40,133,40,40,133,133,133,40,133,133,133,133,133,133,133,133,133,40,133,133,40,133,133,133,40,40,133,133,133,40,40,133,133,133,133,40,133,40,133,40,40,133,40,133,133,40,40,40,133,133,40,40,40,40,133,40,133,40,40,133,133,133,40,40,40,40,133,133,133,133,133,133,40,40,133,40,133,40,133,40,40,40,40,133,40,40,133,133,133,40,40,40,40,40,133,40,40,133],"coherence":1,"opposite_coherence":0,"dot_radius":2,"dot_side_length":1,"dot_life":-1,"move_distance":1,"aperture_width":300,"aperture_height":300,"dot_color":["black","white","white","white","black","white","black","black","black","black","white","black","black","white","white","black","black","black","black","white","white","black","black","black","white","black","white","black","white","white","black","white","white","white","white","white","white","white","white","white","white","white","black","black","black","black","black","white","white","black","white","black","black","white","black","black","black","white","white","white","black","white","black","black","white","white","white","black","white","white","white","white","black","black","black","black","black","white","white","white","black","black","black","white","white","black","black","black","black","black","black","black","white","black","black","white","black","white","black","black","black","white","black","white","black","black","white","white","white","black","white","white","white","white","white","white","white","white","white","black","white","white","black","white","white","white","black","black","white","white","white","black","black","white","white","white","white","black","white","black","white","black","black","white","black","white","white","black","black","black","white","white","black","black","black","black","white","black","white","black","black","white","white","white","black","black","black","black","white","white","white","white","white","white","black","black","white","black","white","black","white","black","black","black","black","white","black","black","white","white","white","black","black","black","black","black","white","black","black","white"],"dot_shape":"circle","background_color":"#AAA","RDK_type":3,"aperture_type":2,"reinsert_type":2,"frame_rate":16.708333333333332,"frame_rate_array":[14,13,17,17,17,17,17,17,17,17,16,17,17,17,16,17,17,17,17,17,17,17,17,17,17,17,17,17,17,17,17,17,16,16,18,16,17,17,17,16,17,17,16,17,17,16,17,16,16,17,17,17,16,17,17,16,17,16,17,17,17,17,17,17,17,17,17,17,17,17,17,16,17,17,17,16,16,17,17,17,17,16,17,17,16,17,16,17,17,17,17,16,17,16,17,16,17,16,17,17,17,17,16,17,17,17,16,16,17,17,17,17,17,16,16,18,16,17,16,17],"number_of_frames":120,"aperture_center_x":683,"aperture_center_y":384,"fixation_cross":true,"fixation_cross_width":15,"fixation_cross_height":15,"fixation_cross_color":"#111","fixation_cross_thickness":1,"border":true,"border_thickness":2,"border_color":"transparent","canvas_width":1366,"canvas_height":768,"trial_type":"rdk","trial_index":32,"plugin_version":"2.0.0","time_elapsed":1137211},{"rt":2442,"stimulus":"\n        <div class=\"response-container\">\n          <div class=\"response-instruction\">\n            <p>rotate the bar by using the left and right arrow keys.</p>\n            <p>when you are determined, press the Enter key.</p>\n          </div>\n          <div class=\"response-circle\">\n            <div class=\"response-fixation\"></div>\n            <div id=\"bar\" class=\"rotating-bar\"></div>\n          </div>\n        </div>\n      ","response":"Enter","trial_type":"html-keyboard-response","trial_index":33,"plugin_version":"2.1.0","time_elapsed":1139653,"response_angle_css":63,"response_angle_rdk":27,"angular_error_target":-13,"angular_error_distractor":-106,"target_direction":40,"target_group":"black","reward_points":7},{"rt":null,"stimulus":"\n          <p style=\"color: #00FF00;\">Your reward: 7 points</p>\n        ","response":null,"trial_type":"html-keyboard-response","trial_index":34,"plugin_version":"2.1.0","time_elapsed":1141666},{"rt":null,"stimulus":"<div class=\"fixation\" style=\"font-size: 60px;\">+</div>","response":null,"trial_type":"html-keyboard-response","trial_index":35,"plugin_version":"2.1.0","time_elapsed":1142672},{"target_group":"black","condition_label":"B_H_vs_W_L_rep9","target_direction":15,"distractor_direction":121,"session_rotation":275,"rt":-1,"response":"","correct":false,"choices":"ALL_KEYS","correct_choice":["a"],"trial_duration":2000,"flip_timestamps":[],"response_ends_trial":false,"number_of_apertures":200,"number_of_dots":[1,1,1,1,1,1,1,1,1,1,1,1,1,1,1,1,1,1,1,1,1,1,1,1,1,1,1,1,1,1,1,1,1,1,1,1,1,1,1,1,1,1,1,1,1,1,1,1,1,1,1,1,1,1,1,1,1,1,1,1,1,1,1,1,1,1,1,1,1,1,1,1,1,1,1,1,1,1,1,1,1,1,1,1,1,1,1,1,1,1,1,1,1,1,1,1,1,1,1,1,1,1,1,1,1,1,1,1,1,1,1,1,1,1,1,1,1,1,1,1,1,1,1,1,1,1,1,1,1,1,1,1,1,1,1,1,1,1,1,1,1,1,1,1,1,1,1,1,1,1,1,1,1,1,1,1,1,1,1,1,1,1,1,1,1,1,1,1,1,1,1,1,1,1,1,1,1,1,1,1,1,1,1,1,1,1,1,1,1,1,1,1,1,1,1,1,1,1,1,1],"number_of_sets":1,"coherent_direction":[15,121,15,15,15,15,121,121,15,121,15,15,15,121,121,15,15,15,15,121,121,121,121,15,121,121,15,121,121,121,121,121,121,15,15,15,15,121,121,121,121,121,15,15,121,121,121,121,121,121,121,15,15,121,121,121,121,15,121,15,121,121,121,121,121,15,15,121,15,121,15,15,121,121,15,15,15,15,15,121,15,15,15,15,121,15,15,121,121,121,15,121,121,15,15,121,15,121,121,121,15,121,121,15,121,15,121,15,15,121,121,15,121,121,121,15,15,15,121,15,121,15,121,15,121,15,121,15,121,15,121,15,15,121,121,15,121,121,15,15,15,15,15,121,121,121,121,15,121,15,121,121,15,15,15,121,15,15,15,15,15,121,15,121,15,15,121,15,121,121,121,15,15,121,121,121,121,15,121,15,15,121,15,15,15,15,15,15,15,121,15,15,121,121,15,15,15,15,121,121],"coherence":1,"opposite_coherence":0,"dot_radius":2,"dot_side_length":1,"dot_life":-1,"move_distance":1,"aperture_width":300,"aperture_height":300,"dot_color":["black","white","black","black","black","black","white","white","black","white","black","black","black","white","white","black","black","black","black","white","white","white","white","black","white","white","black","white","white","white","white","white","white","black","black","black","black","white","white","white","white","white","black","black","white","white","white","white","white","white","white","black","black","white","white","white","white","black","white","black","white","white","white","white","white","black","black","white","black","white","black","black","white","white","black","black","black","black","black","white","black","black","black","black","white","black","black","white","white","white","black","white","white","black","black","white","black","white","white","white","black","white","white","black","white","black","white","black","black","white","white","black","white","white","white","black","black","black","white","black","white","black","white","black","white","black","white","black","white","black","white","black","black","white","white","black","white","white","black","black","black","black","black","white","white","white","white","black","white","black","white","white","black","black","black","white","black","black","black","black","black","white","black","white","black","black","white","black","white","white","white","black","black","white","white","white","white","black","white","black","black","white","black","black","black","black","black","black","black","white","black","black","white","white","black","black","black","black","white","white"],"dot_shape":"circle","background_color":"#AAA","RDK_type":3,"aperture_type":2,"reinsert_type":2,"frame_rate":16.575,"frame_rate_array":[9,14,17,17,16,18,17,16,17,17,16,17,16,16,17,17,17,17,17,16,17,17,16,17,16,17,17,16,16,17,17,16,17,16,17,16,17,16,17,17,16,17,16,16,17,16,17,17,17,16,18,16,17,17,16,16,17,17,16,18,16,17,17,17,16,17,17,16,17,18,16,17,17,16,17,16,17,17,17,17,17,16,17,17,17,16,17,17,16,17,17,16,17,16,16,17,16,17,16,17,16,17,17,16,17,17,16,17,17,17,17,17,16,17,16,16,17,16,17,17],"number_of_frames":120,"aperture_center_x":683,"aperture_center_y":384,"fixation_cross":true,"fixation_cross_width":15,"fixation_cross_height":15,"fixation_cross_color":"#111","fixation_cross_thickness":1,"border":true,"border_thickness":2,"border_color":"transparent","canvas_width":1366,"canvas_height":768,"trial_type":"rdk","trial_index":36,"plugin_version":"2.0.0","time_elapsed":1144686},{"rt":2963,"stimulus":"\n        <div class=\"response-container\">\n          <div class=\"response-instruction\">\n            <p>rotate the bar by using the left and right arrow keys.</p>\n            <p>when you are determined, press the Enter key.</p>\n          </div>\n          <div class=\"response-circle\">\n            <div class=\"response-fixation\"></div>\n            <div id=\"bar\" class=\"rotating-bar\"></div>\n          </div>\n        </div>\n      ","response":"Enter","trial_type":"html-keyboard-response","trial_index":37,"plugin_version":"2.1.0","time_elapsed":1147650,"response_angle_css":77,"response_angle_rdk":13,"angular_error_target":-2,"angular_error_distractor":-108,"target_direction":15,"target_group":"black","reward_points":9},{"rt":null,"stimulus":"\n          <p style=\"color: #00FF00;\">Your reward: 9 points</p>\n        ","response":null,"trial_type":"html-keyboard-response","trial_index":38,"plugin_version":"2.1.0","time_elapsed":1149662},{"rt":null,"stimulus":"<div class=\"fixation\" style=\"font-size: 60px;\">+</div>","response":null,"trial_type":"html-keyboard-response","trial_index":39,"plugin_version":"2.1.0","time_elapsed":1150671},{"target_group":"black","condition_label":"B_H_vs_W_L_rep21","target_direction":25,"distractor_direction":131,"session_rotation":275,"rt":-1,"response":"","correct":false,"choices":"ALL_KEYS","correct_choice":["a"],"trial_duration":2000,"flip_timestamps":[],"response_ends_trial":false,"number_of_apertures":200,"number_of_dots":[1,1,1,1,1,1,1,1,1,1,1,1,1,1,1,1,1,1,1,1,1,1,1,1,1,1,1,1,1,1,1,1,1,1,1,1,1,1,1,1,1,1,1,1,1,1,1,1,1,1,1,1,1,1,1,1,1,1,1,1,1,1,1,1,1,1,1,1,1,1,1,1,1,1,1,1,1,1,1,1,1,1,1,1,1,1,1,1,1,1,1,1,1,1,1,1,1,1,1,1,1,1,1,1,1,1,1,1,1,1,1,1,1,1,1,1,1,1,1,1,1,1,1,1,1,1,1,1,1,1,1,1,1,1,1,1,1,1,1,1,1,1,1,1,1,1,1,1,1,1,1,1,1,1,1,1,1,1,1,1,1,1,1,1,1,1,1,1,1,1,1,1,1,1,1,1,1,1,1,1,1,1,1,1,1,1,1,1,1,1,1,1,1,1,1,1,1,1,1,1],"number_of_sets":1,"coherent_direction":[25,131,25,131,25,131,25,25,25,25,25,25,25,25,131,25,131,25,25,131,131,25,131,25,25,25,131,25,25,131,25,25,131,25,131,131,25,25,131,25,25,25,131,131,25,131,131,131,25,25,25,25,25,131,131,131,25,131,25,25,131,25,131,131,131,25,131,131,25,25,25,25,131,131,131,131,131,25,25,131,25,131,131,131,131,25,25,25,25,25,25,131,131,25,131,25,25,131,25,131,25,131,131,131,131,131,25,131,25,131,25,131,25,25,131,131,25,131,131,131,25,131,25,25,131,25,131,25,131,131,131,131,131,25,131,131,25,131,131,25,25,131,131,25,131,25,131,131,25,131,25,131,25,131,131,131,25,25,25,131,131,25,25,25,25,131,131,131,25,25,25,25,131,131,131,131,131,25,131,131,25,25,131,131,25,25,25,25,131,25,25,131,25,25,131,131,131,25,131,131],"coherence":1,"opposite_coherence":0,"dot_radius":2,"dot_side_length":1,"dot_life":-1,"move_distance":1,"aperture_width":300,"aperture_height":300,"dot_color":["black","white","black","white","black","white","black","black","black","black","black","black","black","black","white","black","white","black","black","white","white","black","white","black","black","black","white","black","black","white","black","black","white","black","white","white","black","black","white","black","black","black","white","white","black","white","white","white","black","black","black","black","black","white","white","white","black","white","black","black","white","black","white","white","white","black","white","white","black","black","black","black","white","white","white","white","white","black","black","white","black","white","white","white","white","black","black","black","black","black","black","white","white","black","white","black","black","white","black","white","black","white","white","white","white","white","black","white","black","white","black","white","black","black","white","white","black","white","white","white","black","white","black","black","white","black","white","black","white","white","white","white","white","black","white","white","black","white","white","black","black","white","white","black","white","black","white","white","black","white","black","white","black","white","white","white","black","black","black","white","white","black","black","black","black","white","white","white","black","black","black","black","white","white","white","white","white","black","white","white","black","black","white","white","black","black","black","black","white","black","black","white","black","black","white","white","white","black","white","white"],"dot_shape":"circle","background_color":"#AAA","RDK_type":3,"aperture_type":2,"reinsert_type":2,"frame_rate":16.825,"frame_rate_array":[9,17,17,17,17,16,17,17,17,17,17,17,17,17,16,17,17,16,17,17,17,17,17,17,17,16,17,17,17,17,17,17,17,17,17,17,17,17,17,17,17,17,17,17,17,17,17,17,17,17,17,17,16,17,17,17,17,16,17,17,17,17,17,17,17,17,17,17,17,17,17,17,16,17,17,17,16,17,17,17,16,17,17,17,17,17,17,17,17,16,17,17,17,17,17,17,17,17,17,17,17,16,17,17,17,17,17,17,17,17,17,17,17,17,16,17,16,17,17,17],"number_of_frames":120,"aperture_center_x":683,"aperture_center_y":384,"fixation_cross":true,"fixation_cross_width":15,"fixation_cross_height":15,"fixation_cross_color":"#111","fixation_cross_thickness":1,"border":true,"border_thickness":2,"border_color":"transparent","canvas_width":1366,"canvas_height":768,"trial_type":"rdk","trial_index":40,"plugin_version":"2.0.0","time_elapsed":1152684},{"rt":2909,"stimulus":"\n        <div class=\"response-container\">\n          <div class=\"response-instruction\">\n            <p>rotate the bar by using the left and right arrow keys.</p>\n            <p>when you are determined, press the Enter key.</p>\n          </div>\n          <div class=\"response-circle\">\n            <div class=\"response-fixation\"></div>\n            <div id=\"bar\" class=\"rotating-bar\"></div>\n          </div>\n        </div>\n      ","response":"Enter","trial_type":"html-keyboard-response","trial_index":41,"plugin_version":"2.1.0","time_elapsed":1155594,"response_angle_css":86,"response_angle_rdk":4,"angular_error_target":-21,"angular_error_distractor":-127,"target_direction":25,"target_group":"black","reward_points":5},{"rt":null,"stimulus":"\n          <p style=\"color: #00FF00;\">Your reward: 5 points</p>\n        ","response":null,"trial_type":"html-keyboard-response","trial_index":42,"plugin_version":"2.1.0","time_elapsed":1157612},{"rt":null,"stimulus":"<div class=\"fixation\" style=\"font-size: 60px;\">+</div>","response":null,"trial_type":"html-keyboard-response","trial_index":43,"plugin_version":"2.1.0","time_elapsed":1158632},{"target_group":"black","condition_label":"B_H_vs_W_L_rep2","target_direction":23,"distractor_direction":118,"session_rotation":275,"rt":-1,"response":"","correct":false,"choices":"ALL_KEYS","correct_choice":["a"],"trial_duration":2000,"flip_timestamps":[],"response_ends_trial":false,"number_of_apertures":200,"number_of_dots":[1,1,1,1,1,1,1,1,1,1,1,1,1,1,1,1,1,1,1,1,1,1,1,1,1,1,1,1,1,1,1,1,1,1,1,1,1,1,1,1,1,1,1,1,1,1,1,1,1,1,1,1,1,1,1,1,1,1,1,1,1,1,1,1,1,1,1,1,1,1,1,1,1,1,1,1,1,1,1,1,1,1,1,1,1,1,1,1,1,1,1,1,1,1,1,1,1,1,1,1,1,1,1,1,1,1,1,1,1,1,1,1,1,1,1,1,1,1,1,1,1,1,1,1,1,1,1,1,1,1,1,1,1,1,1,1,1,1,1,1,1,1,1,1,1,1,1,1,1,1,1,1,1,1,1,1,1,1,1,1,1,1,1,1,1,1,1,1,1,1,1,1,1,1,1,1,1,1,1,1,1,1,1,1,1,1,1,1,1,1,1,1,1,1,1,1,1,1,1,1],"number_of_sets":1,"coherent_direction":[23,23,23,23,23,118,118,23,118,118,23,118,118,23,23,23,23,118,118,23,118,118,23,23,23,23,118,118,23,23,23,23,118,23,118,23,23,118,118,23,118,23,23,23,23,118,118,23,23,23,23,118,118,118,23,118,23,118,23,118,118,23,118,23,23,23,23,118,118,118,118,118,118,118,118,23,23,118,23,118,118,23,118,23,23,23,118,23,118,118,118,118,23,23,118,118,23,23,23,118,118,118,23,23,23,118,23,23,23,118,118,23,118,118,23,23,118,118,118,23,23,118,23,23,23,118,118,23,23,23,23,118,118,118,118,23,23,118,23,23,118,118,23,118,23,23,118,118,118,23,118,23,23,118,23,118,118,118,118,118,118,118,23,118,118,118,118,118,118,118,23,23,23,118,118,118,23,118,23,118,118,118,118,118,23,23,23,23,23,118,23,118,23,23,23,118,23,118,23,23],"coherence":1,"opposite_coherence":0,"dot_radius":2,"dot_side_length":1,"dot_life":-1,"move_distance":1,"aperture_width":300,"aperture_height":300,"dot_color":["black","black","black","black","black","white","white","black","white","white","black","white","white","black","black","black","black","white","white","black","white","white","black","black","black","black","white","white","black","black","black","black","white","black","white","black","black","white","white","black","white","black","black","black","black","white","white","black","black","black","black","white","white","white","black","white","black","white","black","white","white","black","white","black","black","black","black","white","white","white","white","white","white","white","white","black","black","white","black","white","white","black","white","black","black","black","white","black","white","white","white","white","black","black","white","white","black","black","black","white","white","white","black","black","black","white","black","black","black","white","white","black","white","white","black","black","white","white","white","black","black","white","black","black","black","white","white","black","black","black","black","white","white","white","white","black","black","white","black","black","white","white","black","white","black","black","white","white","white","black","white","black","black","white","black","white","white","white","white","white","white","white","black","white","white","white","white","white","white","white","black","black","black","white","white","white","black","white","black","white","white","white","white","white","black","black","black","black","black","white","black","white","black","black","black","white","black","white","black","black"],"dot_shape":"circle","background_color":"#AAA","RDK_type":3,"aperture_type":2,"reinsert_type":2,"frame_rate":16.669421487603305,"frame_rate_array":[2,13,17,17,16,17,17,16,17,17,17,16,17,17,17,17,17,17,17,16,17,17,17,17,16,17,17,17,17,16,17,17,17,17,17,17,17,17,17,17,17,17,17,16,17,17,17,17,17,17,17,17,17,16,17,17,16,16,17,17,16,17,17,17,17,17,17,17,17,17,17,17,17,17,16,17,17,17,17,17,17,17,17,17,17,16,17,17,17,17,17,17,17,16,17,17,17,17,16,17,17,17,16,17,17,16,17,16,17,16,17,17,17,16,17,17,17,17,17,16,17],"number_of_frames":121,"aperture_center_x":683,"aperture_center_y":384,"fixation_cross":true,"fixation_cross_width":15,"fixation_cross_height":15,"fixation_cross_color":"#111","fixation_cross_thickness":1,"border":true,"border_thickness":2,"border_color":"transparent","canvas_width":1366,"canvas_height":768,"trial_type":"rdk","trial_index":44,"plugin_version":"2.0.0","time_elapsed":1160638},{"rt":3764,"stimulus":"\n        <div class=\"response-container\">\n          <div class=\"response-instruction\">\n            <p>rotate the bar by using the left and right arrow keys.</p>\n            <p>when you are determined, press the Enter key.</p>\n          </div>\n          <div class=\"response-circle\">\n            <div class=\"response-fixation\"></div>\n            <div id=\"bar\" class=\"rotating-bar\"></div>\n          </div>\n        </div>\n      ","response":"Enter","trial_type":"html-keyboard-response","trial_index":45,"plugin_version":"2.1.0","time_elapsed":1164403,"response_angle_css":433,"response_angle_rdk":17,"angular_error_target":-6,"angular_error_distractor":-101,"target_direction":23,"target_group":"black","reward_points":8},{"rt":null,"stimulus":"\n          <p style=\"color: #00FF00;\">Your reward: 8 points</p>\n        ","response":null,"trial_type":"html-keyboard-response","trial_index":46,"plugin_version":"2.1.0","time_elapsed":1166412},{"rt":null,"stimulus":"<div class=\"fixation\" style=\"font-size: 60px;\">+</div>","response":null,"trial_type":"html-keyboard-response","trial_index":47,"plugin_version":"2.1.0","time_elapsed":1167422},{"target_group":"white","condition_label":"W_H_vs_B_L_rep15","target_direction":296,"distractor_direction":187,"session_rotation":275,"rt":-1,"response":"","correct":false,"choices":"ALL_KEYS","correct_choice":["a"],"trial_duration":2000,"flip_timestamps":[],"response_ends_trial":false,"number_of_apertures":200,"number_of_dots":[1,1,1,1,1,1,1,1,1,1,1,1,1,1,1,1,1,1,1,1,1,1,1,1,1,1,1,1,1,1,1,1,1,1,1,1,1,1,1,1,1,1,1,1,1,1,1,1,1,1,1,1,1,1,1,1,1,1,1,1,1,1,1,1,1,1,1,1,1,1,1,1,1,1,1,1,1,1,1,1,1,1,1,1,1,1,1,1,1,1,1,1,1,1,1,1,1,1,1,1,1,1,1,1,1,1,1,1,1,1,1,1,1,1,1,1,1,1,1,1,1,1,1,1,1,1,1,1,1,1,1,1,1,1,1,1,1,1,1,1,1,1,1,1,1,1,1,1,1,1,1,1,1,1,1,1,1,1,1,1,1,1,1,1,1,1,1,1,1,1,1,1,1,1,1,1,1,1,1,1,1,1,1,1,1,1,1,1,1,1,1,1,1,1,1,1,1,1,1,1],"number_of_sets":1,"coherent_direction":[187,187,296,296,187,296,187,296,187,187,296,187,187,296,187,187,187,296,187,187,187,296,187,187,187,187,296,187,296,187,296,296,296,187,187,187,296,296,296,187,296,296,187,187,296,296,187,296,296,187,187,187,296,187,296,296,296,187,187,187,296,296,187,296,296,296,187,187,187,296,296,187,187,296,187,187,296,296,187,187,296,296,296,296,187,296,296,296,187,296,296,296,296,187,187,296,187,296,296,187,187,187,187,296,296,187,187,296,296,296,296,296,296,187,187,187,187,296,187,187,296,296,296,187,187,187,187,296,187,296,296,187,296,187,296,296,296,296,187,296,296,187,296,296,187,187,187,296,187,296,187,187,296,296,296,187,187,296,296,296,187,296,296,296,296,187,187,296,187,187,187,296,187,296,187,187,296,187,296,296,296,296,296,296,187,187,296,296,187,187,187,296,296,187,187,187,187,187,187,187],"coherence":1,"opposite_coherence":0,"dot_radius":2,"dot_side_length":1,"dot_life":-1,"move_distance":1,"aperture_width":300,"aperture_height":300,"dot_color":["black","black","white","white","black","white","black","white","black","black","white","black","black","white","black","black","black","white","black","black","black","white","black","black","black","black","white","black","white","black","white","white","white","black","black","black","white","white","white","black","white","white","black","black","white","white","black","white","white","black","black","black","white","black","white","white","white","black","black","black","white","white","black","white","white","white","black","black","black","white","white","black","black","white","black","black","white","white","black","black","white","white","white","white","black","white","white","white","black","white","white","white","white","black","black","white","black","white","white","black","black","black","black","white","white","black","black","white","white","white","white","white","white","black","black","black","black","white","black","black","white","white","white","black","black","black","black","white","black","white","white","black","white","black","white","white","white","white","black","white","white","black","white","white","black","black","black","white","black","white","black","black","white","white","white","black","black","white","white","white","black","white","white","white","white","black","black","white","black","black","black","white","black","white","black","black","white","black","white","white","white","white","white","white","black","black","white","white","black","black","black","white","white","black","black","black","black","black","black","black"],"dot_shape":"circle","background_color":"#AAA","RDK_type":3,"aperture_type":2,"reinsert_type":2,"frame_rate":16.625,"frame_rate_array":[5,17,17,16,17,17,17,16,17,16,17,17,17,17,16,17,16,17,17,17,17,17,16,17,16,17,16,17,17,16,17,17,16,17,17,16,17,16,17,17,16,17,17,16,17,16,18,16,17,16,17,17,16,17,16,17,17,17,17,16,17,16,17,17,16,17,17,17,17,17,17,17,17,17,17,16,17,16,17,17,17,17,16,17,17,17,17,17,16,17,16,17,17,17,17,16,17,16,17,16,17,17,17,16,17,17,16,17,16,17,17,17,17,17,16,17,17,17,17,17],"number_of_frames":120,"aperture_center_x":683,"aperture_center_y":384,"fixation_cross":true,"fixation_cross_width":15,"fixation_cross_height":15,"fixation_cross_color":"#111","fixation_cross_thickness":1,"border":true,"border_thickness":2,"border_color":"transparent","canvas_width":1366,"canvas_height":768,"trial_type":"rdk","trial_index":48,"plugin_version":"2.0.0","time_elapsed":1169435},{"rt":4399,"stimulus":"\n        <div class=\"response-container\">\n          <div class=\"response-instruction\">\n            <p>rotate the bar by using the left and right arrow keys.</p>\n            <p>when you are determined, press the Enter key.</p>\n          </div>\n          <div class=\"response-circle\">\n            <div class=\"response-fixation\"></div>\n            <div id=\"bar\" class=\"rotating-bar\"></div>\n          </div>\n        </div>\n      ","response":"Enter","trial_type":"html-keyboard-response","trial_index":49,"plugin_version":"2.1.0","time_elapsed":1173835,"response_angle_css":134,"response_angle_rdk":316,"angular_error_target":20,"angular_error_distractor":129,"target_direction":296,"target_group":"white","reward_points":6},{"rt":null,"stimulus":"\n          <p style=\"color: #00FF00;\">Your reward: 6 points</p>\n        ","response":null,"trial_type":"html-keyboard-response","trial_index":50,"plugin_version":"2.1.0","time_elapsed":1175848},{"rt":null,"stimulus":"<div class=\"fixation\" style=\"font-size: 60px;\">+</div>","response":null,"trial_type":"html-keyboard-response","trial_index":51,"plugin_version":"2.1.0","time_elapsed":1176861},{"target_group":"black","condition_label":"B_H_vs_W_L_rep15","target_direction":20,"distractor_direction":120,"session_rotation":275,"rt":-1,"response":"","correct":false,"choices":"ALL_KEYS","correct_choice":["a"],"trial_duration":2000,"flip_timestamps":[],"response_ends_trial":false,"number_of_apertures":200,"number_of_dots":[1,1,1,1,1,1,1,1,1,1,1,1,1,1,1,1,1,1,1,1,1,1,1,1,1,1,1,1,1,1,1,1,1,1,1,1,1,1,1,1,1,1,1,1,1,1,1,1,1,1,1,1,1,1,1,1,1,1,1,1,1,1,1,1,1,1,1,1,1,1,1,1,1,1,1,1,1,1,1,1,1,1,1,1,1,1,1,1,1,1,1,1,1,1,1,1,1,1,1,1,1,1,1,1,1,1,1,1,1,1,1,1,1,1,1,1,1,1,1,1,1,1,1,1,1,1,1,1,1,1,1,1,1,1,1,1,1,1,1,1,1,1,1,1,1,1,1,1,1,1,1,1,1,1,1,1,1,1,1,1,1,1,1,1,1,1,1,1,1,1,1,1,1,1,1,1,1,1,1,1,1,1,1,1,1,1,1,1,1,1,1,1,1,1,1,1,1,1,1,1],"number_of_sets":1,"coherent_direction":[120,120,20,20,20,20,120,20,120,20,120,20,20,20,20,120,20,120,20,20,120,20,120,120,120,120,20,120,20,120,120,120,20,20,120,20,20,20,20,20,120,120,120,120,120,120,120,120,120,120,20,20,120,20,20,120,120,20,120,20,120,20,120,120,20,120,20,120,20,20,120,20,20,20,20,20,120,120,20,120,120,120,20,120,120,120,120,20,120,20,20,120,120,120,20,120,20,120,120,20,120,120,120,20,120,20,120,120,20,20,20,20,20,120,20,20,20,120,120,120,20,120,120,120,20,20,120,120,120,20,120,120,20,20,120,120,20,120,20,20,120,20,120,120,120,20,20,120,20,20,120,20,20,120,120,120,20,20,20,120,20,20,120,20,20,20,20,20,120,120,20,20,120,120,20,120,120,20,120,120,20,120,20,20,20,20,120,120,120,20,120,120,20,120,20,20,20,20,20,20],"coherence":1,"opposite_coherence":0,"dot_radius":2,"dot_side_length":1,"dot_life":-1,"move_distance":1,"aperture_width":300,"aperture_height":300,"dot_color":["white","white","black","black","black","black","white","black","white","black","white","black","black","black","black","white","black","white","black","black","white","black","white","white","white","white","black","white","black","white","white","white","black","black","white","black","black","black","black","black","white","white","white","white","white","white","white","white","white","white","black","black","white","black","black","white","white","black","white","black","white","black","white","white","black","white","black","white","black","black","white","black","black","black","black","black","white","white","black","white","white","white","black","white","white","white","white","black","white","black","black","white","white","white","black","white","black","white","white","black","white","white","white","black","white","black","white","white","black","black","black","black","black","white","black","black","black","white","white","white","black","white","white","white","black","black","white","white","white","black","white","white","black","black","white","white","black","white","black","black","white","black","white","white","white","black","black","white","black","black","white","black","black","white","white","white","black","black","black","white","black","black","white","black","black","black","black","black","white","white","black","black","white","white","black","white","white","black","white","white","black","white","black","black","black","black","white","white","white","black","white","white","black","white","black","black","black","black","black","black"],"dot_shape":"circle","background_color":"#AAA","RDK_type":3,"aperture_type":2,"reinsert_type":2,"frame_rate":16.60330578512397,"frame_rate_array":[4,17,17,16,17,17,17,17,16,18,16,17,17,17,17,16,17,16,16,17,17,17,16,17,17,17,17,16,16,17,17,17,17,17,16,17,16,17,17,17,16,17,17,16,17,16,17,17,17,17,17,16,17,17,16,17,16,17,16,18,16,17,17,16,17,17,17,16,17,16,17,17,16,16,17,17,17,17,16,17,17,17,17,17,16,17,17,16,17,17,17,16,17,16,17,17,17,17,16,17,17,17,16,17,17,16,17,17,16,17,17,16,18,16,16,17,17,16,17,17,16],"number_of_frames":121,"aperture_center_x":683,"aperture_center_y":384,"fixation_cross":true,"fixation_cross_width":15,"fixation_cross_height":15,"fixation_cross_color":"#111","fixation_cross_thickness":1,"border":true,"border_thickness":2,"border_color":"transparent","canvas_width":1366,"canvas_height":768,"trial_type":"rdk","trial_index":52,"plugin_version":"2.0.0","time_elapsed":1178869},{"rt":2841,"stimulus":"\n        <div class=\"response-container\">\n          <div class=\"response-instruction\">\n            <p>rotate the bar by using the left and right arrow keys.</p>\n            <p>when you are determined, press the Enter key.</p>\n          </div>\n          <div class=\"response-circle\">\n            <div class=\"response-fixation\"></div>\n            <div id=\"bar\" class=\"rotating-bar\"></div>\n          </div>\n        </div>\n      ","response":"Enter","trial_type":"html-keyboard-response","trial_index":53,"plugin_version":"2.1.0","time_elapsed":1181712,"response_angle_css":414,"response_angle_rdk":36,"angular_error_target":16,"angular_error_distractor":-84,"target_direction":20,"target_group":"black","reward_points":6},{"rt":null,"stimulus":"\n          <p style=\"color: #00FF00;\">Your reward: 6 points</p>\n        ","response":null,"trial_type":"html-keyboard-response","trial_index":54,"plugin_version":"2.1.0","time_elapsed":1183732},{"rt":null,"stimulus":"<div class=\"fixation\" style=\"font-size: 60px;\">+</div>","response":null,"trial_type":"html-keyboard-response","trial_index":55,"plugin_version":"2.1.0","time_elapsed":1184747},{"target_group":"white","condition_label":"W_H_vs_B_L_rep13","target_direction":295,"distractor_direction":199,"session_rotation":275,"rt":-1,"response":"","correct":false,"choices":"ALL_KEYS","correct_choice":["a"],"trial_duration":2000,"flip_timestamps":[],"response_ends_trial":false,"number_of_apertures":200,"number_of_dots":[1,1,1,1,1,1,1,1,1,1,1,1,1,1,1,1,1,1,1,1,1,1,1,1,1,1,1,1,1,1,1,1,1,1,1,1,1,1,1,1,1,1,1,1,1,1,1,1,1,1,1,1,1,1,1,1,1,1,1,1,1,1,1,1,1,1,1,1,1,1,1,1,1,1,1,1,1,1,1,1,1,1,1,1,1,1,1,1,1,1,1,1,1,1,1,1,1,1,1,1,1,1,1,1,1,1,1,1,1,1,1,1,1,1,1,1,1,1,1,1,1,1,1,1,1,1,1,1,1,1,1,1,1,1,1,1,1,1,1,1,1,1,1,1,1,1,1,1,1,1,1,1,1,1,1,1,1,1,1,1,1,1,1,1,1,1,1,1,1,1,1,1,1,1,1,1,1,1,1,1,1,1,1,1,1,1,1,1,1,1,1,1,1,1,1,1,1,1,1,1],"number_of_sets":1,"coherent_direction":[199,295,295,199,199,199,295,295,295,295,199,199,295,295,199,295,199,295,199,199,199,295,199,199,295,199,295,295,295,199,295,295,199,199,295,295,295,295,295,295,199,295,295,295,295,199,295,199,295,295,199,199,295,199,199,295,295,199,295,199,199,199,295,199,199,199,295,199,295,199,199,295,199,199,295,295,295,199,199,295,295,295,199,295,295,199,295,199,199,199,295,295,295,199,199,199,295,295,295,295,199,295,199,199,199,199,295,295,295,295,199,199,295,295,199,199,295,199,199,295,199,295,199,199,199,199,199,199,199,295,295,199,199,295,295,199,295,295,199,295,199,199,199,295,295,295,295,199,199,295,295,295,199,295,199,199,295,295,295,199,295,199,199,295,295,295,295,199,199,295,199,199,295,199,199,295,199,199,199,295,199,199,295,199,295,199,295,199,295,295,295,295,199,295,199,199,199,199,295,199],"coherence":1,"opposite_coherence":0,"dot_radius":2,"dot_side_length":1,"dot_life":-1,"move_distance":1,"aperture_width":300,"aperture_height":300,"dot_color":["black","white","white","black","black","black","white","white","white","white","black","black","white","white","black","white","black","white","black","black","black","white","black","black","white","black","white","white","white","black","white","white","black","black","white","white","white","white","white","white","black","white","white","white","white","black","white","black","white","white","black","black","white","black","black","white","white","black","white","black","black","black","white","black","black","black","white","black","white","black","black","white","black","black","white","white","white","black","black","white","white","white","black","white","white","black","white","black","black","black","white","white","white","black","black","black","white","white","white","white","black","white","black","black","black","black","white","white","white","white","black","black","white","white","black","black","white","black","black","white","black","white","black","black","black","black","black","black","black","white","white","black","black","white","white","black","white","white","black","white","black","black","black","white","white","white","white","black","black","white","white","white","black","white","black","black","white","white","white","black","white","black","black","white","white","white","white","black","black","white","black","black","white","black","black","white","black","black","black","white","black","black","white","black","white","black","white","black","white","white","white","white","black","white","black","black","black","black","white","black"],"dot_shape":"circle","background_color":"#AAA","RDK_type":3,"aperture_type":2,"reinsert_type":2,"frame_rate":16.56198347107438,"frame_rate_array":[8,6,16,17,16,17,17,17,17,17,16,17,17,16,17,16,17,17,17,17,17,17,17,18,16,17,17,17,16,16,18,16,17,18,16,17,17,16,17,17,16,18,16,17,17,17,16,17,16,16,17,17,16,17,17,16,17,17,16,17,17,16,17,17,16,17,17,16,17,17,16,17,17,16,17,17,16,17,17,16,17,17,16,17,16,17,17,17,16,18,16,17,17,17,17,17,17,16,16,17,17,17,17,17,16,17,17,17,16,17,16,17,17,16,16,17,17,17,16,17,17],"number_of_frames":121,"aperture_center_x":683,"aperture_center_y":384,"fixation_cross":true,"fixation_cross_width":15,"fixation_cross_height":15,"fixation_cross_color":"#111","fixation_cross_thickness":1,"border":true,"border_thickness":2,"border_color":"transparent","canvas_width":1366,"canvas_height":768,"trial_type":"rdk","trial_index":56,"plugin_version":"2.0.0","time_elapsed":1186753},{"rt":1243,"stimulus":"\n        <div class=\"response-container\">\n          <div class=\"response-instruction\">\n            <p>rotate the bar by using the left and right arrow keys.</p>\n            <p>when you are determined, press the Enter key.</p>\n          </div>\n          <div class=\"response-circle\">\n            <div class=\"response-fixation\"></div>\n            <div id=\"bar\" class=\"rotating-bar\"></div>\n          </div>\n        </div>\n      ","response":"Enter","trial_type":"html-keyboard-response","trial_index":57,"plugin_version":"2.1.0","time_elapsed":1187997,"response_angle_css":120,"response_angle_rdk":330,"angular_error_target":35,"angular_error_distractor":131,"target_direction":295,"target_group":"white","reward_points":3},{"rt":null,"stimulus":"\n          <p style=\"color: #00FF00;\">Your reward: 3 points</p>\n        ","response":null,"trial_type":"html-keyboard-response","trial_index":58,"plugin_version":"2.1.0","time_elapsed":1190011},{"rt":null,"stimulus":"<div class=\"fixation\" style=\"font-size: 60px;\">+</div>","response":null,"trial_type":"html-keyboard-response","trial_index":59,"plugin_version":"2.1.0","time_elapsed":1191016},{"target_group":"white","condition_label":"W_H_vs_B_L_rep18","target_direction":288,"distractor_direction":192,"session_rotation":275,"rt":-1,"response":"","correct":false,"choices":"ALL_KEYS","correct_choice":["a"],"trial_duration":2000,"flip_timestamps":[],"response_ends_trial":false,"number_of_apertures":200,"number_of_dots":[1,1,1,1,1,1,1,1,1,1,1,1,1,1,1,1,1,1,1,1,1,1,1,1,1,1,1,1,1,1,1,1,1,1,1,1,1,1,1,1,1,1,1,1,1,1,1,1,1,1,1,1,1,1,1,1,1,1,1,1,1,1,1,1,1,1,1,1,1,1,1,1,1,1,1,1,1,1,1,1,1,1,1,1,1,1,1,1,1,1,1,1,1,1,1,1,1,1,1,1,1,1,1,1,1,1,1,1,1,1,1,1,1,1,1,1,1,1,1,1,1,1,1,1,1,1,1,1,1,1,1,1,1,1,1,1,1,1,1,1,1,1,1,1,1,1,1,1,1,1,1,1,1,1,1,1,1,1,1,1,1,1,1,1,1,1,1,1,1,1,1,1,1,1,1,1,1,1,1,1,1,1,1,1,1,1,1,1,1,1,1,1,1,1,1,1,1,1,1,1],"number_of_sets":1,"coherent_direction":[192,288,288,288,192,288,288,192,192,192,192,288,288,288,288,192,192,192,192,288,288,192,192,192,288,288,288,192,288,288,288,288,288,288,288,192,192,192,288,192,288,192,192,288,288,192,288,192,192,288,288,192,192,192,192,192,288,288,288,288,288,192,288,192,192,288,192,192,192,192,288,192,192,192,192,192,288,192,288,192,192,192,288,288,192,192,192,288,288,192,288,192,288,192,192,288,288,288,288,288,192,288,192,288,288,192,288,192,288,192,288,288,192,192,288,288,288,288,192,192,192,192,192,288,192,288,288,288,192,288,192,288,288,288,192,192,288,288,288,288,192,288,288,192,192,192,288,288,288,192,192,288,192,288,192,192,192,288,192,288,288,192,192,288,192,192,288,288,192,288,288,192,288,192,192,192,192,288,192,192,288,192,288,288,288,288,192,288,192,288,192,192,192,288,288,192,192,192,288,288],"coherence":1,"opposite_coherence":0,"dot_radius":2,"dot_side_length":1,"dot_life":-1,"move_distance":1,"aperture_width":300,"aperture_height":300,"dot_color":["black","white","white","white","black","white","white","black","black","black","black","white","white","white","white","black","black","black","black","white","white","black","black","black","white","white","white","black","white","white","white","white","white","white","white","black","black","black","white","black","white","black","black","white","white","black","white","black","black","white","white","black","black","black","black","black","white","white","white","white","white","black","white","black","black","white","black","black","black","black","white","black","black","black","black","black","white","black","white","black","black","black","white","white","black","black","black","white","white","black","white","black","white","black","black","white","white","white","white","white","black","white","black","white","white","black","white","black","white","black","white","white","black","black","white","white","white","white","black","black","black","black","black","white","black","white","white","white","black","white","black","white","white","white","black","black","white","white","white","white","black","white","white","black","black","black","white","white","white","black","black","white","black","white","black","black","black","white","black","white","white","black","black","white","black","black","white","white","black","white","white","black","white","black","black","black","black","white","black","black","white","black","white","white","white","white","black","white","black","white","black","black","black","white","white","black","black","black","white","white"],"dot_shape":"circle","background_color":"#AAA","RDK_type":3,"aperture_type":2,"reinsert_type":2,"frame_rate":16.636363636363637,"frame_rate_array":[9,17,17,16,17,17,16,17,16,17,17,17,16,17,17,17,17,17,17,16,17,17,16,17,16,17,17,17,16,17,16,17,17,16,17,17,17,17,17,16,17,16,17,17,17,16,17,16,17,16,17,17,16,17,17,17,17,16,17,17,17,16,17,17,16,17,16,17,16,17,17,17,16,17,16,17,16,17,17,17,17,16,17,16,17,16,17,17,16,17,17,17,17,16,17,17,17,17,17,16,17,16,17,17,16,16,17,17,16,18,17,17,16,17,17,17,16,17,16,17,17],"number_of_frames":121,"aperture_center_x":683,"aperture_center_y":384,"fixation_cross":true,"fixation_cross_width":15,"fixation_cross_height":15,"fixation_cross_color":"#111","fixation_cross_thickness":1,"border":true,"border_thickness":2,"border_color":"transparent","canvas_width":1366,"canvas_height":768,"trial_type":"rdk","trial_index":60,"plugin_version":"2.0.0","time_elapsed":1193035},{"rt":1875,"stimulus":"\n        <div class=\"response-container\">\n          <div class=\"response-instruction\">\n            <p>rotate the bar by using the left and right arrow keys.</p>\n            <p>when you are determined, press the Enter key.</p>\n          </div>\n          <div class=\"response-circle\">\n            <div class=\"response-fixation\"></div>\n            <div id=\"bar\" class=\"rotating-bar\"></div>\n          </div>\n        </div>\n      ","response":"Enter","trial_type":"html-keyboard-response","trial_index":61,"plugin_version":"2.1.0","time_elapsed":1194911,"response_angle_css":125,"response_angle_rdk":325,"angular_error_target":37,"angular_error_distractor":133,"target_direction":288,"target_group":"white","reward_points":2},{"rt":null,"stimulus":"\n          <p style=\"color: #FF3333;\">Your reward: 2 points</p>\n        ","response":null,"trial_type":"html-keyboard-response","trial_index":62,"plugin_version":"2.1.0","time_elapsed":1196927},{"rt":null,"stimulus":"<div class=\"fixation\" style=\"font-size: 60px;\">+</div>","response":null,"trial_type":"html-keyboard-response","trial_index":63,"plugin_version":"2.1.0","time_elapsed":1197943},{"target_group":"black","condition_label":"B_H_vs_W_L_rep11","target_direction":40,"distractor_direction":135,"session_rotation":275,"rt":-1,"response":"","correct":false,"choices":"ALL_KEYS","correct_choice":["a"],"trial_duration":2000,"flip_timestamps":[],"response_ends_trial":false,"number_of_apertures":200,"number_of_dots":[1,1,1,1,1,1,1,1,1,1,1,1,1,1,1,1,1,1,1,1,1,1,1,1,1,1,1,1,1,1,1,1,1,1,1,1,1,1,1,1,1,1,1,1,1,1,1,1,1,1,1,1,1,1,1,1,1,1,1,1,1,1,1,1,1,1,1,1,1,1,1,1,1,1,1,1,1,1,1,1,1,1,1,1,1,1,1,1,1,1,1,1,1,1,1,1,1,1,1,1,1,1,1,1,1,1,1,1,1,1,1,1,1,1,1,1,1,1,1,1,1,1,1,1,1,1,1,1,1,1,1,1,1,1,1,1,1,1,1,1,1,1,1,1,1,1,1,1,1,1,1,1,1,1,1,1,1,1,1,1,1,1,1,1,1,1,1,1,1,1,1,1,1,1,1,1,1,1,1,1,1,1,1,1,1,1,1,1,1,1,1,1,1,1,1,1,1,1,1,1],"number_of_sets":1,"coherent_direction":[135,40,40,40,135,40,135,135,40,40,40,135,135,40,40,135,40,40,135,40,135,135,135,40,135,40,40,40,135,40,135,135,135,40,40,135,40,135,135,135,135,40,40,135,135,135,40,40,135,40,40,40,135,40,40,135,40,40,135,40,40,40,135,135,135,40,135,135,40,135,40,135,135,135,135,135,135,135,40,40,135,135,40,135,40,135,40,40,40,40,135,135,40,40,40,40,135,135,40,135,135,40,40,135,135,40,135,40,135,40,135,40,135,135,135,135,135,135,40,40,40,135,135,40,40,40,40,135,40,40,135,40,135,40,135,40,40,40,40,135,135,135,40,40,40,135,135,40,40,135,40,40,40,40,40,135,135,135,135,135,135,40,135,135,40,135,135,40,40,40,40,40,135,40,135,40,135,135,40,40,135,135,135,40,135,40,135,40,135,40,135,40,135,135,135,135,40,135,40,40],"coherence":1,"opposite_coherence":0,"dot_radius":2,"dot_side_length":1,"dot_life":-1,"move_distance":1,"aperture_width":300,"aperture_height":300,"dot_color":["white","black","black","black","white","black","white","white","black","black","black","white","white","black","black","white","black","black","white","black","white","white","white","black","white","black","black","black","white","black","white","white","white","black","black","white","black","white","white","white","white","black","black","white","white","white","black","black","white","black","black","black","white","black","black","white","black","black","white","black","black","black","white","white","white","black","white","white","black","white","black","white","white","white","white","white","white","white","black","black","white","white","black","white","black","white","black","black","black","black","white","white","black","black","black","black","white","white","black","white","white","black","black","white","white","black","white","black","white","black","white","black","white","white","white","white","white","white","black","black","black","white","white","black","black","black","black","white","black","black","white","black","white","black","white","black","black","black","black","white","white","white","black","black","black","white","white","black","black","white","black","black","black","black","black","white","white","white","white","white","white","black","white","white","black","white","white","black","black","black","black","black","white","black","white","black","white","white","black","black","white","white","white","black","white","black","white","black","white","black","white","black","white","white","white","white","black","white","black","black"],"dot_shape":"circle","background_color":"#AAA","RDK_type":3,"aperture_type":2,"reinsert_type":2,"frame_rate":16.578512396694215,"frame_rate_array":[4,17,17,17,17,16,17,16,17,16,17,17,17,16,17,16,17,16,17,16,17,17,16,17,17,17,16,17,16,17,17,17,16,17,17,17,17,16,16,17,16,17,16,17,16,16,17,16,17,17,16,17,16,17,16,17,17,17,17,17,17,16,17,17,16,17,17,17,16,17,16,17,16,17,16,17,17,16,17,17,16,17,16,17,17,17,17,17,17,17,17,17,16,17,17,17,16,17,17,16,17,16,17,16,17,17,16,17,17,18,15,18,16,17,17,17,16,17,17,17,17],"number_of_frames":121,"aperture_center_x":683,"aperture_center_y":384,"fixation_cross":true,"fixation_cross_width":15,"fixation_cross_height":15,"fixation_cross_color":"#111","fixation_cross_thickness":1,"border":true,"border_thickness":2,"border_color":"transparent","canvas_width":1366,"canvas_height":768,"trial_type":"rdk","trial_index":64,"plugin_version":"2.0.0","time_elapsed":1199952},{"rt":1971,"stimulus":"\n        <div class=\"response-container\">\n          <div class=\"response-instruction\">\n            <p>rotate the bar by using the left and right arrow keys.</p>\n            <p>when you are determined, press the Enter key.</p>\n          </div>\n          <div class=\"response-circle\">\n            <div class=\"response-fixation\"></div>\n            <div id=\"bar\" class=\"rotating-bar\"></div>\n          </div>\n        </div>\n      ","response":"Enter","trial_type":"html-keyboard-response","trial_index":65,"plugin_version":"2.1.0","time_elapsed":1201924,"response_angle_css":55,"response_angle_rdk":35,"angular_error_target":-5,"angular_error_distractor":-100,"target_direction":40,"target_group":"black","reward_points":9},{"rt":null,"stimulus":"\n          <p style=\"color: #00FF00;\">Your reward: 9 points</p>\n        ","response":null,"trial_type":"html-keyboard-response","trial_index":66,"plugin_version":"2.1.0","time_elapsed":1203938},{"rt":null,"stimulus":"<div class=\"fixation\" style=\"font-size: 60px;\">+</div>","response":null,"trial_type":"html-keyboard-response","trial_index":67,"plugin_version":"2.1.0","time_elapsed":1204942},{"target_group":"white","condition_label":"W_H_vs_B_L_rep8","target_direction":312,"distractor_direction":213,"session_rotation":275,"rt":-1,"response":"","correct":false,"choices":"ALL_KEYS","correct_choice":["a"],"trial_duration":2000,"flip_timestamps":[],"response_ends_trial":false,"number_of_apertures":200,"number_of_dots":[1,1,1,1,1,1,1,1,1,1,1,1,1,1,1,1,1,1,1,1,1,1,1,1,1,1,1,1,1,1,1,1,1,1,1,1,1,1,1,1,1,1,1,1,1,1,1,1,1,1,1,1,1,1,1,1,1,1,1,1,1,1,1,1,1,1,1,1,1,1,1,1,1,1,1,1,1,1,1,1,1,1,1,1,1,1,1,1,1,1,1,1,1,1,1,1,1,1,1,1,1,1,1,1,1,1,1,1,1,1,1,1,1,1,1,1,1,1,1,1,1,1,1,1,1,1,1,1,1,1,1,1,1,1,1,1,1,1,1,1,1,1,1,1,1,1,1,1,1,1,1,1,1,1,1,1,1,1,1,1,1,1,1,1,1,1,1,1,1,1,1,1,1,1,1,1,1,1,1,1,1,1,1,1,1,1,1,1,1,1,1,1,1,1,1,1,1,1,1,1],"number_of_sets":1,"coherent_direction":[213,312,312,312,213,213,213,213,213,213,213,213,213,213,213,213,312,213,213,213,312,312,312,213,312,312,312,312,312,213,213,213,312,312,312,213,312,312,213,312,312,312,312,213,213,312,312,312,312,312,312,213,213,312,312,312,213,312,213,312,213,312,312,312,213,213,312,213,213,312,213,213,213,312,312,213,213,213,213,213,213,213,213,213,213,213,312,312,213,312,213,312,312,312,213,213,312,213,213,213,312,312,213,312,312,213,213,312,312,312,312,213,213,312,312,213,213,213,213,312,213,312,213,213,213,312,213,213,312,213,213,312,312,312,213,312,312,312,312,312,213,312,312,213,312,213,213,312,312,213,312,312,312,312,213,213,312,213,213,312,312,312,312,312,312,213,213,312,213,312,312,312,213,213,213,312,213,312,213,213,213,312,213,213,213,312,213,213,312,312,312,312,312,312,213,213,213,312,213,312],"coherence":1,"opposite_coherence":0,"dot_radius":2,"dot_side_length":1,"dot_life":-1,"move_distance":1,"aperture_width":300,"aperture_height":300,"dot_color":["black","white","white","white","black","black","black","black","black","black","black","black","black","black","black","black","white","black","black","black","white","white","white","black","white","white","white","white","white","black","black","black","white","white","white","black","white","white","black","white","white","white","white","black","black","white","white","white","white","white","white","black","black","white","white","white","black","white","black","white","black","white","white","white","black","black","white","black","black","white","black","black","black","white","white","black","black","black","black","black","black","black","black","black","black","black","white","white","black","white","black","white","white","white","black","black","white","black","black","black","white","white","black","white","white","black","black","white","white","white","white","black","black","white","white","black","black","black","black","white","black","white","black","black","black","white","black","black","white","black","black","white","white","white","black","white","white","white","white","white","black","white","white","black","white","black","black","white","white","black","white","white","white","white","black","black","white","black","black","white","white","white","white","white","white","black","black","white","black","white","white","white","black","black","black","white","black","white","black","black","black","white","black","black","black","white","black","black","white","white","white","white","white","white","black","black","black","white","black","white"],"dot_shape":"circle","background_color":"#AAA","RDK_type":3,"aperture_type":2,"reinsert_type":2,"frame_rate":16.636363636363637,"frame_rate_array":[4,18,14,17,17,17,17,17,16,17,16,17,16,17,17,17,17,16,17,17,17,17,16,17,17,17,17,16,17,17,17,17,17,17,17,17,16,17,17,17,16,17,17,17,16,17,17,17,16,16,17,17,17,16,17,16,17,17,19,14,16,17,16,17,17,16,17,17,16,17,17,17,17,17,16,17,17,17,17,16,17,17,16,17,16,16,17,17,17,17,17,17,17,17,17,16,17,17,17,17,17,16,17,17,16,17,17,16,17,16,17,17,17,17,16,18,16,17,17,17,17],"number_of_frames":121,"aperture_center_x":683,"aperture_center_y":384,"fixation_cross":true,"fixation_cross_width":15,"fixation_cross_height":15,"fixation_cross_color":"#111","fixation_cross_thickness":1,"border":true,"border_thickness":2,"border_color":"transparent","canvas_width":1366,"canvas_height":768,"trial_type":"rdk","trial_index":68,"plugin_version":"2.0.0","time_elapsed":1206952},{"rt":4705,"stimulus":"\n        <div class=\"response-container\">\n          <div class=\"response-instruction\">\n            <p>rotate the bar by using the left and right arrow keys.</p>\n            <p>when you are determined, press the Enter key.</p>\n          </div>\n          <div class=\"response-circle\">\n            <div class=\"response-fixation\"></div>\n            <div id=\"bar\" class=\"rotating-bar\"></div>\n          </div>\n        </div>\n      ","response":"Enter","trial_type":"html-keyboard-response","trial_index":69,"plugin_version":"2.1.0","time_elapsed":1211658,"response_angle_css":80,"response_angle_rdk":10,"angular_error_target":58,"angular_error_distractor":157,"target_direction":312,"target_group":"white","reward_points":0},{"rt":null,"stimulus":"\n          <p style=\"color: #FF3333;\">Your reward: 0 points</p>\n        ","response":null,"trial_type":"html-keyboard-response","trial_index":70,"plugin_version":"2.1.0","time_elapsed":1213672},{"rt":null,"stimulus":"<div class=\"fixation\" style=\"font-size: 60px;\">+</div>","response":null,"trial_type":"html-keyboard-response","trial_index":71,"plugin_version":"2.1.0","time_elapsed":1214691},{"target_group":"black","condition_label":"B_H_vs_W_L_rep7","target_direction":10,"distractor_direction":109,"session_rotation":275,"rt":-1,"response":"","correct":false,"choices":"ALL_KEYS","correct_choice":["a"],"trial_duration":2000,"flip_timestamps":[],"response_ends_trial":false,"number_of_apertures":200,"number_of_dots":[1,1,1,1,1,1,1,1,1,1,1,1,1,1,1,1,1,1,1,1,1,1,1,1,1,1,1,1,1,1,1,1,1,1,1,1,1,1,1,1,1,1,1,1,1,1,1,1,1,1,1,1,1,1,1,1,1,1,1,1,1,1,1,1,1,1,1,1,1,1,1,1,1,1,1,1,1,1,1,1,1,1,1,1,1,1,1,1,1,1,1,1,1,1,1,1,1,1,1,1,1,1,1,1,1,1,1,1,1,1,1,1,1,1,1,1,1,1,1,1,1,1,1,1,1,1,1,1,1,1,1,1,1,1,1,1,1,1,1,1,1,1,1,1,1,1,1,1,1,1,1,1,1,1,1,1,1,1,1,1,1,1,1,1,1,1,1,1,1,1,1,1,1,1,1,1,1,1,1,1,1,1,1,1,1,1,1,1,1,1,1,1,1,1,1,1,1,1,1,1],"number_of_sets":1,"coherent_direction":[10,109,10,10,10,10,10,109,109,109,109,10,10,10,109,10,10,10,10,109,10,109,10,10,10,10,109,109,10,109,109,10,109,109,109,10,10,109,109,10,109,10,10,10,10,109,109,10,109,109,10,109,10,10,10,109,109,109,10,109,109,10,10,109,109,109,109,10,10,109,109,10,10,10,109,109,109,109,109,109,109,10,109,109,10,10,109,10,109,109,10,109,109,10,10,109,10,109,10,109,10,109,109,10,109,10,10,10,10,109,10,109,109,109,10,10,109,10,109,109,10,109,10,109,109,10,109,10,10,109,109,10,109,10,10,10,109,10,10,10,10,109,109,109,109,109,109,109,109,109,10,109,10,10,10,109,109,10,109,109,109,109,109,10,10,10,109,10,109,10,10,109,10,10,109,109,109,109,10,109,109,109,109,10,10,10,109,109,10,10,10,10,10,10,10,10,10,109,10,10],"coherence":1,"opposite_coherence":0,"dot_radius":2,"dot_side_length":1,"dot_life":-1,"move_distance":1,"aperture_width":300,"aperture_height":300,"dot_color":["black","white","black","black","black","black","black","white","white","white","white","black","black","black","white","black","black","black","black","white","black","white","black","black","black","black","white","white","black","white","white","black","white","white","white","black","black","white","white","black","white","black","black","black","black","white","white","black","white","white","black","white","black","black","black","white","white","white","black","white","white","black","black","white","white","white","white","black","black","white","white","black","black","black","white","white","white","white","white","white","white","black","white","white","black","black","white","black","white","white","black","white","white","black","black","white","black","white","black","white","black","white","white","black","white","black","black","black","black","white","black","white","white","white","black","black","white","black","white","white","black","white","black","white","white","black","white","black","black","white","white","black","white","black","black","black","white","black","black","black","black","white","white","white","white","white","white","white","white","white","black","white","black","black","black","white","white","black","white","white","white","white","white","black","black","black","white","black","white","black","black","white","black","black","white","white","white","white","black","white","white","white","white","black","black","black","white","white","black","black","black","black","black","black","black","black","black","white","black","black"],"dot_shape":"circle","background_color":"#AAA","RDK_type":3,"aperture_type":2,"reinsert_type":2,"frame_rate":16.644628099173552,"frame_rate_array":[6,16,17,17,17,16,17,17,17,17,17,17,17,16,17,17,17,16,17,16,17,17,17,16,18,16,18,16,17,17,17,17,16,18,16,17,17,17,17,17,16,16,17,17,16,18,16,17,16,17,16,17,17,16,17,17,17,17,17,16,17,18,16,17,16,17,16,17,17,17,17,16,17,17,17,17,16,17,17,16,17,17,17,16,17,17,16,17,16,17,17,17,16,18,16,16,17,17,16,17,16,17,17,17,17,17,16,17,16,17,17,17,17,16,17,16,17,16,17,16,17],"number_of_frames":121,"aperture_center_x":683,"aperture_center_y":384,"fixation_cross":true,"fixation_cross_width":15,"fixation_cross_height":15,"fixation_cross_color":"#111","fixation_cross_thickness":1,"border":true,"border_thickness":2,"border_color":"transparent","canvas_width":1366,"canvas_height":768,"trial_type":"rdk","trial_index":72,"plugin_version":"2.0.0","time_elapsed":1216701},{"rt":2719,"stimulus":"\n        <div class=\"response-container\">\n          <div class=\"response-instruction\">\n            <p>rotate the bar by using the left and right arrow keys.</p>\n            <p>when you are determined, press the Enter key.</p>\n          </div>\n          <div class=\"response-circle\">\n            <div class=\"response-fixation\"></div>\n            <div id=\"bar\" class=\"rotating-bar\"></div>\n          </div>\n        </div>\n      ","response":"Enter","trial_type":"html-keyboard-response","trial_index":73,"plugin_version":"2.1.0","time_elapsed":1219421,"response_angle_css":466,"response_angle_rdk":344,"angular_error_target":-26,"angular_error_distractor":-125,"target_direction":10,"target_group":"black","reward_points":4},{"rt":null,"stimulus":"\n          <p style=\"color: #00FF00;\">Your reward: 4 points</p>\n        ","response":null,"trial_type":"html-keyboard-response","trial_index":74,"plugin_version":"2.1.0","time_elapsed":1221427},{"rt":null,"stimulus":"<div class=\"fixation\" style=\"font-size: 60px;\">+</div>","response":null,"trial_type":"html-keyboard-response","trial_index":75,"plugin_version":"2.1.0","time_elapsed":1222432},{"target_group":"black","condition_label":"B_H_vs_W_L_rep16","target_direction":36,"distractor_direction":136,"session_rotation":275,"rt":-1,"response":"","correct":false,"choices":"ALL_KEYS","correct_choice":["a"],"trial_duration":2000,"flip_timestamps":[],"response_ends_trial":false,"number_of_apertures":200,"number_of_dots":[1,1,1,1,1,1,1,1,1,1,1,1,1,1,1,1,1,1,1,1,1,1,1,1,1,1,1,1,1,1,1,1,1,1,1,1,1,1,1,1,1,1,1,1,1,1,1,1,1,1,1,1,1,1,1,1,1,1,1,1,1,1,1,1,1,1,1,1,1,1,1,1,1,1,1,1,1,1,1,1,1,1,1,1,1,1,1,1,1,1,1,1,1,1,1,1,1,1,1,1,1,1,1,1,1,1,1,1,1,1,1,1,1,1,1,1,1,1,1,1,1,1,1,1,1,1,1,1,1,1,1,1,1,1,1,1,1,1,1,1,1,1,1,1,1,1,1,1,1,1,1,1,1,1,1,1,1,1,1,1,1,1,1,1,1,1,1,1,1,1,1,1,1,1,1,1,1,1,1,1,1,1,1,1,1,1,1,1,1,1,1,1,1,1,1,1,1,1,1,1],"number_of_sets":1,"coherent_direction":[36,136,136,36,136,136,136,36,136,36,136,36,136,36,136,36,136,36,136,36,136,36,136,36,136,36,36,36,136,136,36,36,36,36,136,36,36,36,136,136,36,136,36,36,36,36,136,136,136,36,36,36,136,136,136,136,36,136,136,36,36,36,36,136,36,36,136,136,136,36,136,136,36,136,36,136,36,136,36,136,36,136,36,36,136,136,136,36,136,36,136,136,136,136,36,136,36,136,136,136,36,36,136,36,36,36,36,36,136,136,36,36,136,136,136,36,36,136,136,136,136,36,136,136,36,136,36,36,36,36,136,36,36,136,136,36,36,136,36,36,36,36,36,136,136,136,136,36,136,136,136,136,136,136,136,36,136,136,36,136,36,36,36,136,136,136,36,36,136,36,136,36,136,136,36,36,136,136,36,36,36,136,36,36,36,136,136,36,36,36,136,36,136,136,136,36,36,136,36,36],"coherence":1,"opposite_coherence":0,"dot_radius":2,"dot_side_length":1,"dot_life":-1,"move_distance":1,"aperture_width":300,"aperture_height":300,"dot_color":["black","white","white","black","white","white","white","black","white","black","white","black","white","black","white","black","white","black","white","black","white","black","white","black","white","black","black","black","white","white","black","black","black","black","white","black","black","black","white","white","black","white","black","black","black","black","white","white","white","black","black","black","white","white","white","white","black","white","white","black","black","black","black","white","black","black","white","white","white","black","white","white","black","white","black","white","black","white","black","white","black","white","black","black","white","white","white","black","white","black","white","white","white","white","black","white","black","white","white","white","black","black","white","black","black","black","black","black","white","white","black","black","white","white","white","black","black","white","white","white","white","black","white","white","black","white","black","black","black","black","white","black","black","white","white","black","black","white","black","black","black","black","black","white","white","white","white","black","white","white","white","white","white","white","white","black","white","white","black","white","black","black","black","white","white","white","black","black","white","black","white","black","white","white","black","black","white","white","black","black","black","white","black","black","black","white","white","black","black","black","white","black","white","white","white","black","black","white","black","black"],"dot_shape":"circle","background_color":"#AAA","RDK_type":3,"aperture_type":2,"reinsert_type":2,"frame_rate":16.636363636363637,"frame_rate_array":[12,14,17,17,17,17,16,17,16,17,16,17,16,17,17,17,17,16,17,16,17,17,16,17,17,17,17,16,16,18,16,16,18,16,17,17,17,17,17,17,16,17,16,17,17,16,16,18,16,17,16,17,17,16,17,16,17,17,16,18,16,16,17,16,17,17,17,16,17,17,17,17,16,17,17,17,17,17,17,17,17,17,17,17,17,16,17,17,16,17,16,16,17,16,17,17,16,17,17,16,16,18,16,17,17,17,16,17,17,16,17,16,16,18,16,16,17,17,16,17,17],"number_of_frames":121,"aperture_center_x":683,"aperture_center_y":384,"fixation_cross":true,"fixation_cross_width":15,"fixation_cross_height":15,"fixation_cross_color":"#111","fixation_cross_thickness":1,"border":true,"border_thickness":2,"border_color":"transparent","canvas_width":1366,"canvas_height":768,"trial_type":"rdk","trial_index":76,"plugin_version":"2.0.0","time_elapsed":1224451},{"rt":2713,"stimulus":"\n        <div class=\"response-container\">\n          <div class=\"response-instruction\">\n            <p>rotate the bar by using the left and right arrow keys.</p>\n            <p>when you are determined, press the Enter key.</p>\n          </div>\n          <div class=\"response-circle\">\n            <div class=\"response-fixation\"></div>\n            <div id=\"bar\" class=\"rotating-bar\"></div>\n          </div>\n        </div>\n      ","response":"Enter","trial_type":"html-keyboard-response","trial_index":77,"plugin_version":"2.1.0","time_elapsed":1227164,"response_angle_css":437,"response_angle_rdk":13,"angular_error_target":-23,"angular_error_distractor":-123,"target_direction":36,"target_group":"black","reward_points":5},{"rt":null,"stimulus":"\n          <p style=\"color: #00FF00;\">Your reward: 5 points</p>\n        ","response":null,"trial_type":"html-keyboard-response","trial_index":78,"plugin_version":"2.1.0","time_elapsed":1229176},{"rt":null,"stimulus":"<div class=\"fixation\" style=\"font-size: 60px;\">+</div>","response":null,"trial_type":"html-keyboard-response","trial_index":79,"plugin_version":"2.1.0","time_elapsed":1230182},{"target_group":"black","condition_label":"B_H_vs_W_L_rep1","target_direction":16,"distractor_direction":132,"session_rotation":275,"rt":-1,"response":"","correct":false,"choices":"ALL_KEYS","correct_choice":["a"],"trial_duration":2000,"flip_timestamps":[],"response_ends_trial":false,"number_of_apertures":200,"number_of_dots":[1,1,1,1,1,1,1,1,1,1,1,1,1,1,1,1,1,1,1,1,1,1,1,1,1,1,1,1,1,1,1,1,1,1,1,1,1,1,1,1,1,1,1,1,1,1,1,1,1,1,1,1,1,1,1,1,1,1,1,1,1,1,1,1,1,1,1,1,1,1,1,1,1,1,1,1,1,1,1,1,1,1,1,1,1,1,1,1,1,1,1,1,1,1,1,1,1,1,1,1,1,1,1,1,1,1,1,1,1,1,1,1,1,1,1,1,1,1,1,1,1,1,1,1,1,1,1,1,1,1,1,1,1,1,1,1,1,1,1,1,1,1,1,1,1,1,1,1,1,1,1,1,1,1,1,1,1,1,1,1,1,1,1,1,1,1,1,1,1,1,1,1,1,1,1,1,1,1,1,1,1,1,1,1,1,1,1,1,1,1,1,1,1,1,1,1,1,1,1,1],"number_of_sets":1,"coherent_direction":[132,16,132,132,16,16,16,16,132,132,132,16,16,132,16,16,16,132,132,132,132,16,132,16,16,16,16,132,132,132,16,16,16,132,16,16,132,132,132,16,132,16,16,16,132,132,16,16,16,132,16,16,16,132,132,16,132,16,132,16,16,132,16,16,16,132,132,132,132,16,132,16,16,132,16,16,132,132,16,16,16,132,16,16,132,132,16,16,132,132,132,16,132,16,16,16,132,16,16,16,132,16,132,16,132,132,132,132,132,132,132,132,132,132,132,132,16,132,132,16,16,16,16,16,132,132,132,132,132,16,16,132,132,132,132,16,132,132,16,132,16,132,16,132,132,16,16,16,132,16,132,16,16,16,132,16,16,16,16,132,132,132,132,16,16,16,132,132,132,132,16,132,132,132,132,16,16,16,132,16,16,132,132,16,16,132,16,132,16,132,132,132,132,132,16,16,16,16,16,16],"coherence":1,"opposite_coherence":0,"dot_radius":2,"dot_side_length":1,"dot_life":-1,"move_distance":1,"aperture_width":300,"aperture_height":300,"dot_color":["white","black","white","white","black","black","black","black","white","white","white","black","black","white","black","black","black","white","white","white","white","black","white","black","black","black","black","white","white","white","black","black","black","white","black","black","white","white","white","black","white","black","black","black","white","white","black","black","black","white","black","black","black","white","white","black","white","black","white","black","black","white","black","black","black","white","white","white","white","black","white","black","black","white","black","black","white","white","black","black","black","white","black","black","white","white","black","black","white","white","white","black","white","black","black","black","white","black","black","black","white","black","white","black","white","white","white","white","white","white","white","white","white","white","white","white","black","white","white","black","black","black","black","black","white","white","white","white","white","black","black","white","white","white","white","black","white","white","black","white","black","white","black","white","white","black","black","black","white","black","white","black","black","black","white","black","black","black","black","white","white","white","white","black","black","black","white","white","white","white","black","white","white","white","white","black","black","black","white","black","black","white","white","black"