[{"rt":2467,"stimulus":"Welcome to the experiment. Press any key to begin.","response":" ","trial_type":"html-keyboard-response","trial_index":0,"plugin_version":"2.1.0","time_elapsed":2479},{"rt":97280,"stimulus":"\n        <div class=\"instructions-container\">\n          <h2>Instructions</h2>\n\n          <p>\n          In this experiment, you will see <strong>two Random Dot Kinematograms (RDKs)</strong> displayed simultaneously.\n          </p>\n\n          <p>\n          An RDK is a visual stimulus consisting of many small dots that move coherently in a single direction. \n          In this experiment, the dots will be either <strong>white</strong> or <strong>black</strong> \n          (see the short demo below for an example of an RDK stimulus).\n          </p>\n\n          <p>\n          On each trial, the two RDKs will move in different directions. \n          Your task is to decide <strong>which RDK appears to contain more dots</strong>.\n          </p>\n\n          <p>\n          The RDK that you judge to have more dots is called the <strong>target RDK</strong>. \n          For example, if the white RDK appears to have more dots than the black RDK, \n          you should report the motion direction of the white RDK.\n          </p>\n\n          <p>\n          After viewing the RDKs, you will rotate a bar to indicate the perceived direction of the target RDK \n          using the <strong>left</strong> and <strong>right arrow keys</strong>. \n          Press <strong>Enter</strong> when you are satisfied with your response.\n          </p>\n\n          <p>\n          You will receive points based on the <strong>accuracy of your response</strong>, \n          and your final <strong>bonus reward</strong> may depend on your overall performance. \n          Please try to respond as accurately as possible.\n          </p>\n\n          <p>\n          You will first complete <strong>three practice trials</strong>. \n          Press the <strong>Enter</strong> key to start the practice phase.\n          </p>\n\n          <canvas id=\"instruction-demo-rdk\" width=\"300\" height=\"300\"style=\"display:block;margin:12px auto; border-radius: 50%;\"></canvas>\n        </div>\n      ","response":"Enter","trial_type":"html-keyboard-response","trial_index":1,"plugin_version":"2.1.0","time_elapsed":99762},{"rt":null,"stimulus":"<div class=\"fixation\" style=\"font-size: 60px;\">+</div>","response":null,"trial_type":"html-keyboard-response","trial_index":2,"plugin_version":"2.1.0","time_elapsed":100772},{"target_group":"black","target_index":1,"condition_label":"B_H_vs_W_L","rt":-1,"response":"","correct":false,"choices":"ALL_KEYS","correct_choice":["a"],"trial_duration":2000,"flip_timestamps":[],"response_ends_trial":false,"number_of_apertures":2,"number_of_dots":[50,100],"number_of_sets":1,"coherent_direction":[10,100],"coherence":1,"opposite_coherence":0,"dot_radius":2,"dot_side_length":1,"dot_life":-1,"move_distance":1,"aperture_width":300,"aperture_height":300,"dot_color":["white","black"],"dot_shape":"circle","background_color":"#AAA","RDK_type":3,"aperture_type":2,"reinsert_type":2,"frame_rate":16.81512605042017,"frame_rate_array":[6,36,24,7,18,16,17,16,17,17,17,17,17,17,17,17,17,17,17,17,17,16,17,16,17,17,16,16,17,18,19,16,17,15,17,17,17,17,17,17,17,17,17,17,17,16,17,17,17,17,16,17,16,17,16,17,17,17,16,16,17,17,17,17,17,17,16,17,16,17,17,16,17,17,16,17,17,17,17,17,16,17,16,17,17,17,18,15,17,17,16,17,17,16,17,17,17,17,16,17,17,17,16,17,16,17,16,17,17,17,16,17,17,17,17,16,16,17,17],"number_of_frames":119,"aperture_center_x":960,"aperture_center_y":540,"fixation_cross":true,"fixation_cross_width":15,"fixation_cross_height":15,"fixation_cross_color":"#111","fixation_cross_thickness":1,"border":true,"border_thickness":2,"border_color":"transparent","canvas_width":1920,"canvas_height":1080,"trial_type":"rdk","trial_index":3,"plugin_version":"2.0.0","time_elapsed":102788,"target_direction":100,"distractor_direction":10},{"rt":10213,"stimulus":"\n        <div class=\"response-container\">\n          <div class=\"response-instruction\">\n            <p>rotate the bar by using the left and right arrow keys.</p>\n            <p>when you are determined, press the Enter key.</p>\n          </div>\n          <div class=\"response-circle\">\n            <div class=\"response-fixation\"></div>\n            <div id=\"bar\" class=\"rotating-bar\"></div>\n          </div>\n        </div>\n      ","response":"Enter","trial_type":"html-keyboard-response","trial_index":4,"plugin_version":"2.1.0","time_elapsed":113003,"response_angle_css":311,"response_angle_rdk":139,"angular_error_target":39,"angular_error_distractor":129,"target_direction":100,"target_group":"black","reward_points":2},{"rt":null,"stimulus":"\n          <p style=\"color: #FF3333;\">Your reward: 2 points</p>\n        ","response":null,"trial_type":"html-keyboard-response","trial_index":5,"plugin_version":"2.1.0","time_elapsed":115010},{"rt":null,"stimulus":"<div class=\"fixation\" style=\"font-size: 60px;\">+</div>","response":null,"trial_type":"html-keyboard-response","trial_index":6,"plugin_version":"2.1.0","time_elapsed":116026},{"target_group":"white","target_index":0,"condition_label":"W_H_vs_B_L","rt":-1,"response":"","correct":false,"choices":"ALL_KEYS","correct_choice":["a"],"trial_duration":2000,"flip_timestamps":[],"response_ends_trial":false,"number_of_apertures":2,"number_of_dots":[100,50],"number_of_sets":1,"coherent_direction":[150,30],"coherence":1,"opposite_coherence":0,"dot_radius":2,"dot_side_length":1,"dot_life":-1,"move_distance":1,"aperture_width":300,"aperture_height":300,"dot_color":["white","black"],"dot_shape":"circle","background_color":"#AAA","RDK_type":3,"aperture_type":2,"reinsert_type":2,"frame_rate":16.758333333333333,"frame_rate_array":[14,17,17,16,17,17,17,16,17,16,17,17,16,17,17,17,17,17,17,17,16,16,17,17,17,17,17,17,17,17,16,17,17,17,17,17,17,17,16,17,16,17,17,16,17,17,17,16,16,16,17,17,17,16,17,17,17,17,17,17,17,16,17,17,17,17,17,16,17,17,17,17,17,17,17,17,17,17,16,17,17,17,17,16,16,17,17,16,17,17,17,17,17,16,16,17,16,17,17,17,17,17,17,17,17,16,17,17,17,16,17,17,16,17,17,17,17,17,17,17],"number_of_frames":120,"aperture_center_x":960,"aperture_center_y":540,"fixation_cross":true,"fixation_cross_width":15,"fixation_cross_height":15,"fixation_cross_color":"#111","fixation_cross_thickness":1,"border":true,"border_thickness":2,"border_color":"transparent","canvas_width":1920,"canvas_height":1080,"trial_type":"rdk","trial_index":7,"plugin_version":"2.0.0","time_elapsed":118031,"target_direction":150,"distractor_direction":30},{"rt":11841,"stimulus":"\n        <div class=\"response-container\">\n          <div class=\"response-instruction\">\n            <p>rotate the bar by using the left and right arrow keys.</p>\n            <p>when you are determined, press the Enter key.</p>\n          </div>\n          <div class=\"response-circle\">\n            <div class=\"response-fixation\"></div>\n            <div id=\"bar\" class=\"rotating-bar\"></div>\n          </div>\n        </div>\n      ","response":"Enter","trial_type":"html-keyboard-response","trial_index":8,"plugin_version":"2.1.0","time_elapsed":129873,"response_angle_css":236,"response_angle_rdk":214,"angular_error_target":64,"angular_error_distractor":-176,"target_direction":150,"target_group":"white","reward_points":0},{"rt":null,"stimulus":"\n          <p style=\"color: #FF3333;\">Your reward: 0 points</p>\n        ","response":null,"trial_type":"html-keyboard-response","trial_index":9,"plugin_version":"2.1.0","time_elapsed":131876},{"rt":null,"stimulus":"<div class=\"fixation\" style=\"font-size: 60px;\">+</div>","response":null,"trial_type":"html-keyboard-response","trial_index":10,"plugin_version":"2.1.0","time_elapsed":132879},{"target_group":"black","target_index":1,"condition_label":"B_H_vs_W_L","rt":-1,"response":"","correct":false,"choices":"ALL_KEYS","correct_choice":["a"],"trial_duration":2000,"flip_timestamps":[],"response_ends_trial":false,"number_of_apertures":2,"number_of_dots":[50,100],"number_of_sets":1,"coherent_direction":[270,180],"coherence":1,"opposite_coherence":0,"dot_radius":2,"dot_side_length":1,"dot_life":-1,"move_distance":1,"aperture_width":300,"aperture_height":300,"dot_color":["white","black"],"dot_shape":"circle","background_color":"#AAA","RDK_type":3,"aperture_type":2,"reinsert_type":2,"frame_rate":16.725,"frame_rate_array":[12,17,17,17,16,16,17,17,17,16,16,17,17,17,17,17,17,17,17,17,17,16,17,16,17,17,17,16,17,17,17,17,17,17,16,17,17,16,17,17,17,18,16,16,17,17,17,17,17,17,16,17,17,17,17,17,17,16,17,17,16,17,17,17,17,17,17,16,17,16,17,17,16,17,17,17,17,16,17,17,16,17,16,17,17,17,16,17,17,16,17,17,16,17,17,17,17,17,16,17,17,16,17,16,17,17,16,17,17,17,17,16,17,17,17,16,17,17,17,17],"number_of_frames":120,"aperture_center_x":960,"aperture_center_y":540,"fixation_cross":true,"fixation_cross_width":15,"fixation_cross_height":15,"fixation_cross_color":"#111","fixation_cross_thickness":1,"border":true,"border_thickness":2,"border_color":"transparent","canvas_width":1920,"canvas_height":1080,"trial_type":"rdk","trial_index":11,"plugin_version":"2.0.0","time_elapsed":134895,"target_direction":180,"distractor_direction":270},{"rt":3963,"stimulus":"\n        <div class=\"response-container\">\n          <div class=\"response-instruction\">\n            <p>rotate the bar by using the left and right arrow keys.</p>\n            <p>when you are determined, press the Enter key.</p>\n          </div>\n          <div class=\"response-circle\">\n            <div class=\"response-fixation\"></div>\n            <div id=\"bar\" class=\"rotating-bar\"></div>\n          </div>\n        </div>\n      ","response":"Enter","trial_type":"html-keyboard-response","trial_index":12,"plugin_version":"2.1.0","time_elapsed":138860,"response_angle_css":312,"response_angle_rdk":138,"angular_error_target":-42,"angular_error_distractor":-132,"target_direction":180,"target_group":"black","reward_points":1},{"rt":null,"stimulus":"\n          <p style=\"color: #FF3333;\">Your reward: 1 points</p>\n        ","response":null,"trial_type":"html-keyboard-response","trial_index":13,"plugin_version":"2.1.0","time_elapsed":140871},{"rt":2055,"stimulus":"\n        <div class=\"instructions-container\">\n          <h2>End of Practice</h2>\n          <p>You have completed the practice trials.</p>\n          <p>Press <strong>Enter</strong> key to begin the main experiment.</p>\n        </div>\n      ","response":"Enter","trial_type":"html-keyboard-response","trial_index":14,"plugin_version":"2.1.0","time_elapsed":142928},{"rt":null,"stimulus":"<div class=\"fixation\" style=\"font-size: 60px;\">+</div>","response":null,"trial_type":"html-keyboard-response","trial_index":15,"plugin_version":"2.1.0","time_elapsed":143937},{"target_group":"black","condition_label":"B_H_vs_W_L_rep17","target_direction":239,"distractor_direction":343,"session_rotation":122,"rt":-1,"response":"","correct":false,"choices":"ALL_KEYS","correct_choice":["a"],"trial_duration":2000,"flip_timestamps":[],"response_ends_trial":false,"number_of_apertures":200,"number_of_dots":[1,1,1,1,1,1,1,1,1,1,1,1,1,1,1,1,1,1,1,1,1,1,1,1,1,1,1,1,1,1,1,1,1,1,1,1,1,1,1,1,1,1,1,1,1,1,1,1,1,1,1,1,1,1,1,1,1,1,1,1,1,1,1,1,1,1,1,1,1,1,1,1,1,1,1,1,1,1,1,1,1,1,1,1,1,1,1,1,1,1,1,1,1,1,1,1,1,1,1,1,1,1,1,1,1,1,1,1,1,1,1,1,1,1,1,1,1,1,1,1,1,1,1,1,1,1,1,1,1,1,1,1,1,1,1,1,1,1,1,1,1,1,1,1,1,1,1,1,1,1,1,1,1,1,1,1,1,1,1,1,1,1,1,1,1,1,1,1,1,1,1,1,1,1,1,1,1,1,1,1,1,1,1,1,1,1,1,1,1,1,1,1,1,1,1,1,1,1,1,1],"number_of_sets":1,"coherent_direction":[343,239,239,239,343,343,239,343,343,239,343,239,343,239,239,239,239,343,239,343,239,343,239,343,343,343,239,239,239,343,239,343,343,343,239,239,239,343,343,343,239,239,343,239,343,343,343,343,343,239,239,343,239,343,343,239,343,239,239,239,239,239,343,343,343,343,239,239,343,343,239,343,239,239,239,239,343,343,239,239,239,239,343,239,343,239,343,343,239,239,239,239,239,343,343,343,343,239,239,239,343,239,343,343,239,343,343,343,239,343,343,343,239,239,239,343,239,343,239,239,239,343,343,343,239,343,239,343,343,239,343,239,343,239,239,239,343,239,239,239,239,239,343,343,239,239,343,239,239,343,239,343,343,343,239,343,343,239,343,343,239,239,343,239,239,343,343,343,343,239,239,343,343,343,343,239,343,239,239,343,239,343,343,343,239,343,343,239,343,343,239,239,239,239,343,343,239,239,343,343],"coherence":1,"opposite_coherence":0,"dot_radius":2,"dot_side_length":1,"dot_life":-1,"move_distance":1,"aperture_width":300,"aperture_height":300,"dot_color":["white","black","black","black","white","white","black","white","white","black","white","black","white","black","black","black","black","white","black","white","black","white","black","white","white","white","black","black","black","white","black","white","white","white","black","black","black","white","white","white","black","black","white","black","white","white","white","white","white","black","black","white","black","white","white","black","white","black","black","black","black","black","white","white","white","white","black","black","white","white","black","white","black","black","black","black","white","white","black","black","black","black","white","black","white","black","white","white","black","black","black","black","black","white","white","white","white","black","black","black","white","black","white","white","black","white","white","white","black","white","white","white","black","black","black","white","black","white","black","black","black","white","white","white","black","white","black","white","white","black","white","black","white","black","black","black","white","black","black","black","black","black","white","white","black","black","white","black","black","white","black","white","white","white","black","white","white","black","white","white","black","black","white","black","black","white","white","white","white","black","black","white","white","white","white","black","white","black","black","white","black","white","white","white","black","white","white","black","white","white","black","black","black","black","white","white","black","black","white","white"],"dot_shape":"circle","background_color":"#AAA","RDK_type":3,"aperture_type":2,"reinsert_type":2,"frame_rate":16.708333333333332,"frame_rate_array":[11,17,17,17,17,17,17,17,16,17,17,16,17,16,17,17,16,17,17,16,17,17,17,17,16,17,17,16,18,17,16,16,16,17,17,17,17,17,16,17,17,16,16,17,17,16,17,17,17,17,17,17,17,17,16,17,17,17,17,17,16,16,16,17,17,17,17,16,17,17,17,16,17,16,17,17,17,17,17,17,16,17,17,17,17,16,17,16,17,16,17,17,17,18,16,17,17,17,17,16,17,18,16,16,17,17,16,17,17,17,16,17,17,17,17,17,17,17,16,17],"number_of_frames":120,"aperture_center_x":960,"aperture_center_y":540,"fixation_cross":true,"fixation_cross_width":15,"fixation_cross_height":15,"fixation_cross_color":"#111","fixation_cross_thickness":1,"border":true,"border_thickness":2,"border_color":"transparent","canvas_width":1920,"canvas_height":1080,"trial_type":"rdk","trial_index":16,"plugin_version":"2.0.0","time_elapsed":145950},{"rt":7863,"stimulus":"\n        <div class=\"response-container\">\n          <div class=\"response-instruction\">\n            <p>rotate the bar by using the left and right arrow keys.</p>\n            <p>when you are determined, press the Enter key.</p>\n          </div>\n          <div class=\"response-circle\">\n            <div class=\"response-fixation\"></div>\n            <div id=\"bar\" class=\"rotating-bar\"></div>\n          </div>\n        </div>\n      ","response":"Enter","trial_type":"html-keyboard-response","trial_index":17,"plugin_version":"2.1.0","time_elapsed":153815,"response_angle_css":109,"response_angle_rdk":341,"angular_error_target":102,"angular_error_distractor":-2,"target_direction":239,"target_group":"black","reward_points":0},{"rt":null,"stimulus":"\n          <p style=\"color: #FF3333;\">Your reward: 0 points</p>\n        ","response":null,"trial_type":"html-keyboard-response","trial_index":18,"plugin_version":"2.1.0","time_elapsed":155827},{"rt":null,"stimulus":"<div class=\"fixation\" style=\"font-size: 60px;\">+</div>","response":null,"trial_type":"html-keyboard-response","trial_index":19,"plugin_version":"2.1.0","time_elapsed":156841},{"target_group":"black","condition_label":"B_H_vs_W_L_rep16","target_direction":225,"distractor_direction":321,"session_rotation":122,"rt":-1,"response":"","correct":false,"choices":"ALL_KEYS","correct_choice":["a"],"trial_duration":2000,"flip_timestamps":[],"response_ends_trial":false,"number_of_apertures":200,"number_of_dots":[1,1,1,1,1,1,1,1,1,1,1,1,1,1,1,1,1,1,1,1,1,1,1,1,1,1,1,1,1,1,1,1,1,1,1,1,1,1,1,1,1,1,1,1,1,1,1,1,1,1,1,1,1,1,1,1,1,1,1,1,1,1,1,1,1,1,1,1,1,1,1,1,1,1,1,1,1,1,1,1,1,1,1,1,1,1,1,1,1,1,1,1,1,1,1,1,1,1,1,1,1,1,1,1,1,1,1,1,1,1,1,1,1,1,1,1,1,1,1,1,1,1,1,1,1,1,1,1,1,1,1,1,1,1,1,1,1,1,1,1,1,1,1,1,1,1,1,1,1,1,1,1,1,1,1,1,1,1,1,1,1,1,1,1,1,1,1,1,1,1,1,1,1,1,1,1,1,1,1,1,1,1,1,1,1,1,1,1,1,1,1,1,1,1,1,1,1,1,1,1],"number_of_sets":1,"coherent_direction":[225,321,321,225,225,225,321,225,225,225,321,225,321,225,321,321,225,225,321,321,321,321,225,321,321,225,225,321,321,321,225,225,321,321,225,321,225,225,225,225,225,321,321,321,225,225,321,225,321,225,225,225,321,321,321,321,225,321,321,321,321,321,321,321,225,225,225,321,225,225,225,321,225,225,225,225,321,225,321,225,321,225,321,225,321,225,225,321,321,321,225,321,225,321,321,321,225,225,225,321,321,225,225,225,321,225,225,321,321,321,321,225,225,321,321,225,225,225,321,225,225,225,225,225,225,321,321,321,225,321,321,321,321,225,321,321,225,321,225,321,321,321,225,321,225,321,321,321,321,225,225,321,225,321,225,225,225,321,225,321,225,321,225,225,321,225,225,225,321,321,225,321,225,321,225,225,321,321,225,321,321,225,321,225,225,321,321,225,321,225,321,225,321,321,225,225,225,321,225,321],"coherence":1,"opposite_coherence":0,"dot_radius":2,"dot_side_length":1,"dot_life":-1,"move_distance":1,"aperture_width":300,"aperture_height":300,"dot_color":["black","white","white","black","black","black","white","black","black","black","white","black","white","black","white","white","black","black","white","white","white","white","black","white","white","black","black","white","white","white","black","black","white","white","black","white","black","black","black","black","black","white","white","white","black","black","white","black","white","black","black","black","white","white","white","white","black","white","white","white","white","white","white","white","black","black","black","white","black","black","black","white","black","black","black","black","white","black","white","black","white","black","white","black","white","black","black","white","white","white","black","white","black","white","white","white","black","black","black","white","white","black","black","black","white","black","black","white","white","white","white","black","black","white","white","black","black","black","white","black","black","black","black","black","black","white","white","white","black","white","white","white","white","black","white","white","black","white","black","white","white","white","black","white","black","white","white","white","white","black","black","white","black","white","black","black","black","white","black","white","black","white","black","black","white","black","black","black","white","white","black","white","black","white","black","black","white","white","black","white","white","black","white","black","black","white","white","black","white","black","white","black","white","white","black","black","black","white","black","white"],"dot_shape":"circle","background_color":"#AAA","RDK_type":3,"aperture_type":2,"reinsert_type":2,"frame_rate":16.675,"frame_rate_array":[8,17,16,17,17,16,17,17,17,16,17,17,17,17,16,18,16,17,17,17,17,17,17,16,16,17,17,17,17,17,17,16,17,16,17,17,16,17,17,17,16,17,16,16,17,17,17,16,17,16,17,16,16,17,17,17,17,17,17,17,18,15,17,17,17,16,17,17,16,17,17,17,16,17,17,18,15,17,17,18,15,17,17,17,17,17,16,17,16,17,16,17,17,17,17,17,17,18,15,17,16,16,17,17,17,17,17,16,17,17,17,17,17,17,18,16,17,17,16,17],"number_of_frames":120,"aperture_center_x":960,"aperture_center_y":540,"fixation_cross":true,"fixation_cross_width":15,"fixation_cross_height":15,"fixation_cross_color":"#111","fixation_cross_thickness":1,"border":true,"border_thickness":2,"border_color":"transparent","canvas_width":1920,"canvas_height":1080,"trial_type":"rdk","trial_index":20,"plugin_version":"2.0.0","time_elapsed":158858},{"rt":5476,"stimulus":"\n        <div class=\"response-container\">\n          <div class=\"response-instruction\">\n            <p>rotate the bar by using the left and right arrow keys.</p>\n            <p>when you are determined, press the Enter key.</p>\n          </div>\n          <div class=\"response-circle\">\n            <div class=\"response-fixation\"></div>\n            <div id=\"bar\" class=\"rotating-bar\"></div>\n          </div>\n        </div>\n      ","response":"Enter","trial_type":"html-keyboard-response","trial_index":21,"plugin_version":"2.1.0","time_elapsed":164336,"response_angle_css":-117,"response_angle_rdk":207,"angular_error_target":-18,"angular_error_distractor":-114,"target_direction":225,"target_group":"black","reward_points":6},{"rt":null,"stimulus":"\n          <p style=\"color: #00FF00;\">Your reward: 6 points</p>\n        ","response":null,"trial_type":"html-keyboard-response","trial_index":22,"plugin_version":"2.1.0","time_elapsed":166351},{"rt":null,"stimulus":"<div class=\"fixation\" style=\"font-size: 60px;\">+</div>","response":null,"trial_type":"html-keyboard-response","trial_index":23,"plugin_version":"2.1.0","time_elapsed":167367},{"target_group":"black","condition_label":"B_H_vs_W_L_rep23","target_direction":233,"distractor_direction":326,"session_rotation":122,"rt":-1,"response":"","correct":false,"choices":"ALL_KEYS","correct_choice":["a"],"trial_duration":2000,"flip_timestamps":[],"response_ends_trial":false,"number_of_apertures":200,"number_of_dots":[1,1,1,1,1,1,1,1,1,1,1,1,1,1,1,1,1,1,1,1,1,1,1,1,1,1,1,1,1,1,1,1,1,1,1,1,1,1,1,1,1,1,1,1,1,1,1,1,1,1,1,1,1,1,1,1,1,1,1,1,1,1,1,1,1,1,1,1,1,1,1,1,1,1,1,1,1,1,1,1,1,1,1,1,1,1,1,1,1,1,1,1,1,1,1,1,1,1,1,1,1,1,1,1,1,1,1,1,1,1,1,1,1,1,1,1,1,1,1,1,1,1,1,1,1,1,1,1,1,1,1,1,1,1,1,1,1,1,1,1,1,1,1,1,1,1,1,1,1,1,1,1,1,1,1,1,1,1,1,1,1,1,1,1,1,1,1,1,1,1,1,1,1,1,1,1,1,1,1,1,1,1,1,1,1,1,1,1,1,1,1,1,1,1,1,1,1,1,1,1],"number_of_sets":1,"coherent_direction":[233,233,233,326,233,326,233,233,233,233,326,326,326,233,326,326,326,233,233,233,233,233,233,233,326,233,233,233,326,233,326,233,233,326,326,233,233,326,326,233,326,326,326,326,233,233,233,233,326,326,326,326,233,233,326,233,233,233,326,326,233,326,233,326,326,233,326,233,233,326,233,233,326,233,233,233,326,233,233,326,326,326,233,233,326,326,326,233,326,326,326,233,233,326,326,233,326,233,233,326,233,326,326,326,233,326,326,326,233,326,233,326,233,326,326,326,233,233,233,233,326,326,326,326,233,233,233,326,326,233,326,326,233,233,326,233,326,233,326,233,326,233,326,233,233,233,233,326,233,233,326,233,326,326,233,326,326,326,233,233,233,233,326,233,326,326,326,326,233,233,326,326,233,326,233,326,233,233,326,326,233,326,233,326,326,326,326,326,233,326,233,233,233,326,326,326,326,326,233,233],"coherence":1,"opposite_coherence":0,"dot_radius":2,"dot_side_length":1,"dot_life":-1,"move_distance":1,"aperture_width":300,"aperture_height":300,"dot_color":["black","black","black","white","black","white","black","black","black","black","white","white","white","black","white","white","white","black","black","black","black","black","black","black","white","black","black","black","white","black","white","black","black","white","white","black","black","white","white","black","white","white","white","white","black","black","black","black","white","white","white","white","black","black","white","black","black","black","white","white","black","white","black","white","white","black","white","black","black","white","black","black","white","black","black","black","white","black","black","white","white","white","black","black","white","white","white","black","white","white","white","black","black","white","white","black","white","black","black","white","black","white","white","white","black","white","white","white","black","white","black","white","black","white","white","white","black","black","black","black","white","white","white","white","black","black","black","white","white","black","white","white","black","black","white","black","white","black","white","black","white","black","white","black","black","black","black","white","black","black","white","black","white","white","black","white","white","white","black","black","black","black","white","black","white","white","white","white","black","black","white","white","black","white","black","white","black","black","white","white","black","white","black","white","white","white","white","white","black","white","black","black","black","white","white","white","white","white","black","black"],"dot_shape":"circle","background_color":"#AAA","RDK_type":3,"aperture_type":2,"reinsert_type":2,"frame_rate":16.741666666666667,"frame_rate_array":[15,18,17,17,16,17,17,17,17,17,17,17,16,16,17,17,16,17,17,16,17,17,17,16,17,16,17,17,17,17,17,17,16,17,17,16,17,17,17,17,16,17,16,17,16,17,17,17,16,17,17,17,17,17,16,17,17,16,17,17,16,17,17,16,17,17,16,16,17,17,17,17,16,17,17,16,17,17,17,17,17,17,16,17,16,17,17,17,17,17,16,17,16,17,17,17,17,17,16,17,17,17,17,16,17,16,17,17,17,17,17,16,17,17,16,17,17,17,17,17],"number_of_frames":120,"aperture_center_x":960,"aperture_center_y":540,"fixation_cross":true,"fixation_cross_width":15,"fixation_cross_height":15,"fixation_cross_color":"#111","fixation_cross_thickness":1,"border":true,"border_thickness":2,"border_color":"transparent","canvas_width":1920,"canvas_height":1080,"trial_type":"rdk","trial_index":24,"plugin_version":"2.0.0","time_elapsed":169371},{"rt":4969,"stimulus":"\n        <div class=\"response-container\">\n          <div class=\"response-instruction\">\n            <p>rotate the bar by using the left and right arrow keys.</p>\n            <p>when you are determined, press the Enter key.</p>\n          </div>\n          <div class=\"response-circle\">\n            <div class=\"response-fixation\"></div>\n            <div id=\"bar\" class=\"rotating-bar\"></div>\n          </div>\n        </div>\n      ","response":"Enter","trial_type":"html-keyboard-response","trial_index":25,"plugin_version":"2.1.0","time_elapsed":174341,"response_angle_css":483,"response_angle_rdk":327,"angular_error_target":94,"angular_error_distractor":1,"target_direction":233,"target_group":"black","reward_points":0},{"rt":null,"stimulus":"\n          <p style=\"color: #FF3333;\">Your reward: 0 points</p>\n        ","response":null,"trial_type":"html-keyboard-response","trial_index":26,"plugin_version":"2.1.0","time_elapsed":176343},{"rt":null,"stimulus":"<div class=\"fixation\" style=\"font-size: 60px;\">+</div>","response":null,"trial_type":"html-keyboard-response","trial_index":27,"plugin_version":"2.1.0","time_elapsed":177353},{"target_group":"white","condition_label":"W_H_vs_B_L_rep18","target_direction":129,"distractor_direction":38,"session_rotation":122,"rt":-1,"response":"","correct":false,"choices":"ALL_KEYS","correct_choice":["a"],"trial_duration":2000,"flip_timestamps":[],"response_ends_trial":false,"number_of_apertures":200,"number_of_dots":[1,1,1,1,1,1,1,1,1,1,1,1,1,1,1,1,1,1,1,1,1,1,1,1,1,1,1,1,1,1,1,1,1,1,1,1,1,1,1,1,1,1,1,1,1,1,1,1,1,1,1,1,1,1,1,1,1,1,1,1,1,1,1,1,1,1,1,1,1,1,1,1,1,1,1,1,1,1,1,1,1,1,1,1,1,1,1,1,1,1,1,1,1,1,1,1,1,1,1,1,1,1,1,1,1,1,1,1,1,1,1,1,1,1,1,1,1,1,1,1,1,1,1,1,1,1,1,1,1,1,1,1,1,1,1,1,1,1,1,1,1,1,1,1,1,1,1,1,1,1,1,1,1,1,1,1,1,1,1,1,1,1,1,1,1,1,1,1,1,1,1,1,1,1,1,1,1,1,1,1,1,1,1,1,1,1,1,1,1,1,1,1,1,1,1,1,1,1,1,1],"number_of_sets":1,"coherent_direction":[129,129,129,38,38,38,129,38,129,129,129,38,38,129,129,129,38,38,38,38,129,129,129,129,38,129,129,129,38,38,38,129,129,38,38,129,129,129,38,38,129,38,38,38,38,38,129,38,38,38,129,38,38,38,38,38,129,38,129,38,129,129,129,38,38,129,38,38,38,38,129,129,129,129,38,38,38,129,129,38,38,38,38,129,38,129,129,38,129,38,129,38,129,129,38,38,38,38,129,38,129,129,38,129,38,129,38,129,38,38,129,38,129,129,129,129,38,38,129,129,129,129,38,129,38,129,38,38,38,129,38,129,38,38,38,38,38,38,129,129,38,129,129,129,129,129,129,38,129,38,38,38,129,38,38,38,129,129,38,129,38,129,129,38,129,129,38,38,129,38,129,38,38,38,129,129,129,129,129,38,129,129,38,129,129,129,129,38,38,129,38,129,129,38,38,129,129,129,129,38],"coherence":1,"opposite_coherence":0,"dot_radius":2,"dot_side_length":1,"dot_life":-1,"move_distance":1,"aperture_width":300,"aperture_height":300,"dot_color":["white","white","white","black","black","black","white","black","white","white","white","black","black","white","white","white","black","black","black","black","white","white","white","white","black","white","white","white","black","black","black","white","white","black","black","white","white","white","black","black","white","black","black","black","black","black","white","black","black","black","white","black","black","black","black","black","white","black","white","black","white","white","white","black","black","white","black","black","black","black","white","white","white","white","black","black","black","white","white","black","black","black","black","white","black","white","white","black","white","black","white","black","white","white","black","black","black","black","white","black","white","white","black","white","black","white","black","white","black","black","white","black","white","white","white","white","black","black","white","white","white","white","black","white","black","white","black","black","black","white","black","white","black","black","black","black","black","black","white","white","black","white","white","white","white","white","white","black","white","black","black","black","white","black","black","black","white","white","black","white","black","white","white","black","white","white","black","black","white","black","white","black","black","black","white","white","white","white","white","black","white","white","black","white","white","white","white","black","black","white","black","white","white","black","black","white","white","white","white","black"],"dot_shape":"circle","background_color":"#AAA","RDK_type":3,"aperture_type":2,"reinsert_type":2,"frame_rate":16.619834710743802,"frame_rate_array":[8,11,17,17,17,17,16,17,16,17,16,18,17,17,17,16,17,17,16,17,17,16,17,16,17,17,17,18,16,17,17,16,17,17,16,17,18,15,17,16,16,18,17,16,17,17,17,17,17,17,17,17,16,17,18,15,17,16,16,17,17,16,16,17,18,16,17,17,16,17,17,17,16,17,17,15,17,17,16,17,17,16,17,17,16,16,17,16,17,16,18,16,17,18,16,17,17,17,16,17,17,17,17,17,17,17,17,17,16,17,17,17,17,17,17,17,16,17,16,17,17],"number_of_frames":121,"aperture_center_x":960,"aperture_center_y":540,"fixation_cross":true,"fixation_cross_width":15,"fixation_cross_height":15,"fixation_cross_color":"#111","fixation_cross_thickness":1,"border":true,"border_thickness":2,"border_color":"transparent","canvas_width":1920,"canvas_height":1080,"trial_type":"rdk","trial_index":28,"plugin_version":"2.0.0","time_elapsed":179363},{"rt":4105,"stimulus":"\n        <div class=\"response-container\">\n          <div class=\"response-instruction\">\n            <p>rotate the bar by using the left and right arrow keys.</p>\n            <p>when you are determined, press the Enter key.</p>\n          </div>\n          <div class=\"response-circle\">\n            <div class=\"response-fixation\"></div>\n            <div id=\"bar\" class=\"rotating-bar\"></div>\n          </div>\n        </div>\n      ","response":"Enter","trial_type":"html-keyboard-response","trial_index":29,"plugin_version":"2.1.0","time_elapsed":183469,"response_angle_css":326,"response_angle_rdk":124,"angular_error_target":-5,"angular_error_distractor":86,"target_direction":129,"target_group":"white","reward_points":9},{"rt":null,"stimulus":"\n          <p style=\"color: #00FF00;\">Your reward: 9 points</p>\n        ","response":null,"trial_type":"html-keyboard-response","trial_index":30,"plugin_version":"2.1.0","time_elapsed":185478},{"rt":null,"stimulus":"<div class=\"fixation\" style=\"font-size: 60px;\">+</div>","response":null,"trial_type":"html-keyboard-response","trial_index":31,"plugin_version":"2.1.0","time_elapsed":186485},{"target_group":"white","condition_label":"W_H_vs_B_L_rep14","target_direction":152,"distractor_direction":56,"session_rotation":122,"rt":-1,"response":"","correct":false,"choices":"ALL_KEYS","correct_choice":["a"],"trial_duration":2000,"flip_timestamps":[],"response_ends_trial":false,"number_of_apertures":200,"number_of_dots":[1,1,1,1,1,1,1,1,1,1,1,1,1,1,1,1,1,1,1,1,1,1,1,1,1,1,1,1,1,1,1,1,1,1,1,1,1,1,1,1,1,1,1,1,1,1,1,1,1,1,1,1,1,1,1,1,1,1,1,1,1,1,1,1,1,1,1,1,1,1,1,1,1,1,1,1,1,1,1,1,1,1,1,1,1,1,1,1,1,1,1,1,1,1,1,1,1,1,1,1,1,1,1,1,1,1,1,1,1,1,1,1,1,1,1,1,1,1,1,1,1,1,1,1,1,1,1,1,1,1,1,1,1,1,1,1,1,1,1,1,1,1,1,1,1,1,1,1,1,1,1,1,1,1,1,1,1,1,1,1,1,1,1,1,1,1,1,1,1,1,1,1,1,1,1,1,1,1,1,1,1,1,1,1,1,1,1,1,1,1,1,1,1,1,1,1,1,1,1,1],"number_of_sets":1,"coherent_direction":[152,152,152,152,56,152,152,152,152,56,56,152,56,56,56,152,56,56,152,152,56,56,152,56,56,56,56,56,56,152,56,152,152,152,152,56,152,56,56,56,152,152,152,152,56,152,152,152,56,152,56,56,56,152,152,152,56,56,56,152,152,56,152,152,56,56,56,56,56,152,152,56,56,56,56,152,56,56,56,56,56,56,56,152,152,56,152,152,56,56,152,152,152,152,152,152,152,152,56,152,56,56,152,152,152,56,56,56,152,56,56,152,56,152,56,152,56,152,56,56,152,152,56,152,56,152,56,56,56,152,56,152,152,152,56,56,152,56,56,152,152,152,152,152,56,56,56,152,152,152,56,56,56,56,152,152,152,152,152,56,152,152,56,56,56,56,56,56,152,152,152,56,152,152,56,152,56,56,56,152,56,56,56,56,152,152,56,152,152,56,152,152,152,56,56,152,152,152,152,56],"coherence":1,"opposite_coherence":0,"dot_radius":2,"dot_side_length":1,"dot_life":-1,"move_distance":1,"aperture_width":300,"aperture_height":300,"dot_color":["white","white","white","white","black","white","white","white","white","black","black","white","black","black","black","white","black","black","white","white","black","black","white","black","black","black","black","black","black","white","black","white","white","white","white","black","white","black","black","black","white","white","white","white","black","white","white","white","black","white","black","black","black","white","white","white","black","black","black","white","white","black","white","white","black","black","black","black","black","white","white","black","black","black","black","white","black","black","black","black","black","black","black","white","white","black","white","white","black","black","white","white","white","white","white","white","white","white","black","white","black","black","white","white","white","black","black","black","white","black","black","white","black","white","black","white","black","white","black","black","white","white","black","white","black","white","black","black","black","white","black","white","white","white","black","black","white","black","black","white","white","white","white","white","black","black","black","white","white","white","black","black","black","black","white","white","white","white","white","black","white","white","black","black","black","black","black","black","white","white","white","black","white","white","black","white","black","black","black","white","black","black","black","black","white","white","black","white","white","black","white","white","white","black","black","white","white","white","white","black"],"dot_shape":"circle","background_color":"#AAA","RDK_type":3,"aperture_type":2,"reinsert_type":2,"frame_rate":16.683333333333334,"frame_rate_array":[10,16,18,16,16,16,16,17,17,16,18,17,16,17,17,17,16,17,17,17,17,17,17,16,17,17,16,17,17,17,17,17,16,17,16,16,17,17,17,17,16,17,17,17,17,17,16,17,17,17,17,17,16,17,17,16,17,17,16,17,16,17,17,17,17,17,16,17,17,17,17,16,17,17,17,16,17,16,17,17,16,17,17,16,16,17,17,16,17,17,17,17,16,17,17,17,17,17,16,17,16,17,17,16,17,17,17,17,17,17,17,17,16,17,17,17,17,17,16,17],"number_of_frames":120,"aperture_center_x":960,"aperture_center_y":540,"fixation_cross":true,"fixation_cross_width":15,"fixation_cross_height":15,"fixation_cross_color":"#111","fixation_cross_thickness":1,"border":true,"border_thickness":2,"border_color":"transparent","canvas_width":1920,"canvas_height":1080,"trial_type":"rdk","trial_index":32,"plugin_version":"2.0.0","time_elapsed":188499},{"rt":6781,"stimulus":"\n        <div class=\"response-container\">\n          <div class=\"response-instruction\">\n            <p>rotate the bar by using the left and right arrow keys.</p>\n            <p>when you are determined, press the Enter key.</p>\n          </div>\n          <div class=\"response-circle\">\n            <div class=\"response-fixation\"></div>\n            <div id=\"bar\" class=\"rotating-bar\"></div>\n          </div>\n        </div>\n      ","response":"Enter","trial_type":"html-keyboard-response","trial_index":33,"plugin_version":"2.1.0","time_elapsed":195281,"response_angle_css":316,"response_angle_rdk":134,"angular_error_target":-18,"angular_error_distractor":78,"target_direction":152,"target_group":"white","reward_points":6},{"rt":null,"stimulus":"\n          <p style=\"color: #00FF00;\">Your reward: 6 points</p>\n        ","response":null,"trial_type":"html-keyboard-response","trial_index":34,"plugin_version":"2.1.0","time_elapsed":197290},{"rt":null,"stimulus":"<div class=\"fixation\" style=\"font-size: 60px;\">+</div>","response":null,"trial_type":"html-keyboard-response","trial_index":35,"plugin_version":"2.1.0","time_elapsed":198298},{"target_group":"black","condition_label":"B_H_vs_W_L_rep25","target_direction":218,"distractor_direction":331,"session_rotation":122,"rt":-1,"response":"","correct":false,"choices":"ALL_KEYS","correct_choice":["a"],"trial_duration":2000,"flip_timestamps":[],"response_ends_trial":false,"number_of_apertures":200,"number_of_dots":[1,1,1,1,1,1,1,1,1,1,1,1,1,1,1,1,1,1,1,1,1,1,1,1,1,1,1,1,1,1,1,1,1,1,1,1,1,1,1,1,1,1,1,1,1,1,1,1,1,1,1,1,1,1,1,1,1,1,1,1,1,1,1,1,1,1,1,1,1,1,1,1,1,1,1,1,1,1,1,1,1,1,1,1,1,1,1,1,1,1,1,1,1,1,1,1,1,1,1,1,1,1,1,1,1,1,1,1,1,1,1,1,1,1,1,1,1,1,1,1,1,1,1,1,1,1,1,1,1,1,1,1,1,1,1,1,1,1,1,1,1,1,1,1,1,1,1,1,1,1,1,1,1,1,1,1,1,1,1,1,1,1,1,1,1,1,1,1,1,1,1,1,1,1,1,1,1,1,1,1,1,1,1,1,1,1,1,1,1,1,1,1,1,1,1,1,1,1,1,1],"number_of_sets":1,"coherent_direction":[218,218,218,331,218,218,331,331,218,331,218,218,218,331,331,218,331,331,331,331,218,331,331,218,218,331,331,218,331,218,331,218,331,331,331,218,218,331,331,331,331,218,218,218,218,218,218,331,331,331,218,331,218,218,331,218,218,218,218,331,218,331,331,218,331,331,331,331,331,331,331,331,218,331,218,331,331,218,218,218,331,331,331,218,331,331,218,218,218,218,218,218,331,218,331,331,218,218,218,331,331,331,331,331,218,218,218,331,331,331,331,331,331,331,218,218,218,331,218,331,331,218,218,218,331,218,331,218,218,218,218,218,331,331,218,218,331,331,331,218,331,218,331,218,218,218,218,218,331,218,331,218,218,218,218,218,331,218,331,331,218,331,331,218,218,218,331,331,331,218,331,331,218,331,331,218,331,331,218,331,218,218,218,218,331,331,331,331,331,218,218,218,218,218,218,331,331,218,331,331],"coherence":1,"opposite_coherence":0,"dot_radius":2,"dot_side_length":1,"dot_life":-1,"move_distance":1,"aperture_width":300,"aperture_height":300,"dot_color":["black","black","black","white","black","black","white","white","black","white","black","black","black","white","white","black","white","white","white","white","black","white","white","black","black","white","white","black","white","black","white","black","white","white","white","black","black","white","white","white","white","black","black","black","black","black","black","white","white","white","black","white","black","black","white","black","black","black","black","white","black","white","white","black","white","white","white","white","white","white","white","white","black","white","black","white","white","black","black","black","white","white","white","black","white","white","black","black","black","black","black","black","white","black","white","white","black","black","black","white","white","white","white","white","black","black","black","white","white","white","white","white","white","white","black","black","black","white","black","white","white","black","black","black","white","black","white","black","black","black","black","black","white","white","black","black","white","white","white","black","white","black","white","black","black","black","black","black","white","black","white","black","black","black","black","black","white","black","white","white","black","white","white","black","black","black","white","white","white","black","white","white","black","white","white","black","white","white","black","white","black","black","black","black","white","white","white","white","white","black","black","black","black","black","black","white","white","black","white","white"],"dot_shape":"circle","background_color":"#AAA","RDK_type":3,"aperture_type":2,"reinsert_type":2,"frame_rate":16.683333333333334,"frame_rate_array":[7,17,17,17,16,17,17,16,17,16,16,17,16,17,17,17,17,16,17,17,16,16,17,17,17,17,17,17,16,17,17,17,17,17,17,16,17,17,16,17,16,17,17,17,17,17,17,17,17,17,17,17,16,17,17,17,17,16,17,16,17,17,18,16,17,17,17,16,17,17,17,17,17,17,17,16,17,17,17,16,17,16,17,16,17,17,16,16,17,16,17,17,16,17,16,17,17,17,18,16,17,17,17,17,17,16,17,17,17,16,17,17,16,16,17,17,17,17,17,18],"number_of_frames":120,"aperture_center_x":960,"aperture_center_y":540,"fixation_cross":true,"fixation_cross_width":15,"fixation_cross_height":15,"fixation_cross_color":"#111","fixation_cross_thickness":1,"border":true,"border_thickness":2,"border_color":"transparent","canvas_width":1920,"canvas_height":1080,"trial_type":"rdk","trial_index":36,"plugin_version":"2.0.0","time_elapsed":200309},{"rt":4155,"stimulus":"\n        <div class=\"response-container\">\n          <div class=\"response-instruction\">\n            <p>rotate the bar by using the left and right arrow keys.</p>\n            <p>when you are determined, press the Enter key.</p>\n          </div>\n          <div class=\"response-circle\">\n            <div class=\"response-fixation\"></div>\n            <div id=\"bar\" class=\"rotating-bar\"></div>\n          </div>\n        </div>\n      ","response":"Enter","trial_type":"html-keyboard-response","trial_index":37,"plugin_version":"2.1.0","time_elapsed":204465,"response_angle_css":476,"response_angle_rdk":334,"angular_error_target":116,"angular_error_distractor":3,"target_direction":218,"target_group":"black","reward_points":0},{"rt":null,"stimulus":"\n          <p style=\"color: #FF3333;\">Your reward: 0 points</p>\n        ","response":null,"trial_type":"html-keyboard-response","trial_index":38,"plugin_version":"2.1.0","time_elapsed":206476},{"rt":null,"stimulus":"<div class=\"fixation\" style=\"font-size: 60px;\">+</div>","response":null,"trial_type":"html-keyboard-response","trial_index":39,"plugin_version":"2.1.0","time_elapsed":207482},{"target_group":"white","condition_label":"W_H_vs_B_L_rep16","target_direction":163,"distractor_direction":53,"session_rotation":122,"rt":-1,"response":"","correct":false,"choices":"ALL_KEYS","correct_choice":["a"],"trial_duration":2000,"flip_timestamps":[],"response_ends_trial":false,"number_of_apertures":200,"number_of_dots":[1,1,1,1,1,1,1,1,1,1,1,1,1,1,1,1,1,1,1,1,1,1,1,1,1,1,1,1,1,1,1,1,1,1,1,1,1,1,1,1,1,1,1,1,1,1,1,1,1,1,1,1,1,1,1,1,1,1,1,1,1,1,1,1,1,1,1,1,1,1,1,1,1,1,1,1,1,1,1,1,1,1,1,1,1,1,1,1,1,1,1,1,1,1,1,1,1,1,1,1,1,1,1,1,1,1,1,1,1,1,1,1,1,1,1,1,1,1,1,1,1,1,1,1,1,1,1,1,1,1,1,1,1,1,1,1,1,1,1,1,1,1,1,1,1,1,1,1,1,1,1,1,1,1,1,1,1,1,1,1,1,1,1,1,1,1,1,1,1,1,1,1,1,1,1,1,1,1,1,1,1,1,1,1,1,1,1,1,1,1,1,1,1,1,1,1,1,1,1,1],"number_of_sets":1,"coherent_direction":[163,53,163,53,53,53,163,53,53,53,53,163,53,163,163,53,53,163,163,53,53,53,53,53,163,163,53,163,163,53,53,163,163,53,163,163,163,163,53,53,53,53,163,163,163,163,53,163,53,53,53,163,53,163,163,53,53,163,163,163,53,53,53,163,53,53,163,53,53,53,53,163,53,163,53,163,163,53,53,163,53,53,163,53,53,163,163,53,53,53,53,163,53,53,163,163,53,53,163,53,53,53,163,163,163,163,53,53,163,163,53,163,163,53,53,163,163,163,53,53,53,163,163,163,53,163,163,163,53,163,53,163,53,163,163,53,163,53,163,53,163,163,53,163,163,163,53,163,53,163,53,53,53,53,53,53,163,163,163,163,163,53,163,53,53,53,163,53,53,163,163,53,53,163,53,163,53,163,53,163,163,163,163,163,53,163,163,163,53,53,163,163,163,163,163,53,53,163,53,163],"coherence":1,"opposite_coherence":0,"dot_radius":2,"dot_side_length":1,"dot_life":-1,"move_distance":1,"aperture_width":300,"aperture_height":300,"dot_color":["white","black","white","black","black","black","white","black","black","black","black","white","black","white","white","black","black","white","white","black","black","black","black","black","white","white","black","white","white","black","black","white","white","black","white","white","white","white","black","black","black","black","white","white","white","white","black","white","black","black","black","white","black","white","white","black","black","white","white","white","black","black","black","white","black","black","white","black","black","black","black","white","black","white","black","white","white","black","black","white","black","black","white","black","black","white","white","black","black","black","black","white","black","black","white","white","black","black","white","black","black","black","white","white","white","white","black","black","white","white","black","white","white","black","black","white","white","white","black","black","black","white","white","white","black","white","white","white","black","white","black","white","black","white","white","black","white","black","white","black","white","white","black","white","white","white","black","white","black","white","black","black","black","black","black","black","white","white","white","white","white","black","white","black","black","black","white","black","black","white","white","black","black","white","black","white","black","white","black","white","white","white","white","white","black","white","white","white","black","black","white","white","white","white","white","black","black","white","black","white"],"dot_shape":"circle","background_color":"#AAA","RDK_type":3,"aperture_type":2,"reinsert_type":2,"frame_rate":16.520661157024794,"frame_rate_array":[4,6,18,16,16,17,17,17,16,17,16,17,17,18,16,17,16,17,17,16,17,17,17,17,17,16,17,16,17,18,16,16,16,18,18,16,17,16,17,17,17,16,18,16,17,17,17,17,16,16,17,16,18,16,17,16,18,15,18,16,16,16,17,17,17,17,16,17,17,16,17,17,17,17,17,16,17,16,17,17,17,17,16,17,17,17,17,17,17,17,17,16,17,16,17,17,17,17,17,16,17,18,16,16,17,15,17,17,16,16,17,16,17,17,16,17,17,17,16,17,16],"number_of_frames":121,"aperture_center_x":960,"aperture_center_y":540,"fixation_cross":true,"fixation_cross_width":15,"fixation_cross_height":15,"fixation_cross_color":"#111","fixation_cross_thickness":1,"border":true,"border_thickness":2,"border_color":"transparent","canvas_width":1920,"canvas_height":1080,"trial_type":"rdk","trial_index":40,"plugin_version":"2.0.0","time_elapsed":209488},{"rt":4554,"stimulus":"\n        <div class=\"response-container\">\n          <div class=\"response-instruction\">\n            <p>rotate the bar by using the left and right arrow keys.</p>\n            <p>when you are determined, press the Enter key.</p>\n          </div>\n          <div class=\"response-circle\">\n            <div class=\"response-fixation\"></div>\n            <div id=\"bar\" class=\"rotating-bar\"></div>\n          </div>\n        </div>\n      ","response":"Enter","trial_type":"html-keyboard-response","trial_index":41,"plugin_version":"2.1.0","time_elapsed":214043,"response_angle_css":-129,"response_angle_rdk":219,"angular_error_target":56,"angular_error_distractor":166,"target_direction":163,"target_group":"white","reward_points":0},{"rt":null,"stimulus":"\n          <p style=\"color: #FF3333;\">Your reward: 0 points</p>\n        ","response":null,"trial_type":"html-keyboard-response","trial_index":42,"plugin_version":"2.1.0","time_elapsed":216060},{"rt":null,"stimulus":"<div class=\"fixation\" style=\"font-size: 60px;\">+</div>","response":null,"trial_type":"html-keyboard-response","trial_index":43,"plugin_version":"2.1.0","time_elapsed":217076},{"target_group":"black","condition_label":"B_H_vs_W_L_rep12","target_direction":249,"distractor_direction":345,"session_rotation":122,"rt":-1,"response":"","correct":false,"choices":"ALL_KEYS","correct_choice":["a"],"trial_duration":2000,"flip_timestamps":[],"response_ends_trial":false,"number_of_apertures":200,"number_of_dots":[1,1,1,1,1,1,1,1,1,1,1,1,1,1,1,1,1,1,1,1,1,1,1,1,1,1,1,1,1,1,1,1,1,1,1,1,1,1,1,1,1,1,1,1,1,1,1,1,1,1,1,1,1,1,1,1,1,1,1,1,1,1,1,1,1,1,1,1,1,1,1,1,1,1,1,1,1,1,1,1,1,1,1,1,1,1,1,1,1,1,1,1,1,1,1,1,1,1,1,1,1,1,1,1,1,1,1,1,1,1,1,1,1,1,1,1,1,1,1,1,1,1,1,1,1,1,1,1,1,1,1,1,1,1,1,1,1,1,1,1,1,1,1,1,1,1,1,1,1,1,1,1,1,1,1,1,1,1,1,1,1,1,1,1,1,1,1,1,1,1,1,1,1,1,1,1,1,1,1,1,1,1,1,1,1,1,1,1,1,1,1,1,1,1,1,1,1,1,1,1],"number_of_sets":1,"coherent_direction":[249,345,345,249,249,345,249,345,249,345,345,345,345,249,345,249,345,345,249,249,249,345,345,345,249,249,249,345,345,345,345,249,345,345,249,249,249,249,345,345,249,249,345,249,345,345,345,345,249,249,345,345,249,249,249,345,345,249,345,249,249,249,249,345,345,249,249,249,249,345,249,345,345,249,249,345,249,345,249,249,345,249,345,345,249,345,345,249,249,249,249,249,249,249,249,249,249,345,249,345,345,345,249,345,249,345,249,249,345,249,345,345,249,249,249,249,249,249,249,249,345,345,345,249,345,249,345,249,345,249,345,345,345,249,249,345,345,249,249,345,345,249,345,345,345,345,345,249,345,345,345,249,345,249,249,345,345,345,249,249,345,249,345,345,345,249,249,249,249,345,249,345,345,345,345,249,249,249,249,249,345,249,345,345,249,345,249,249,345,345,345,249,249,345,345,345,345,345,345,249],"coherence":1,"opposite_coherence":0,"dot_radius":2,"dot_side_length":1,"dot_life":-1,"move_distance":1,"aperture_width":300,"aperture_height":300,"dot_color":["black","white","white","black","black","white","black","white","black","white","white","white","white","black","white","black","white","white","black","black","black","white","white","white","black","black","black","white","white","white","white","black","white","white","black","black","black","black","white","white","black","black","white","black","white","white","white","white","black","black","white","white","black","black","black","white","white","black","white","black","black","black","black","white","white","black","black","black","black","white","black","white","white","black","black","white","black","white","black","black","white","black","white","white","black","white","white","black","black","black","black","black","black","black","black","black","black","white","black","white","white","white","black","white","black","white","black","black","white","black","white","white","black","black","black","black","black","black","black","black","white","white","white","black","white","black","white","black","white","black","white","white","white","black","black","white","white","black","black","white","white","black","white","white","white","white","white","black","white","white","white","black","white","black","black","white","white","white","black","black","white","black","white","white","white","black","black","black","black","white","black","white","white","white","white","black","black","black","black","black","white","black","white","white","black","white","black","black","white","white","white","black","black","white","white","white","white","white","white","black"],"dot_shape":"circle","background_color":"#AAA","RDK_type":3,"aperture_type":2,"reinsert_type":2,"frame_rate":16.683333333333334,"frame_rate_array":[12,16,17,17,16,17,17,17,17,17,16,17,16,17,16,17,16,17,17,17,16,17,17,16,17,16,17,17,17,16,17,17,16,17,16,17,16,17,17,17,17,16,17,17,17,16,17,17,16,18,17,17,17,16,15,18,16,17,17,17,18,16,18,16,17,16,17,18,15,17,17,18,14,18,17,17,18,15,16,17,16,18,17,16,18,16,17,17,17,16,16,18,17,17,16,17,17,16,17,17,16,18,16,17,16,17,17,17,17,16,16,17,17,17,17,17,16,17,16,17],"number_of_frames":120,"aperture_center_x":960,"aperture_center_y":540,"fixation_cross":true,"fixation_cross_width":15,"fixation_cross_height":15,"fixation_cross_color":"#111","fixation_cross_thickness":1,"border":true,"border_thickness":2,"border_color":"transparent","canvas_width":1920,"canvas_height":1080,"trial_type":"rdk","trial_index":44,"plugin_version":"2.0.0","time_elapsed":219090},{"rt":3979,"stimulus":"\n        <div class=\"response-container\">\n          <div class=\"response-instruction\">\n            <p>rotate the bar by using the left and right arrow keys.</p>\n            <p>when you are determined, press the Enter key.</p>\n          </div>\n          <div class=\"response-circle\">\n            <div class=\"response-fixation\"></div>\n            <div id=\"bar\" class=\"rotating-bar\"></div>\n          </div>\n        </div>\n      ","response":"Enter","trial_type":"html-keyboard-response","trial_index":45,"plugin_version":"2.1.0","time_elapsed":223070,"response_angle_css":228,"response_angle_rdk":222,"angular_error_target":-27,"angular_error_distractor":-123,"target_direction":249,"target_group":"black","reward_points":4},{"rt":null,"stimulus":"\n          <p style=\"color: #00FF00;\">Your reward: 4 points</p>\n        ","response":null,"trial_type":"html-keyboard-response","trial_index":46,"plugin_version":"2.1.0","time_elapsed":225077},{"rt":null,"stimulus":"<div class=\"fixation\" style=\"font-size: 60px;\">+</div>","response":null,"trial_type":"html-keyboard-response","trial_index":47,"plugin_version":"2.1.0","time_elapsed":226079},{"target_group":"black","condition_label":"B_H_vs_W_L_rep7","target_direction":235,"distractor_direction":346,"session_rotation":122,"rt":-1,"response":"","correct":false,"choices":"ALL_KEYS","correct_choice":["a"],"trial_duration":2000,"flip_timestamps":[],"response_ends_trial":false,"number_of_apertures":200,"number_of_dots":[1,1,1,1,1,1,1,1,1,1,1,1,1,1,1,1,1,1,1,1,1,1,1,1,1,1,1,1,1,1,1,1,1,1,1,1,1,1,1,1,1,1,1,1,1,1,1,1,1,1,1,1,1,1,1,1,1,1,1,1,1,1,1,1,1,1,1,1,1,1,1,1,1,1,1,1,1,1,1,1,1,1,1,1,1,1,1,1,1,1,1,1,1,1,1,1,1,1,1,1,1,1,1,1,1,1,1,1,1,1,1,1,1,1,1,1,1,1,1,1,1,1,1,1,1,1,1,1,1,1,1,1,1,1,1,1,1,1,1,1,1,1,1,1,1,1,1,1,1,1,1,1,1,1,1,1,1,1,1,1,1,1,1,1,1,1,1,1,1,1,1,1,1,1,1,1,1,1,1,1,1,1,1,1,1,1,1,1,1,1,1,1,1,1,1,1,1,1,1,1],"number_of_sets":1,"coherent_direction":[346,235,235,346,235,235,346,235,235,235,346,235,235,235,235,346,346,346,346,346,346,235,346,235,235,346,346,346,346,235,235,235,346,235,346,346,346,235,235,346,235,346,235,346,346,235,346,235,346,346,235,346,346,235,235,346,346,346,346,346,235,235,235,346,235,346,235,235,346,346,346,235,346,235,346,346,346,346,346,235,235,346,235,235,346,235,346,346,346,235,346,346,346,235,346,235,235,346,346,235,346,235,346,346,346,235,346,346,235,235,235,235,235,346,346,235,346,346,235,346,235,346,235,346,235,346,235,346,235,346,346,346,346,235,235,346,235,346,346,235,346,235,346,235,235,235,235,235,346,235,346,346,235,346,346,235,235,235,235,346,346,235,346,235,235,235,235,346,235,235,235,235,235,235,346,346,235,235,235,346,346,235,346,346,346,346,235,346,235,235,235,346,235,346,235,235,235,346,235,235],"coherence":1,"opposite_coherence":0,"dot_radius":2,"dot_side_length":1,"dot_life":-1,"move_distance":1,"aperture_width":300,"aperture_height":300,"dot_color":["white","black","black","white","black","black","white","black","black","black","white","black","black","black","black","white","white","white","white","white","white","black","white","black","black","white","white","white","white","black","black","black","white","black","white","white","white","black","black","white","black","white","black","white","white","black","white","black","white","white","black","white","white","black","black","white","white","white","white","white","black","black","black","white","black","white","black","black","white","white","white","black","white","black","white","white","white","white","white","black","black","white","black","black","white","black","white","white","white","black","white","white","white","black","white","black","black","white","white","black","white","black","white","white","white","black","white","white","black","black","black","black","black","white","white","black","white","white","black","white","black","white","black","white","black","white","black","white","black","white","white","white","white","black","black","white","black","white","white","black","white","black","white","black","black","black","black","black","white","black","white","white","black","white","white","black","black","black","black","white","white","black","white","black","black","black","black","white","black","black","black","black","black","black","white","white","black","black","black","white","white","black","white","white","white","white","black","white","black","black","black","white","black","white","black","black","black","white","black","black"],"dot_shape":"circle","background_color":"#AAA","RDK_type":3,"aperture_type":2,"reinsert_type":2,"frame_rate":16.58677685950413,"frame_rate_array":[7,15,16,17,17,16,16,16,17,15,16,18,15,17,17,17,16,16,17,17,17,17,17,17,18,17,17,17,18,15,17,17,17,18,16,17,17,17,17,16,17,17,18,16,16,17,16,16,17,18,16,17,17,16,17,16,17,16,18,17,16,17,16,17,16,17,16,17,17,17,17,16,16,17,16,18,16,16,16,18,16,18,15,17,17,16,18,16,17,17,17,17,15,17,16,17,16,18,15,17,16,17,17,16,16,17,17,17,16,18,16,18,16,16,17,17,17,17,16,17,17],"number_of_frames":121,"aperture_center_x":960,"aperture_center_y":540,"fixation_cross":true,"fixation_cross_width":15,"fixation_cross_height":15,"fixation_cross_color":"#111","fixation_cross_thickness":1,"border":true,"border_thickness":2,"border_color":"transparent","canvas_width":1920,"canvas_height":1080,"trial_type":"rdk","trial_index":48,"plugin_version":"2.0.0","time_elapsed":228089},{"rt":4328,"stimulus":"\n        <div class=\"response-container\">\n          <div class=\"response-instruction\">\n            <p>rotate the bar by using the left and right arrow keys.</p>\n            <p>when you are determined, press the Enter key.</p>\n          </div>\n          <div class=\"response-circle\">\n            <div class=\"response-fixation\"></div>\n            <div id=\"bar\" class=\"rotating-bar\"></div>\n          </div>\n        </div>\n      ","response":"Enter","trial_type":"html-keyboard-response","trial_index":49,"plugin_version":"2.1.0","time_elapsed":232419,"response_angle_css":227,"response_angle_rdk":223,"angular_error_target":-12,"angular_error_distractor":-123,"target_direction":235,"target_group":"black","reward_points":7},{"rt":null,"stimulus":"\n          <p style=\"color: #00FF00;\">Your reward: 7 points</p>\n        ","response":null,"trial_type":"html-keyboard-response","trial_index":50,"plugin_version":"2.1.0","time_elapsed":234420},{"rt":null,"stimulus":"<div class=\"fixation\" style=\"font-size: 60px;\">+</div>","response":null,"trial_type":"html-keyboard-response","trial_index":51,"plugin_version":"2.1.0","time_elapsed":235422},{"target_group":"white","condition_label":"W_H_vs_B_L_rep17","target_direction":158,"distractor_direction":46,"session_rotation":122,"rt":-1,"response":"","correct":false,"choices":"ALL_KEYS","correct_choice":["a"],"trial_duration":2000,"flip_timestamps":[],"response_ends_trial":false,"number_of_apertures":200,"number_of_dots":[1,1,1,1,1,1,1,1,1,1,1,1,1,1,1,1,1,1,1,1,1,1,1,1,1,1,1,1,1,1,1,1,1,1,1,1,1,1,1,1,1,1,1,1,1,1,1,1,1,1,1,1,1,1,1,1,1,1,1,1,1,1,1,1,1,1,1,1,1,1,1,1,1,1,1,1,1,1,1,1,1,1,1,1,1,1,1,1,1,1,1,1,1,1,1,1,1,1,1,1,1,1,1,1,1,1,1,1,1,1,1,1,1,1,1,1,1,1,1,1,1,1,1,1,1,1,1,1,1,1,1,1,1,1,1,1,1,1,1,1,1,1,1,1,1,1,1,1,1,1,1,1,1,1,1,1,1,1,1,1,1,1,1,1,1,1,1,1,1,1,1,1,1,1,1,1,1,1,1,1,1,1,1,1,1,1,1,1,1,1,1,1,1,1,1,1,1,1,1,1],"number_of_sets":1,"coherent_direction":[46,158,46,158,158,158,46,158,158,46,46,46,158,46,158,158,46,46,46,158,46,46,158,46,46,46,158,46,46,46,158,158,158,158,158,158,46,158,158,46,158,158,158,158,46,46,46,158,46,158,46,46,46,46,46,46,158,158,46,46,46,46,46,158,158,46,158,46,46,46,46,46,158,158,46,46,46,46,158,46,46,158,158,158,158,158,46,46,158,46,158,158,46,46,158,158,158,46,46,158,158,158,158,158,46,46,158,158,158,46,46,46,46,158,158,158,46,46,158,158,46,46,46,46,158,46,46,46,158,158,46,46,46,46,158,46,158,158,158,158,158,46,46,158,158,158,46,46,46,158,46,46,158,158,46,158,158,46,158,46,158,158,158,158,158,158,46,46,46,158,158,46,158,158,158,158,158,158,158,46,46,158,46,158,46,158,46,46,46,158,46,46,46,46,158,158,158,46,158,158],"coherence":1,"opposite_coherence":0,"dot_radius":2,"dot_side_length":1,"dot_life":-1,"move_distance":1,"aperture_width":300,"aperture_height":300,"dot_color":["black","white","black","white","white","white","black","white","white","black","black","black","white","black","white","white","black","black","black","white","black","black","white","black","black","black","white","black","black","black","white","white","white","white","white","white","black","white","white","black","white","white","white","white","black","black","black","white","black","white","black","black","black","black","black","black","white","white","black","black","black","black","black","white","white","black","white","black","black","black","black","black","white","white","black","black","black","black","white","black","black","white","white","white","white","white","black","black","white","black","white","white","black","black","white","white","white","black","black","white","white","white","white","white","black","black","white","white","white","black","black","black","black","white","white","white","black","black","white","white","black","black","black","black","white","black","black","black","white","white","black","black","black","black","white","black","white","white","white","white","white","black","black","white","white","white","black","black","black","white","black","black","white","white","black","white","white","black","white","black","white","white","white","white","white","white","black","black","black","white","white","black","white","white","white","white","white","white","white","black","black","white","black","white","black","white","black","black","black","white","black","black","black","black","white","white","white","black","white","white"],"dot_shape":"circle","background_color":"#AAA","RDK_type":3,"aperture_type":2,"reinsert_type":2,"frame_rate":16.537190082644628,"frame_rate_array":[3,11,16,17,17,16,17,17,17,16,17,16,17,17,17,18,15,17,17,18,15,17,17,16,17,16,17,17,17,17,16,18,16,17,17,16,17,17,16,17,16,17,17,17,16,17,16,17,15,19,15,17,17,16,17,16,18,17,16,17,17,16,18,16,17,17,16,17,16,16,17,17,16,17,17,17,16,17,17,17,17,16,16,17,17,17,17,16,17,17,17,17,17,17,16,17,16,17,17,17,16,17,16,17,16,17,18,16,17,17,18,16,17,17,16,16,18,15,18,16,16],"number_of_frames":121,"aperture_center_x":960,"aperture_center_y":540,"fixation_cross":true,"fixation_cross_width":15,"fixation_cross_height":15,"fixation_cross_color":"#111","fixation_cross_thickness":1,"border":true,"border_thickness":2,"border_color":"transparent","canvas_width":1920,"canvas_height":1080,"trial_type":"rdk","trial_index":52,"plugin_version":"2.0.0","time_elapsed":237431},{"rt":4707,"stimulus":"\n        <div class=\"response-container\">\n          <div class=\"response-instruction\">\n            <p>rotate the bar by using the left and right arrow keys.</p>\n            <p>when you are determined, press the Enter key.</p>\n          </div>\n          <div class=\"response-circle\">\n            <div class=\"response-fixation\"></div>\n            <div id=\"bar\" class=\"rotating-bar\"></div>\n          </div>\n        </div>\n      ","response":"Enter","trial_type":"html-keyboard-response","trial_index":53,"plugin_version":"2.1.0","time_elapsed":242139,"response_angle_css":409,"response_angle_rdk":41,"angular_error_target":-117,"angular_error_distractor":-5,"target_direction":158,"target_group":"white","reward_points":0},{"rt":null,"stimulus":"\n          <p style=\"color: #FF3333;\">Your reward: 0 points</p>\n        ","response":null,"trial_type":"html-keyboard-response","trial_index":54,"plugin_version":"2.1.0","time_elapsed":244153},{"rt":null,"stimulus":"<div class=\"fixation\" style=\"font-size: 60px;\">+</div>","response":null,"trial_type":"html-keyboard-response","trial_index":55,"plugin_version":"2.1.0","time_elapsed":245168},{"target_group":"black","condition_label":"B_H_vs_W_L_rep10","target_direction":231,"distractor_direction":343,"session_rotation":122,"rt":-1,"response":"","correct":false,"choices":"ALL_KEYS","correct_choice":["a"],"trial_duration":2000,"flip_timestamps":[],"response_ends_trial":false,"number_of_apertures":200,"number_of_dots":[1,1,1,1,1,1,1,1,1,1,1,1,1,1,1,1,1,1,1,1,1,1,1,1,1,1,1,1,1,1,1,1,1,1,1,1,1,1,1,1,1,1,1,1,1,1,1,1,1,1,1,1,1,1,1,1,1,1,1,1,1,1,1,1,1,1,1,1,1,1,1,1,1,1,1,1,1,1,1,1,1,1,1,1,1,1,1,1,1,1,1,1,1,1,1,1,1,1,1,1,1,1,1,1,1,1,1,1,1,1,1,1,1,1,1,1,1,1,1,1,1,1,1,1,1,1,1,1,1,1,1,1,1,1,1,1,1,1,1,1,1,1,1,1,1,1,1,1,1,1,1,1,1,1,1,1,1,1,1,1,1,1,1,1,1,1,1,1,1,1,1,1,1,1,1,1,1,1,1,1,1,1,1,1,1,1,1,1,1,1,1,1,1,1,1,1,1,1,1,1],"number_of_sets":1,"coherent_direction":[231,343,231,343,231,343,343,343,343,343,343,231,231,343,231,231,343,343,231,343,343,231,231,231,231,343,343,231,343,343,231,343,343,231,231,343,231,343,343,343,343,343,343,343,343,231,343,231,231,231,231,343,343,343,343,343,343,343,231,343,343,231,343,231,231,231,343,343,231,343,343,231,231,231,343,231,343,343,231,343,231,343,231,231,231,343,231,231,231,231,343,343,231,231,343,343,343,343,231,343,343,231,343,343,343,231,343,343,231,343,231,231,343,231,231,231,231,343,231,231,231,231,343,231,343,231,231,231,343,231,343,231,343,343,343,231,343,231,231,231,343,231,231,231,343,231,343,343,343,231,231,231,231,231,231,231,231,343,343,343,343,231,343,231,231,343,231,231,231,231,343,231,343,231,343,343,343,231,231,343,231,231,343,231,231,231,231,343,231,343,343,343,343,231,343,343,343,231,231,343],"coherence":1,"opposite_coherence":0,"dot_radius":2,"dot_side_length":1,"dot_life":-1,"move_distance":1,"aperture_width":300,"aperture_height":300,"dot_color":["black","white","black","white","black","white","white","white","white","white","white","black","black","white","black","black","white","white","black","white","white","black","black","black","black","white","white","black","white","white","black","white","white","black","black","white","black","white","white","white","white","white","white","white","white","black","white","black","black","black","black","white","white","white","white","white","white","white","black","white","white","black","white","black","black","black","white","white","black","white","white","black","black","black","white","black","white","white","black","white","black","white","black","black","black","white","black","black","black","black","white","white","black","black","white","white","white","white","black","white","white","black","white","white","white","black","white","white","black","white","black","black","white","black","black","black","black","white","black","black","black","black","white","black","white","black","black","black","white","black","white","black","white","white","white","black","white","black","black","black","white","black","black","black","white","black","white","white","white","black","black","black","black","black","black","black","black","white","white","white","white","black","white","black","black","white","black","black","black","black","white","black","white","black","white","white","white","black","black","white","black","black","white","black","black","black","black","white","black","white","white","white","white","black","white","white","white","black","black","white"],"dot_shape":"circle","background_color":"#AAA","RDK_type":3,"aperture_type":2,"reinsert_type":2,"frame_rate":16.683333333333334,"frame_rate_array":[19,10,16,19,15,18,16,18,16,16,18,16,17,17,17,16,17,18,16,16,18,15,17,16,16,17,17,17,17,16,17,17,18,17,16,16,18,16,17,18,17,17,16,17,17,17,17,16,18,17,15,16,17,17,17,16,17,18,16,17,16,18,17,16,17,16,17,16,17,17,16,16,17,16,16,17,17,16,17,17,17,17,16,16,17,17,17,16,16,17,17,17,17,16,17,17,16,17,17,17,17,17,16,17,17,16,17,17,17,17,16,16,17,16,17,17,17,17,16,17],"number_of_frames":120,"aperture_center_x":960,"aperture_center_y":540,"fixation_cross":true,"fixation_cross_width":15,"fixation_cross_height":15,"fixation_cross_color":"#111","fixation_cross_thickness":1,"border":true,"border_thickness":2,"border_color":"transparent","canvas_width":1920,"canvas_height":1080,"trial_type":"rdk","trial_index":56,"plugin_version":"2.0.0","time_elapsed":247174},{"rt":4315,"stimulus":"\n        <div class=\"response-container\">\n          <div class=\"response-instruction\">\n            <p>rotate the bar by using the left and right arrow keys.</p>\n            <p>when you are determined, press the Enter key.</p>\n          </div>\n          <div class=\"response-circle\">\n            <div class=\"response-fixation\"></div>\n            <div id=\"bar\" class=\"rotating-bar\"></div>\n          </div>\n        </div>\n      ","response":"Enter","trial_type":"html-keyboard-response","trial_index":57,"plugin_version":"2.1.0","time_elapsed":251490,"response_angle_css":225,"response_angle_rdk":225,"angular_error_target":-6,"angular_error_distractor":-118,"target_direction":231,"target_group":"black","reward_points":8},{"rt":null,"stimulus":"\n          <p style=\"color: #00FF00;\">Your reward: 8 points</p>\n        ","response":null,"trial_type":"html-keyboard-response","trial_index":58,"plugin_version":"2.1.0","time_elapsed":253491},{"rt":null,"stimulus":"<div class=\"fixation\" style=\"font-size: 60px;\">+</div>","response":null,"trial_type":"html-keyboard-response","trial_index":59,"plugin_version":"2.1.0","time_elapsed":254495},{"target_group":"white","condition_label":"W_H_vs_B_L_rep5","target_direction":139,"distractor_direction":43,"session_rotation":122,"rt":-1,"response":"","correct":false,"choices":"ALL_KEYS","correct_choice":["a"],"trial_duration":2000,"flip_timestamps":[],"response_ends_trial":false,"number_of_apertures":200,"number_of_dots":[1,1,1,1,1,1,1,1,1,1,1,1,1,1,1,1,1,1,1,1,1,1,1,1,1,1,1,1,1,1,1,1,1,1,1,1,1,1,1,1,1,1,1,1,1,1,1,1,1,1,1,1,1,1,1,1,1,1,1,1,1,1,1,1,1,1,1,1,1,1,1,1,1,1,1,1,1,1,1,1,1,1,1,1,1,1,1,1,1,1,1,1,1,1,1,1,1,1,1,1,1,1,1,1,1,1,1,1,1,1,1,1,1,1,1,1,1,1,1,1,1,1,1,1,1,1,1,1,1,1,1,1,1,1,1,1,1,1,1,1,1,1,1,1,1,1,1,1,1,1,1,1,1,1,1,1,1,1,1,1,1,1,1,1,1,1,1,1,1,1,1,1,1,1,1,1,1,1,1,1,1,1,1,1,1,1,1,1,1,1,1,1,1,1,1,1,1,1,1,1],"number_of_sets":1,"coherent_direction":[43,43,43,139,43,43,139,43,139,139,43,43,139,139,43,139,139,43,139,139,43,43,139,43,43,139,139,139,43,139,43,43,43,139,43,43,139,43,43,139,43,43,139,139,43,43,43,139,139,139,139,139,139,139,43,43,139,43,139,139,43,43,43,43,43,139,43,43,139,139,139,43,43,139,139,43,43,43,43,43,43,139,139,43,139,43,43,43,139,43,139,139,43,139,139,139,43,43,139,139,139,43,139,43,139,139,139,139,139,139,139,43,139,139,43,139,43,139,139,43,43,43,43,43,43,139,43,43,43,139,139,43,43,139,43,139,139,139,139,139,43,43,43,43,43,139,139,139,43,43,139,139,43,139,43,139,43,139,139,139,139,43,139,139,139,139,139,43,43,43,139,43,139,43,139,43,43,139,43,139,43,43,139,43,139,43,43,43,139,43,43,139,139,139,139,139,43,139,43,43],"coherence":1,"opposite_coherence":0,"dot_radius":2,"dot_side_length":1,"dot_life":-1,"move_distance":1,"aperture_width":300,"aperture_height":300,"dot_color":["black","black","black","white","black","black","white","black","white","white","black","black","white","white","black","white","white","black","white","white","black","black","white","black","black","white","white","white","black","white","black","black","black","white","black","black","white","black","black","white","black","black","white","white","black","black","black","white","white","white","white","white","white","white","black","black","white","black","white","white","black","black","black","black","black","white","black","black","white","white","white","black","black","white","white","black","black","black","black","black","black","white","white","black","white","black","black","black","white","black","white","white","black","white","white","white","black","black","white","white","white","black","white","black","white","white","white","white","white","white","white","black","white","white","black","white","black","white","white","black","black","black","black","black","black","white","black","black","black","white","white","black","black","white","black","white","white","white","white","white","black","black","black","black","black","white","white","white","black","black","white","white","black","white","black","white","black","white","white","white","white","black","white","white","white","white","white","black","black","black","white","black","white","black","white","black","black","white","black","white","black","black","white","black","white","black","black","black","white","black","black","white","white","white","white","white","black","white","black","black"],"dot_shape":"circle","background_color":"#AAA","RDK_type":3,"aperture_type":2,"reinsert_type":2,"frame_rate":16.708333333333332,"frame_rate_array":[13,18,16,17,17,16,16,17,17,17,17,17,17,17,16,17,16,17,17,17,17,16,17,17,17,17,17,16,17,16,17,17,17,16,17,17,17,17,17,16,17,16,17,16,17,16,17,16,17,17,17,16,17,16,17,16,17,16,17,17,17,17,16,17,17,16,17,17,17,17,17,16,17,17,16,17,17,17,17,16,17,16,17,17,16,17,16,17,17,17,17,16,18,16,17,17,16,17,17,17,17,17,17,17,17,17,16,17,17,17,18,15,17,17,16,18,15,17,17,17],"number_of_frames":120,"aperture_center_x":960,"aperture_center_y":540,"fixation_cross":true,"fixation_cross_width":15,"fixation_cross_height":15,"fixation_cross_color":"#111","fixation_cross_thickness":1,"border":true,"border_thickness":2,"border_color":"transparent","canvas_width":1920,"canvas_height":1080,"trial_type":"rdk","trial_index":60,"plugin_version":"2.0.0","time_elapsed":256500},{"rt":4664,"stimulus":"\n        <div class=\"response-container\">\n          <div class=\"response-instruction\">\n            <p>rotate the bar by using the left and right arrow keys.</p>\n            <p>when you are determined, press the Enter key.</p>\n          </div>\n          <div class=\"response-circle\">\n            <div class=\"response-fixation\"></div>\n            <div id=\"bar\" class=\"rotating-bar\"></div>\n          </div>\n        </div>\n      ","response":"Enter","trial_type":"html-keyboard-response","trial_index":61,"plugin_version":"2.1.0","time_elapsed":261166,"response_angle_css":425,"response_angle_rdk":25,"angular_error_target":-114,"angular_error_distractor":-18,"target_direction":139,"target_group":"white","reward_points":0},{"rt":null,"stimulus":"\n          <p style=\"color: #FF3333;\">Your reward: 0 points</p>\n        ","response":null,"trial_type":"html-keyboard-response","trial_index":62,"plugin_version":"2.1.0","time_elapsed":263172},{"rt":null,"stimulus":"<div class=\"fixation\" style=\"font-size: 60px;\">+</div>","response":null,"trial_type":"html-keyboard-response","trial_index":63,"plugin_version":"2.1.0","time_elapsed":264186},{"target_group":"white","condition_label":"W_H_vs_B_L_rep21","target_direction":165,"distractor_direction":49,"session_rotation":122,"rt":-1,"response":"","correct":false,"choices":"ALL_KEYS","correct_choice":["a"],"trial_duration":2000,"flip_timestamps":[],"response_ends_trial":false,"number_of_apertures":200,"number_of_dots":[1,1,1,1,1,1,1,1,1,1,1,1,1,1,1,1,1,1,1,1,1,1,1,1,1,1,1,1,1,1,1,1,1,1,1,1,1,1,1,1,1,1,1,1,1,1,1,1,1,1,1,1,1,1,1,1,1,1,1,1,1,1,1,1,1,1,1,1,1,1,1,1,1,1,1,1,1,1,1,1,1,1,1,1,1,1,1,1,1,1,1,1,1,1,1,1,1,1,1,1,1,1,1,1,1,1,1,1,1,1,1,1,1,1,1,1,1,1,1,1,1,1,1,1,1,1,1,1,1,1,1,1,1,1,1,1,1,1,1,1,1,1,1,1,1,1,1,1,1,1,1,1,1,1,1,1,1,1,1,1,1,1,1,1,1,1,1,1,1,1,1,1,1,1,1,1,1,1,1,1,1,1,1,1,1,1,1,1,1,1,1,1,1,1,1,1,1,1,1,1],"number_of_sets":1,"coherent_direction":[49,165,49,165,49,49,49,49,165,165,165,165,49,49,165,49,49,49,165,165,49,165,165,49,49,49,49,49,49,165,49,49,165,49,49,165,49,165,49,49,165,165,49,49,165,165,165,165,165,165,165,49,165,49,49,165,165,165,165,49,165,49,165,49,49,49,49,49,49,165,165,49,49,49,49,49,49,165,49,49,49,165,49,165,165,165,165,165,49,49,165,165,165,49,49,49,49,49,165,49,49,165,49,165,165,165,49,165,165,165,165,49,165,49,49,49,165,49,165,49,165,165,165,165,165,165,49,165,49,49,165,165,49,165,49,165,49,49,49,49,49,165,165,165,49,49,49,165,165,165,165,49,49,165,165,165,165,165,49,49,165,165,165,49,49,165,49,49,165,165,165,49,165,49,165,165,165,165,165,165,165,49,165,49,49,165,165,49,165,165,49,49,49,49,165,49,165,49,49,49],"coherence":1,"opposite_coherence":0,"dot_radius":2,"dot_side_length":1,"dot_life":-1,"move_distance":1,"aperture_width":300,"aperture_height":300,"dot_color":["black","white","black","white","black","black","black","black","white","white","white","white","black","black","white","black","black","black","white","white","black","white","white","black","black","black","black","black","black","white","black","black","white","black","black","white","black","white","black","black","white","white","black","black","white","white","white","white","white","white","white","black","white","black","black","white","white","white","white","black","white","black","white","black","black","black","black","black","black","white","white","black","black","black","black","black","black","white","black","black","black","white","black","white","white","white","white","white","black","black","white","white","white","black","black","black","black","black","white","black","black","white","black","white","white","white","black","white","white","white","white","black","white","black","black","black","white","black","white","black","white","white","white","white","white","white","black","white","black","black","white","white","black","white","black","white","black","black","black","black","black","white","white","white","black","black","black","white","white","white","white","black","black","white","white","white","white","white","black","black","white","white","white","black","black","white","black","black","white","white","white","black","white","black","white","white","white","white","white","white","white","black","white","black","black","white","white","black","white","white","black","black","black","black","white","black","white","black","black","black"],"dot_shape":"circle","background_color":"#AAA","RDK_type":3,"aperture_type":2,"reinsert_type":2,"frame_rate":16.741666666666667,"frame_rate_array":[11,17,17,17,17,17,17,17,17,17,17,17,17,17,18,16,17,17,17,16,17,17,17,17,17,17,17,17,17,17,16,17,17,17,17,16,16,17,17,17,17,16,17,16,17,17,17,17,17,17,16,17,17,17,17,16,17,17,16,17,17,16,17,17,17,17,16,17,17,17,16,17,17,17,16,17,17,16,17,17,17,17,17,17,16,17,17,16,17,16,17,17,17,17,17,17,16,17,17,17,16,17,17,16,17,17,16,17,17,17,16,17,17,16,17,17,16,17,17,16],"number_of_frames":120,"aperture_center_x":960,"aperture_center_y":540,"fixation_cross":true,"fixation_cross_width":15,"fixation_cross_height":15,"fixation_cross_color":"#111","fixation_cross_thickness":1,"border":true,"border_thickness":2,"border_color":"transparent","canvas_width":1920,"canvas_height":1080,"trial_type":"rdk","trial_index":64,"plugin_version":"2.0.0","time_elapsed":266192},{"rt":5268,"stimulus":"\n        <div class=\"response-container\">\n          <div class=\"response-instruction\">\n            <p>rotate the bar by using the left and right arrow keys.</p>\n            <p>when you are determined, press the Enter key.</p>\n          </div>\n          <div class=\"response-circle\">\n            <div class=\"response-fixation\"></div>\n            <div id=\"bar\" class=\"rotating-bar\"></div>\n          </div>\n        </div>\n      ","response":"Enter","trial_type":"html-keyboard-response","trial_index":65,"plugin_version":"2.1.0","time_elapsed":271461,"response_angle_css":291,"response_angle_rdk":159,"angular_error_target":-6,"angular_error_distractor":110,"target_direction":165,"target_group":"white","reward_points":8},{"rt":null,"stimulus":"\n          <p style=\"color: #00FF00;\">Your reward: 8 points</p>\n        ","response":null,"trial_type":"html-keyboard-response","trial_index":66,"plugin_version":"2.1.0","time_elapsed":273463},{"rt":null,"stimulus":"<div class=\"fixation\" style=\"font-size: 60px;\">+</div>","response":null,"trial_type":"html-keyboard-response","trial_index":67,"plugin_version":"2.1.0","time_elapsed":274470},{"target_group":"black","condition_label":"B_H_vs_W_L_rep5","target_direction":234,"distractor_direction":336,"session_rotation":122,"rt":-1,"response":"","correct":false,"choices":"ALL_KEYS","correct_choice":["a"],"trial_duration":2000,"flip_timestamps":[],"response_ends_trial":false,"number_of_apertures":200,"number_of_dots":[1,1,1,1,1,1,1,1,1,1,1,1,1,1,1,1,1,1,1,1,1,1,1,1,1,1,1,1,1,1,1,1,1,1,1,1,1,1,1,1,1,1,1,1,1,1,1,1,1,1,1,1,1,1,1,1,1,1,1,1,1,1,1,1,1,1,1,1,1,1,1,1,1,1,1,1,1,1,1,1,1,1,1,1,1,1,1,1,1,1,1,1,1,1,1,1,1,1,1,1,1,1,1,1,1,1,1,1,1,1,1,1,1,1,1,1,1,1,1,1,1,1,1,1,1,1,1,1,1,1,1,1,1,1,1,1,1,1,1,1,1,1,1,1,1,1,1,1,1,1,1,1,1,1,1,1,1,1,1,1,1,1,1,1,1,1,1,1,1,1,1,1,1,1,1,1,1,1,1,1,1,1,1,1,1,1,1,1,1,1,1,1,1,1,1,1,1,1,1,1],"number_of_sets":1,"coherent_direction":[336,234,336,336,336,234,336,336,336,234,234,336,336,234,336,336,234,336,336,336,336,336,234,336,234,234,336,336,336,336,234,336,336,336,336,234,336,336,336,234,234,336,234,234,336,234,234,234,234,234,234,336,234,234,234,336,234,336,234,336,336,336,336,234,234,234,234,336,234,234,336,234,336,234,234,336,234,336,234,234,234,336,336,234,336,336,234,336,234,234,336,336,336,336,234,336,336,336,234,234,234,234,336,336,336,336,234,234,336,234,336,336,336,234,336,336,234,234,336,234,234,336,336,234,234,336,234,336,336,336,234,336,336,234,336,336,336,234,336,336,234,336,336,234,234,336,234,234,234,336,234,336,234,336,336,234,234,234,336,234,234,234,336,234,234,234,234,336,336,336,234,336,336,336,336,234,234,234,234,336,234,234,234,234,234,234,234,234,234,336,336,234,234,336,234,234,234,234,336,336],"coherence":1,"opposite_coherence":0,"dot_radius":2,"dot_side_length":1,"dot_life":-1,"move_distance":1,"aperture_width":300,"aperture_height":300,"dot_color":["white","black","white","white","white","black","white","white","white","black","black","white","white","black","white","white","black","white","white","white","white","white","black","white","black","black","white","white","white","white","black","white","white","white","white","black","white","white","white","black","black","white","black","black","white","black","black","black","black","black","black","white","black","black","black","white","black","white","black","white","white","white","white","black","black","black","black","white","black","black","white","black","white","black","black","white","black","white","black","black","black","white","white","black","white","white","black","white","black","black","white","white","white","white","black","white","white","white","black","black","black","black","white","white","white","white","black","black","white","black","white","white","white","black","white","white","black","black","white","black","black","white","white","black","black","white","black","white","white","white","black","white","white","black","white","white","white","black","white","white","black","white","white","black","black","white","black","black","black","white","black","white","black","white","white","black","black","black","white","black","black","black","white","black","black","black","black","white","white","white","black","white","white","white","white","black","black","black","black","white","black","black","black","black","black","black","black","black","black","white","white","black","black","white","black","black","black","black","white","white"],"dot_shape":"circle","background_color":"#AAA","RDK_type":3,"aperture_type":2,"reinsert_type":2,"frame_rate":16.708333333333332,"frame_rate_array":[6,15,16,18,15,17,17,17,17,17,16,16,18,17,16,17,16,17,17,17,17,17,17,16,17,17,17,17,17,17,17,16,17,16,17,17,16,17,17,17,18,16,17,18,16,17,17,17,18,15,17,17,17,17,15,17,17,17,17,16,17,17,17,17,17,16,17,17,15,18,17,17,16,17,17,17,17,17,17,17,17,17,17,16,17,17,17,16,17,17,17,17,16,18,16,17,17,17,17,17,16,17,17,16,17,17,17,17,17,17,17,17,17,16,18,16,17,17,17,17],"number_of_frames":120,"aperture_center_x":960,"aperture_center_y":540,"fixation_cross":true,"fixation_cross_width":15,"fixation_cross_height":15,"fixation_cross_color":"#111","fixation_cross_thickness":1,"border":true,"border_thickness":2,"border_color":"transparent","canvas_width":1920,"canvas_height":1080,"trial_type":"rdk","trial_index":68,"plugin_version":"2.0.0","time_elapsed":276478},{"rt":5069,"stimulus":"\n        <div class=\"response-container\">\n          <div class=\"response-instruction\">\n            <p>rotate the bar by using the left and right arrow keys.</p>\n            <p>when you are determined, press the Enter key.</p>\n          </div>\n          <div class=\"response-circle\">\n            <div class=\"response-fixation\"></div>\n            <div id=\"bar\" class=\"rotating-bar\"></div>\n          </div>\n        </div>\n      ","response":"Enter","trial_type":"html-keyboard-response","trial_index":69,"plugin_version":"2.1.0","time_elapsed":281548,"response_angle_css":462,"response_angle_rdk":348,"angular_error_target":114,"angular_error_distractor":12,"target_direction":234,"target_group":"black","reward_points":0},{"rt":null,"stimulus":"\n          <p style=\"color: #FF3333;\">Your reward: 0 points</p>\n        ","response":null,"trial_type":"html-keyboard-response","trial_index":70,"plugin_version":"2.1.0","time_elapsed":283554},{"rt":null,"stimulus":"<div class=\"fixation\" style=\"font-size: 60px;\">+</div>","response":null,"trial_type":"html-keyboard-response","trial_index":71,"plugin_version":"2.1.0","time_elapsed":284569},{"target_group":"black","condition_label":"B_H_vs_W_L_rep3","target_direction":218,"distractor_direction":308,"session_rotation":122,"rt":-1,"response":"","correct":false,"choices":"ALL_KEYS","correct_choice":["a"],"trial_duration":2000,"flip_timestamps":[],"response_ends_trial":false,"number_of_apertures":200,"number_of_dots":[1,1,1,1,1,1,1,1,1,1,1,1,1,1,1,1,1,1,1,1,1,1,1,1,1,1,1,1,1,1,1,1,1,1,1,1,1,1,1,1,1,1,1,1,1,1,1,1,1,1,1,1,1,1,1,1,1,1,1,1,1,1,1,1,1,1,1,1,1,1,1,1,1,1,1,1,1,1,1,1,1,1,1,1,1,1,1,1,1,1,1,1,1,1,1,1,1,1,1,1,1,1,1,1,1,1,1,1,1,1,1,1,1,1,1,1,1,1,1,1,1,1,1,1,1,1,1,1,1,1,1,1,1,1,1,1,1,1,1,1,1,1,1,1,1,1,1,1,1,1,1,1,1,1,1,1,1,1,1,1,1,1,1,1,1,1,1,1,1,1,1,1,1,1,1,1,1,1,1,1,1,1,1,1,1,1,1,1,1,1,1,1,1,1,1,1,1,1,1,1],"number_of_sets":1,"coherent_direction":[308,308,308,218,308,308,308,308,218,308,218,308,218,308,218,308,218,218,308,218,218,308,218,218,308,218,308,308,308,308,218,308,218,308,308,218,308,308,308,218,218,218,218,218,218,218,308,308,308,308,218,308,218,308,308,218,218,308,308,218,308,218,218,218,308,308,218,218,218,218,218,218,308,218,218,308,218,308,218,218,218,308,218,308,218,218,218,218,308,218,308,218,218,218,308,308,218,308,308,308,218,308,308,308,308,218,308,218,218,308,218,308,218,308,218,218,218,218,308,308,308,218,308,218,308,308,218,308,218,308,308,218,218,308,218,308,308,218,218,218,308,218,308,218,308,308,218,218,218,218,218,308,218,218,308,218,308,308,308,218,218,308,308,218,308,308,218,308,308,218,308,308,308,218,308,308,218,218,218,308,218,218,218,308,218,308,308,308,308,218,308,308,308,308,218,218,308,218,308,218],"coherence":1,"opposite_coherence":0,"dot_radius":2,"dot_side_length":1,"dot_life":-1,"move_distance":1,"aperture_width":300,"aperture_height":300,"dot_color":["white","white","white","black","white","white","white","white","black","white","black","white","black","white","black","white","black","black","white","black","black","white","black","black","white","black","white","white","white","white","black","white","black","white","white","black","white","white","white","black","black","black","black","black","black","black","white","white","white","white","black","white","black","white","white","black","black","white","white","black","white","black","black","black","white","white","black","black","black","black","black","black","white","black","black","white","black","white","black","black","black","white","black","white","black","black","black","black","white","black","white","black","black","black","white","white","black","white","white","white","black","white","white","white","white","black","white","black","black","white","black","white","black","white","black","black","black","black","white","white","white","black","white","black","white","white","black","white","black","white","white","black","black","white","black","white","white","black","black","black","white","black","white","black","white","white","black","black","black","black","black","white","black","black","white","black","white","white","white","black","black","white","white","black","white","white","black","white","white","black","white","white","white","black","white","white","black","black","black","white","black","black","black","white","black","white","white","white","white","black","white","white","white","white","black","black","white","black","white","black"],"dot_shape":"circle","background_color":"#AAA","RDK_type":3,"aperture_type":2,"reinsert_type":2,"frame_rate":16.758333333333333,"frame_rate_array":[15,17,17,16,17,17,17,17,17,16,17,16,17,16,17,17,17,16,18,15,17,17,16,17,17,17,17,17,17,17,16,17,17,16,17,16,17,17,16,17,17,17,17,16,16,17,17,17,17,17,17,17,17,17,17,17,17,17,17,16,16,17,17,18,16,16,17,17,16,17,17,17,17,17,17,17,17,17,16,17,17,16,18,16,17,17,17,16,16,17,17,17,17,17,17,16,16,17,17,17,17,17,17,17,17,17,16,17,17,16,17,17,16,17,17,17,17,16,17,17],"number_of_frames":120,"aperture_center_x":960,"aperture_center_y":540,"fixation_cross":true,"fixation_cross_width":15,"fixation_cross_height":15,"fixation_cross_color":"#111","fixation_cross_thickness":1,"border":true,"border_thickness":2,"border_color":"transparent","canvas_width":1920,"canvas_height":1080,"trial_type":"rdk","trial_index":72,"plugin_version":"2.0.0","time_elapsed":286574},{"rt":6508,"stimulus":"\n        <div class=\"response-container\">\n          <div class=\"response-instruction\">\n            <p>rotate the bar by using the left and right arrow keys.</p>\n            <p>when you are determined, press the Enter key.</p>\n          </div>\n          <div class=\"response-circle\">\n            <div class=\"response-fixation\"></div>\n            <div id=\"bar\" class=\"rotating-bar\"></div>\n          </div>\n        </div>\n      ","response":"Enter","trial_type":"html-keyboard-response","trial_index":73,"plugin_version":"2.1.0","time_elapsed":293083,"response_angle_css":475,"response_angle_rdk":335,"angular_error_target":117,"angular_error_distractor":27,"target_direction":218,"target_group":"black","reward_points":0},{"rt":null,"stimulus":"\n          <p style=\"color: #FF3333;\">Your reward: 0 points</p>\n        ","response":null,"trial_type":"html-keyboard-response","trial_index":74,"plugin_version":"2.1.0","time_elapsed":295084},{"rt":null,"stimulus":"<div class=\"fixation\" style=\"font-size: 60px;\">+</div>","response":null,"trial_type":"html-keyboard-response","trial_index":75,"plugin_version":"2.1.0","time_elapsed":296093},{"target_group":"white","condition_label":"W_H_vs_B_L_rep24","target_direction":154,"distractor_direction":51,"session_rotation":122,"rt":-1,"response":"","correct":false,"choices":"ALL_KEYS","correct_choice":["a"],"trial_duration":2000,"flip_timestamps":[],"response_ends_trial":false,"number_of_apertures":200,"number_of_dots":[1,1,1,1,1,1,1,1,1,1,1,1,1,1,1,1,1,1,1,1,1,1,1,1,1,1,1,1,1,1,1,1,1,1,1,1,1,1,1,1,1,1,1,1,1,1,1,1,1,1,1,1,1,1,1,1,1,1,1,1,1,1,1,1,1,1,1,1,1,1,1,1,1,1,1,1,1,1,1,1,1,1,1,1,1,1,1,1,1,1,1,1,1,1,1,1,1,1,1,1,1,1,1,1,1,1,1,1,1,1,1,1,1,1,1,1,1,1,1,1,1,1,1,1,1,1,1,1,1,1,1,1,1,1,1,1,1,1,1,1,1,1,1,1,1,1,1,1,1,1,1,1,1,1,1,1,1,1,1,1,1,1,1,1,1,1,1,1,1,1,1,1,1,1,1,1,1,1,1,1,1,1,1,1,1,1,1,1,1,1,1,1,1,1,1,1,1,1,1,1],"number_of_sets":1,"coherent_direction":[154,154,154,51,154,51,154,51,154,51,51,51,154,154,51,154,154,51,154,51,51,154,154,51,51,51,51,154,51,51,51,51,51,51,154,51,154,51,51,154,51,51,51,51,154,51,154,154,51,51,154,51,51,154,51,154,51,154,154,51,154,154,154,51,154,51,154,154,154,154,51,154,154,51,154,51,51,154,154,51,51,51,154,51,154,51,154,51,51,51,154,154,51,154,51,51,51,154,51,154,51,51,154,51,51,51,154,154,154,51,154,154,154,51,51,154,51,51,51,154,154,51,154,154,51,154,154,154,154,51,51,154,154,154,51,51,154,154,51,51,154,51,154,154,154,154,51,154,154,51,154,51,51,154,154,51,51,51,51,154,51,51,154,154,154,154,154,51,51,154,51,154,154,154,154,51,154,51,51,51,154,51,154,154,51,154,51,154,51,51,51,154,154,51,154,154,51,154,154,51],"coherence":1,"opposite_coherence":0,"dot_radius":2,"dot_side_length":1,"dot_life":-1,"move_distance":1,"aperture_width":300,"aperture_height":300,"dot_color":["white","white","white","black","white","black","white","black","white","black","black","black","white","white","black","white","white","black","white","black","black","white","white","black","black","black","black","white","black","black","black","black","black","black","white","black","white","black","black","white","black","black","black","black","white","black","white","white","black","black","white","black","black","white","black","white","black","white","white","black","white","white","white","black","white","black","white","white","white","white","black","white","white","black","white","black","black","white","white","black","black","black","white","black","white","black","white","black","black","black","white","white","black","white","black","black","black","white","black","white","black","black","white","black","black","black","white","white","white","black","white","white","white","black","black","white","black","black","black","white","white","black","white","white","black","white","white","white","white","black","black","white","white","white","black","black","white","white","black","black","white","black","white","white","white","white","black","white","white","black","white","black","black","white","white","black","black","black","black","white","black","black","white","white","white","white","white","black","black","white","black","white","white","white","white","black","white","black","black","black","white","black","white","white","black","white","black","white","black","black","black","white","white","black","white","white","black","white","white","black"],"dot_shape":"circle","background_color":"#AAA","RDK_type":3,"aperture_type":2,"reinsert_type":2,"frame_rate":16.675,"frame_rate_array":[15,15,18,16,17,19,14,16,18,16,17,17,17,16,17,17,17,16,18,15,17,17,17,17,16,17,16,17,18,14,18,17,16,17,20,13,17,16,17,18,17,16,17,16,17,16,17,17,16,18,16,17,17,17,17,16,17,17,17,16,17,17,17,17,16,17,17,17,16,16,17,17,17,16,17,16,17,16,18,16,17,16,17,16,16,17,17,16,17,17,16,17,16,17,16,16,18,17,17,16,17,17,17,16,17,17,16,17,16,17,16,18,16,17,17,16,17,17,16,18],"number_of_frames":120,"aperture_center_x":960,"aperture_center_y":540,"fixation_cross":true,"fixation_cross_width":15,"fixation_cross_height":15,"fixation_cross_color":"#111","fixation_cross_thickness":1,"border":true,"border_thickness":2,"border_color":"transparent","canvas_width":1920,"canvas_height":1080,"trial_type":"rdk","trial_index":76,"plugin_version":"2.0.0","time_elapsed":298098},{"rt":3176,"stimulus":"\n        <div class=\"response-container\">\n          <div class=\"response-instruction\">\n            <p>rotate the bar by using the left and right arrow keys.</p>\n            <p>when you are determined, press the Enter key.</p>\n          </div>\n          <div class=\"response-circle\">\n            <div class=\"response-fixation\"></div>\n            <div id=\"bar\" class=\"rotating-bar\"></div>\n          </div>\n        </div>\n      ","response":"Enter","trial_type":"html-keyboard-response","trial_index":77,"plugin_version":"2.1.0","time_elapsed":301275,"response_angle_css":253,"response_angle_rdk":197,"angular_error_target":43,"angular_error_distractor":146,"target_direction":154,"target_group":"white","reward_points":1},{"rt":null,"stimulus":"\n          <p style=\"color: #FF3333;\">Your reward: 1 points</p>\n        ","response":null,"trial_type":"html-keyboard-response","trial_index":78,"plugin_version":"2.1.0","time_elapsed":303288},{"rt":null,"stimulus":"<div class=\"fixation\" style=\"font-size: 60px;\">+</div>","response":null,"trial_type":"html-keyboard-response","trial_index":79,"plugin_version":"2.1.0","time_elapsed":304304},{"target_group":"white","condition_label":"W_H_vs_B_L_rep3","target_direction":138,"distractor_direction":38,"session_rotation":122,"rt":-1,"response":"","correct":false,"choices":"ALL_KEYS","correct_choice":["a"],"trial_duration":2000,"flip_timestamps":[],"response_ends_trial":false,"number_of_apertures":200,"number_of_dots":[1,1,1,1,1,1,1,1,1,1,1,1,1,1,1,1,1,1,1,1,1,1,1,1,1,1,1,1,1,1,1,1,1,1,1,1,1,1,1,1,1,1,1,1,1,1,1,1,1,1,1,1,1,1,1,1,1,1,1,1,1,1,1,1,1,1,1,1,1,1,1,1,1,1,1,1,1,1,1,1,1,1,1,1,1,1,1,1,1,1,1,1,1,1,1,1,1,1,1,1,1,1,1,1,1,1,1,1,1,1,1,1,1,1,1,1,1,1,1,1,1,1,1,1,1,1,1,1,1,1,1,1,1,1,1,1,1,1,1,1,1,1,1,1,1,1,1,1,1,1,1,1,1,1,1,1,1,1,1,1,1,1,1,1,1,1,1,1,1,1,1,1,1,1,1,1,1,1,1,1,1,1,1,1,1,1,1,1,1,1,1,1,1,1,1,1,1,1,1,1],"number_of_sets":1,"coherent_direction":[38,138,138,38,38,138,138,38,38,138,138,138,38,38,38,38,38,38,138,38,38,38,38,138,38,38,38,38,138,38,38,138,138,138,138,38,138,138,138,138,138,38,38,138,138,138,38,38,38,138,38,138,138,138,138,38,138,138,38,138,138,38,138,38,38,38,38,138,138,38,38,38,38,38,138,38,138,38,38,38,38,38,138,38,138,38,138,138,38,138,138,138,138,138,38,138,138,138,138,38,38,138,38,138,138,138,38,38,38,138,38,138,38,138,138,38,38,38,138,138,38,138,138,38,38,138,138,38,138,38,38,38,38,138,138,38,138,138,138,138,38,138,138,38,38,138,38,38,138,138,38,138,138,38,38,38,138,138,138,138,138,38,38,138,138,138,38,38,38,38,138,138,38,138,38,138,138,138,38,38,38,138,38,38,138,38,38,38,138,38,138,38,138,38,38,138,138,138,38,138],"coherence":1,"opposite_coherence":0,"dot_radius":2,"dot_side_length":1,"dot_life":-1,"move_distance":1,"aperture_width":300,"aperture_height":300,"dot_color":["black","white","white","black","black","white","white","black","black","white","white","white","black","black","black","black","black","black","white","black","black","black","black","white","black","black","black","black","white","black","black","white","white","white","white","black","white","white","white","white","white","black","black","white","white","white","black","black","black","white","black","white","white","white","white","black","white","white","black","white","white","black","white","black","black","black","black","white","white","black","black","black","black","black","white","black","white","black","black","black","black","black","white","black","white","black","white","white","black","white","white","white","white","white","black","white","white","white","white","black","black","white","black","white","white","white","black","black","black","white","black","white","black","white","white","black","black","black","white","white","black","white","white","black","black","white","white","black","white","black","black","black","black","white","white","black","white","white","white","white","black","white","white","black","black","white","black","black","white","white","black","white","white","black","black","black","white","white","white","white","white","black","black","white","white","white","black","black","black","black","white","white","black","white","black","white","white","white","black","black","b