[{"rt":8016,"stimulus":"Welcome to the experiment. Press any key to begin.","response":"m","trial_type":"html-keyboard-response","trial_index":0,"plugin_version":"2.1.0","time_elapsed":8019},{"rt":130290,"stimulus":"\n        <div class=\"instructions-container\">\n          <h2>Instructions</h2>\n\n          <p>\n          In this experiment, you will see <strong>two Random Dot Kinematograms (RDKs)</strong> displayed simultaneously.\n          </p>\n\n          <p>\n          An RDK is a visual stimulus consisting of many small dots that move coherently in a single direction. \n          In this experiment, the dots will be either <strong>white</strong> or <strong>black</strong> \n          (see the short demo below for an example of an RDK stimulus).\n          </p>\n\n          <p>\n          On each trial, the two RDKs will move in different directions. \n          Your task is to decide <strong>which RDK appears to contain more dots</strong>.\n          </p>\n\n          <p>\n          The RDK that you judge to have more dots is called the <strong>target RDK</strong>. \n          For example, if the white RDK appears to have more dots than the black RDK, \n          you should report the motion direction of the white RDK.\n          </p>\n\n          <p>\n          After viewing the RDKs, you will rotate a bar to indicate the perceived direction of the target RDK \n          using the <strong>left</strong> and <strong>right arrow keys</strong>. \n          Press <strong>Enter</strong> when you are satisfied with your response.\n          </p>\n\n          <p>\n          You will receive points based on the <strong>accuracy of your response</strong>, \n          and your final <strong>bonus reward</strong> may depend on your overall performance. \n          Please try to respond as accurately as possible.\n          </p>\n\n          <p>\n          You will first complete <strong>three practice trials</strong>. \n          Press the <strong>Enter</strong> key to start the practice phase.\n          </p>\n\n          <canvas id=\"instruction-demo-rdk\" width=\"300\" height=\"300\"style=\"display:block;margin:12px auto; border-radius: 50%;\"></canvas>\n        </div>\n      ","response":"Enter","trial_type":"html-keyboard-response","trial_index":1,"plugin_version":"2.1.0","time_elapsed":138311},{"rt":null,"stimulus":"<div class=\"fixation\" style=\"font-size: 60px;\">+</div>","response":null,"trial_type":"html-keyboard-response","trial_index":2,"plugin_version":"2.1.0","time_elapsed":139325},{"target_group":"black","target_index":1,"condition_label":"B_H_vs_W_L","rt":-1,"response":"","correct":false,"choices":"ALL_KEYS","correct_choice":["a"],"trial_duration":2000,"flip_timestamps":[],"response_ends_trial":false,"number_of_apertures":2,"number_of_dots":[50,100],"number_of_sets":1,"coherent_direction":[10,100],"coherence":1,"opposite_coherence":0,"dot_radius":2,"dot_side_length":1,"dot_life":-1,"move_distance":1,"aperture_width":300,"aperture_height":300,"dot_color":["white","black"],"dot_shape":"circle","background_color":"#AAA","RDK_type":3,"aperture_type":2,"reinsert_type":2,"frame_rate":16.520661157024794,"frame_rate_array":[2,7,17,16,17,17,16,17,17,16,17,17,17,16,17,17,16,18,16,17,16,17,16,17,18,17,16,17,17,17,17,17,16,17,17,17,16,18,16,17,16,16,17,17,16,18,16,17,17,17,17,16,16,17,17,17,16,17,18,15,17,17,16,17,17,17,16,17,17,16,17,16,17,17,16,18,16,17,16,16,17,16,16,17,17,17,17,18,16,17,17,16,16,17,17,17,17,17,17,17,17,17,17,16,17,17,16,17,16,17,17,17,16,17,17,17,16,17,16,17,17],"number_of_frames":121,"aperture_center_x":758.5,"aperture_center_y":426.5,"fixation_cross":true,"fixation_cross_width":15,"fixation_cross_height":15,"fixation_cross_color":"#111","fixation_cross_thickness":1,"border":true,"border_thickness":2,"border_color":"transparent","canvas_width":1517,"canvas_height":853,"trial_type":"rdk","trial_index":3,"plugin_version":"2.0.0","time_elapsed":141340,"target_direction":100,"distractor_direction":10},{"rt":7048,"stimulus":"\n        <div class=\"response-container\">\n          <div class=\"response-instruction\">\n            <p>rotate the bar by using the left and right arrow keys.</p>\n            <p>when you are determined, press the Enter key.</p>\n          </div>\n          <div class=\"response-circle\">\n            <div class=\"response-fixation\"></div>\n            <div id=\"bar\" class=\"rotating-bar\"></div>\n          </div>\n        </div>\n      ","response":"Enter","trial_type":"html-keyboard-response","trial_index":4,"plugin_version":"2.1.0","time_elapsed":148391,"response_angle_css":-23,"response_angle_rdk":113,"angular_error_target":13,"angular_error_distractor":103,"target_direction":100,"target_group":"black","reward_points":7},{"rt":null,"stimulus":"\n          <p style=\"color: #00FF00;\">Your reward: 7 points</p>\n        ","response":null,"trial_type":"html-keyboard-response","trial_index":5,"plugin_version":"2.1.0","time_elapsed":150403},{"rt":null,"stimulus":"<div class=\"fixation\" style=\"font-size: 60px;\">+</div>","response":null,"trial_type":"html-keyboard-response","trial_index":6,"plugin_version":"2.1.0","time_elapsed":151424},{"target_group":"white","target_index":0,"condition_label":"W_H_vs_B_L","rt":-1,"response":"","correct":false,"choices":"ALL_KEYS","correct_choice":["a"],"trial_duration":2000,"flip_timestamps":[],"response_ends_trial":false,"number_of_apertures":2,"number_of_dots":[100,50],"number_of_sets":1,"coherent_direction":[150,30],"coherence":1,"opposite_coherence":0,"dot_radius":2,"dot_side_length":1,"dot_life":-1,"move_distance":1,"aperture_width":300,"aperture_height":300,"dot_color":["white","black"],"dot_shape":"circle","background_color":"#AAA","RDK_type":3,"aperture_type":2,"reinsert_type":2,"frame_rate":16.669421487603305,"frame_rate_array":[4,13,17,22,11,17,17,17,17,17,17,17,17,17,17,17,17,17,17,16,17,17,16,17,18,16,17,18,15,17,17,17,16,17,17,17,17,16,17,17,17,16,17,17,18,17,16,17,17,17,16,17,17,17,17,17,17,17,16,16,17,17,16,17,16,18,15,17,16,17,17,17,17,17,16,17,17,17,17,16,17,17,16,18,17,15,17,17,16,17,17,17,17,17,17,17,17,16,17,17,16,17,17,17,17,17,17,17,17,17,17,17,17,17,17,16,17,16,17,17,17],"number_of_frames":121,"aperture_center_x":758.5,"aperture_center_y":426.5,"fixation_cross":true,"fixation_cross_width":15,"fixation_cross_height":15,"fixation_cross_color":"#111","fixation_cross_thickness":1,"border":true,"border_thickness":2,"border_color":"transparent","canvas_width":1517,"canvas_height":853,"trial_type":"rdk","trial_index":7,"plugin_version":"2.0.0","time_elapsed":153437,"target_direction":150,"distractor_direction":30},{"rt":3841,"stimulus":"\n        <div class=\"response-container\">\n          <div class=\"response-instruction\">\n            <p>rotate the bar by using the left and right arrow keys.</p>\n            <p>when you are determined, press the Enter key.</p>\n          </div>\n          <div class=\"response-circle\">\n            <div class=\"response-fixation\"></div>\n            <div id=\"bar\" class=\"rotating-bar\"></div>\n          </div>\n        </div>\n      ","response":"Enter","trial_type":"html-keyboard-response","trial_index":8,"plugin_version":"2.1.0","time_elapsed":157280,"response_angle_css":-41,"response_angle_rdk":131,"angular_error_target":-19,"angular_error_distractor":101,"target_direction":150,"target_group":"white","reward_points":6},{"rt":null,"stimulus":"\n          <p style=\"color: #00FF00;\">Your reward: 6 points</p>\n        ","response":null,"trial_type":"html-keyboard-response","trial_index":9,"plugin_version":"2.1.0","time_elapsed":159294},{"rt":null,"stimulus":"<div class=\"fixation\" style=\"font-size: 60px;\">+</div>","response":null,"trial_type":"html-keyboard-response","trial_index":10,"plugin_version":"2.1.0","time_elapsed":160299},{"target_group":"black","target_index":1,"condition_label":"B_H_vs_W_L","rt":-1,"response":"","correct":false,"choices":"ALL_KEYS","correct_choice":["a"],"trial_duration":2000,"flip_timestamps":[],"response_ends_trial":false,"number_of_apertures":2,"number_of_dots":[50,100],"number_of_sets":1,"coherent_direction":[270,180],"coherence":1,"opposite_coherence":0,"dot_radius":2,"dot_side_length":1,"dot_life":-1,"move_distance":1,"aperture_width":300,"aperture_height":300,"dot_color":["white","black"],"dot_shape":"circle","background_color":"#AAA","RDK_type":3,"aperture_type":2,"reinsert_type":2,"frame_rate":16.716666666666665,"frame_rate_array":[14,16,17,17,16,17,16,16,17,17,16,17,18,16,17,17,17,17,16,17,17,17,16,17,17,16,17,17,16,17,17,16,17,17,16,17,16,16,17,17,16,17,17,16,17,17,16,17,17,16,17,16,17,16,16,17,17,17,17,18,17,17,17,17,16,17,17,15,17,17,16,17,17,17,17,17,17,17,17,17,17,17,17,17,17,17,17,17,16,17,17,16,17,17,17,17,17,16,17,17,16,17,17,17,16,17,16,16,17,17,17,17,16,15,17,17,17,17,18,18],"number_of_frames":120,"aperture_center_x":758.5,"aperture_center_y":426.5,"fixation_cross":true,"fixation_cross_width":15,"fixation_cross_height":15,"fixation_cross_color":"#111","fixation_cross_thickness":1,"border":true,"border_thickness":2,"border_color":"transparent","canvas_width":1517,"canvas_height":853,"trial_type":"rdk","trial_index":11,"plugin_version":"2.0.0","time_elapsed":162321,"target_direction":180,"distractor_direction":270},{"rt":3444,"stimulus":"\n        <div class=\"response-container\">\n          <div class=\"response-instruction\">\n            <p>rotate the bar by using the left and right arrow keys.</p>\n            <p>when you are determined, press the Enter key.</p>\n          </div>\n          <div class=\"response-circle\">\n            <div class=\"response-fixation\"></div>\n            <div id=\"bar\" class=\"rotating-bar\"></div>\n          </div>\n        </div>\n      ","response":"Enter","trial_type":"html-keyboard-response","trial_index":12,"plugin_version":"2.1.0","time_elapsed":165767,"response_angle_css":44,"response_angle_rdk":46,"angular_error_target":-134,"angular_error_distractor":136,"target_direction":180,"target_group":"black","reward_points":0},{"rt":null,"stimulus":"\n          <p style=\"color: #FF3333;\">Your reward: 0 points</p>\n        ","response":null,"trial_type":"html-keyboard-response","trial_index":13,"plugin_version":"2.1.0","time_elapsed":167774},{"rt":2103,"stimulus":"\n        <div class=\"instructions-container\">\n          <h2>End of Practice</h2>\n          <p>You have completed the practice trials.</p>\n          <p>Press <strong>Enter</strong> key to begin the main experiment.</p>\n        </div>\n      ","response":"Enter","trial_type":"html-keyboard-response","trial_index":14,"plugin_version":"2.1.0","time_elapsed":169878},{"rt":null,"stimulus":"<div class=\"fixation\" style=\"font-size: 60px;\">+</div>","response":null,"trial_type":"html-keyboard-response","trial_index":15,"plugin_version":"2.1.0","time_elapsed":170899},{"target_group":"white","condition_label":"W_H_vs_B_L_rep25","target_direction":355,"distractor_direction":261,"session_rotation":328,"rt":-1,"response":"","correct":false,"choices":"ALL_KEYS","correct_choice":["a"],"trial_duration":2000,"flip_timestamps":[],"response_ends_trial":false,"number_of_apertures":200,"number_of_dots":[1,1,1,1,1,1,1,1,1,1,1,1,1,1,1,1,1,1,1,1,1,1,1,1,1,1,1,1,1,1,1,1,1,1,1,1,1,1,1,1,1,1,1,1,1,1,1,1,1,1,1,1,1,1,1,1,1,1,1,1,1,1,1,1,1,1,1,1,1,1,1,1,1,1,1,1,1,1,1,1,1,1,1,1,1,1,1,1,1,1,1,1,1,1,1,1,1,1,1,1,1,1,1,1,1,1,1,1,1,1,1,1,1,1,1,1,1,1,1,1,1,1,1,1,1,1,1,1,1,1,1,1,1,1,1,1,1,1,1,1,1,1,1,1,1,1,1,1,1,1,1,1,1,1,1,1,1,1,1,1,1,1,1,1,1,1,1,1,1,1,1,1,1,1,1,1,1,1,1,1,1,1,1,1,1,1,1,1,1,1,1,1,1,1,1,1,1,1,1,1],"number_of_sets":1,"coherent_direction":[261,355,261,355,261,355,261,355,261,261,355,261,261,355,355,355,355,355,355,261,261,261,355,355,261,261,261,355,261,261,261,261,261,261,355,261,355,261,355,261,261,261,355,355,355,261,355,355,355,261,355,355,355,355,355,261,261,261,355,355,355,261,261,261,261,261,355,261,355,355,355,355,355,355,261,261,355,355,355,261,355,261,355,261,261,355,355,261,261,355,355,261,355,355,355,261,355,355,355,261,261,261,261,261,355,355,261,261,355,355,355,261,261,355,261,355,261,355,355,261,355,261,355,355,261,355,355,261,355,261,261,261,261,261,355,261,261,261,261,261,261,355,261,261,261,261,355,261,355,261,355,355,355,261,261,355,355,261,261,355,261,261,355,261,261,355,355,261,355,261,355,261,355,261,355,261,355,355,355,355,261,355,261,261,355,355,355,261,355,355,355,261,261,261,355,355,261,355,261,355],"coherence":1,"opposite_coherence":0,"dot_radius":2,"dot_side_length":1,"dot_life":-1,"move_distance":1,"aperture_width":300,"aperture_height":300,"dot_color":["black","white","black","white","black","white","black","white","black","black","white","black","black","white","white","white","white","white","white","black","black","black","white","white","black","black","black","white","black","black","black","black","black","black","white","black","white","black","white","black","black","black","white","white","white","black","white","white","white","black","white","white","white","white","white","black","black","black","white","white","white","black","black","black","black","black","white","black","white","white","white","white","white","white","black","black","white","white","white","black","white","black","white","black","black","white","white","black","black","white","white","black","white","white","white","black","white","white","white","black","black","black","black","black","white","white","black","black","white","white","white","black","black","white","black","white","black","white","white","black","white","black","white","white","black","white","white","black","white","black","black","black","black","black","white","black","black","black","black","black","black","white","black","black","black","black","white","black","white","black","white","white","white","black","black","white","white","black","black","white","black","black","white","black","black","white","white","black","white","black","white","black","white","black","white","black","white","white","white","white","black","white","black","black","white","white","white","black","white","white","white","black","black","black","white","white","black","white","black","white"],"dot_shape":"circle","background_color":"#AAA","RDK_type":3,"aperture_type":2,"reinsert_type":2,"frame_rate":16.85,"frame_rate_array":[12,17,16,17,16,17,17,17,17,17,17,17,17,17,16,17,17,17,17,17,17,17,17,16,17,17,17,17,17,17,17,17,17,17,17,17,17,17,17,17,16,17,17,17,17,17,17,17,17,17,16,17,17,17,16,17,17,17,17,17,17,17,17,17,17,17,17,17,17,17,17,16,17,17,17,17,17,17,17,17,17,17,17,17,17,17,17,16,17,16,17,17,17,17,17,17,17,17,16,17,17,16,17,16,17,17,17,17,17,17,17,17,17,17,17,17,17,17,17,17],"number_of_frames":120,"aperture_center_x":758.5,"aperture_center_y":426.5,"fixation_cross":true,"fixation_cross_width":15,"fixation_cross_height":15,"fixation_cross_color":"#111","fixation_cross_thickness":1,"border":true,"border_thickness":2,"border_color":"transparent","canvas_width":1517,"canvas_height":853,"trial_type":"rdk","trial_index":16,"plugin_version":"2.0.0","time_elapsed":172916},{"rt":2989,"stimulus":"\n        <div class=\"response-container\">\n          <div class=\"response-instruction\">\n            <p>rotate the bar by using the left and right arrow keys.</p>\n            <p>when you are determined, press the Enter key.</p>\n          </div>\n          <div class=\"response-circle\">\n            <div class=\"response-fixation\"></div>\n            <div id=\"bar\" class=\"rotating-bar\"></div>\n          </div>\n        </div>\n      ","response":"Enter","trial_type":"html-keyboard-response","trial_index":17,"plugin_version":"2.1.0","time_elapsed":175905,"response_angle_css":220,"response_angle_rdk":230,"angular_error_target":-125,"angular_error_distractor":-31,"target_direction":355,"target_group":"white","reward_points":0},{"rt":null,"stimulus":"\n          <p style=\"color: #FF3333;\">Your reward: 0 points</p>\n        ","response":null,"trial_type":"html-keyboard-response","trial_index":18,"plugin_version":"2.1.0","time_elapsed":177913},{"rt":null,"stimulus":"<div class=\"fixation\" style=\"font-size: 60px;\">+</div>","response":null,"trial_type":"html-keyboard-response","trial_index":19,"plugin_version":"2.1.0","time_elapsed":178934},{"target_group":"white","condition_label":"W_H_vs_B_L_rep8","target_direction":11,"distractor_direction":263,"session_rotation":328,"rt":-1,"response":"","correct":false,"choices":"ALL_KEYS","correct_choice":["a"],"trial_duration":2000,"flip_timestamps":[],"response_ends_trial":false,"number_of_apertures":200,"number_of_dots":[1,1,1,1,1,1,1,1,1,1,1,1,1,1,1,1,1,1,1,1,1,1,1,1,1,1,1,1,1,1,1,1,1,1,1,1,1,1,1,1,1,1,1,1,1,1,1,1,1,1,1,1,1,1,1,1,1,1,1,1,1,1,1,1,1,1,1,1,1,1,1,1,1,1,1,1,1,1,1,1,1,1,1,1,1,1,1,1,1,1,1,1,1,1,1,1,1,1,1,1,1,1,1,1,1,1,1,1,1,1,1,1,1,1,1,1,1,1,1,1,1,1,1,1,1,1,1,1,1,1,1,1,1,1,1,1,1,1,1,1,1,1,1,1,1,1,1,1,1,1,1,1,1,1,1,1,1,1,1,1,1,1,1,1,1,1,1,1,1,1,1,1,1,1,1,1,1,1,1,1,1,1,1,1,1,1,1,1,1,1,1,1,1,1,1,1,1,1,1,1],"number_of_sets":1,"coherent_direction":[11,11,11,11,263,11,263,263,263,11,11,11,11,263,11,11,263,263,263,263,263,11,263,263,263,263,11,11,263,11,11,263,263,263,11,11,11,11,263,11,11,263,11,263,11,263,263,11,11,11,263,263,263,263,263,263,263,263,263,11,263,11,11,11,263,263,11,11,11,263,11,263,263,11,11,11,263,11,11,11,263,11,263,263,263,11,263,263,11,11,11,11,263,263,263,11,263,263,11,263,11,11,11,263,11,263,263,11,263,263,263,11,263,11,263,11,11,11,263,263,263,11,11,11,263,263,263,263,11,263,11,263,11,263,11,263,263,263,263,263,11,11,263,263,263,263,11,263,263,11,11,11,11,11,263,263,11,263,11,263,11,263,263,11,263,11,263,11,263,11,11,11,11,263,263,11,11,263,263,11,11,11,11,11,11,263,11,11,263,263,263,263,11,11,263,263,11,11,11,11],"coherence":1,"opposite_coherence":0,"dot_radius":2,"dot_side_length":1,"dot_life":-1,"move_distance":1,"aperture_width":300,"aperture_height":300,"dot_color":["white","white","white","white","black","white","black","black","black","white","white","white","white","black","white","white","black","black","black","black","black","white","black","black","black","black","white","white","black","white","white","black","black","black","white","white","white","white","black","white","white","black","white","black","white","black","black","white","white","white","black","black","black","black","black","black","black","black","black","white","black","white","white","white","black","black","white","white","white","black","white","black","black","white","white","white","black","white","white","white","black","white","black","black","black","white","black","black","white","white","white","white","black","black","black","white","black","black","white","black","white","white","white","black","white","black","black","white","black","black","black","white","black","white","black","white","white","white","black","black","black","white","white","white","black","black","black","black","white","black","white","black","white","black","white","black","black","black","black","black","white","white","black","black","black","black","white","black","black","white","white","white","white","white","black","black","white","black","white","black","white","black","black","white","black","white","black","white","black","white","white","white","white","black","black","white","white","black","black","white","white","white","white","white","white","black","white","white","black","black","black","black","white","white","black","black","white","white","white","white"],"dot_shape":"circle","background_color":"#AAA","RDK_type":3,"aperture_type":2,"reinsert_type":2,"frame_rate":16.875,"frame_rate_array":[10,17,17,17,17,17,17,17,17,17,17,17,17,17,16,17,17,17,17,17,17,17,17,17,17,17,17,17,17,17,17,17,17,16,17,17,17,17,16,17,17,17,17,17,17,16,17,17,17,17,17,16,17,17,17,17,17,17,17,17,17,17,17,17,17,17,17,17,17,17,17,17,17,17,17,16,17,17,17,17,17,17,17,17,17,17,17,17,17,17,17,17,17,17,17,17,17,17,17,16,17,17,17,17,17,17,17,17,17,17,17,17,17,17,17,17,17,17,16,17],"number_of_frames":120,"aperture_center_x":758.5,"aperture_center_y":426.5,"fixation_cross":true,"fixation_cross_width":15,"fixation_cross_height":15,"fixation_cross_color":"#111","fixation_cross_thickness":1,"border":true,"border_thickness":2,"border_color":"transparent","canvas_width":1517,"canvas_height":853,"trial_type":"rdk","trial_index":20,"plugin_version":"2.0.0","time_elapsed":180949},{"rt":3871,"stimulus":"\n        <div class=\"response-container\">\n          <div class=\"response-instruction\">\n            <p>rotate the bar by using the left and right arrow keys.</p>\n            <p>when you are determined, press the Enter key.</p>\n          </div>\n          <div class=\"response-circle\">\n            <div class=\"response-fixation\"></div>\n            <div id=\"bar\" class=\"rotating-bar\"></div>\n          </div>\n        </div>\n      ","response":"Enter","trial_type":"html-keyboard-response","trial_index":21,"plugin_version":"2.1.0","time_elapsed":184820,"response_angle_css":226,"response_angle_rdk":224,"angular_error_target":-147,"angular_error_distractor":-39,"target_direction":11,"target_group":"white","reward_points":0},{"rt":null,"stimulus":"\n          <p style=\"color: #FF3333;\">Your reward: 0 points</p>\n        ","response":null,"trial_type":"html-keyboard-response","trial_index":22,"plugin_version":"2.1.0","time_elapsed":186824},{"rt":null,"stimulus":"<div class=\"fixation\" style=\"font-size: 60px;\">+</div>","response":null,"trial_type":"html-keyboard-response","trial_index":23,"plugin_version":"2.1.0","time_elapsed":187831},{"target_group":"black","condition_label":"B_H_vs_W_L_rep12","target_direction":68,"distractor_direction":163,"session_rotation":328,"rt":-1,"response":"","correct":false,"choices":"ALL_KEYS","correct_choice":["a"],"trial_duration":2000,"flip_timestamps":[],"response_ends_trial":false,"number_of_apertures":200,"number_of_dots":[1,1,1,1,1,1,1,1,1,1,1,1,1,1,1,1,1,1,1,1,1,1,1,1,1,1,1,1,1,1,1,1,1,1,1,1,1,1,1,1,1,1,1,1,1,1,1,1,1,1,1,1,1,1,1,1,1,1,1,1,1,1,1,1,1,1,1,1,1,1,1,1,1,1,1,1,1,1,1,1,1,1,1,1,1,1,1,1,1,1,1,1,1,1,1,1,1,1,1,1,1,1,1,1,1,1,1,1,1,1,1,1,1,1,1,1,1,1,1,1,1,1,1,1,1,1,1,1,1,1,1,1,1,1,1,1,1,1,1,1,1,1,1,1,1,1,1,1,1,1,1,1,1,1,1,1,1,1,1,1,1,1,1,1,1,1,1,1,1,1,1,1,1,1,1,1,1,1,1,1,1,1,1,1,1,1,1,1,1,1,1,1,1,1,1,1,1,1,1,1],"number_of_sets":1,"coherent_direction":[68,163,163,163,68,68,163,68,68,163,163,163,68,163,68,68,68,68,163,163,68,68,68,163,68,68,68,163,68,163,68,68,163,163,68,163,68,163,163,68,163,68,68,163,163,163,163,68,163,68,163,68,68,163,163,163,163,163,163,163,163,163,68,163,68,68,68,163,68,68,163,68,163,163,163,68,68,68,163,163,68,163,68,163,68,163,68,68,163,68,163,68,68,163,163,163,68,68,68,68,68,68,68,163,163,163,68,163,68,163,68,163,68,68,68,68,163,163,68,68,68,68,163,163,163,163,163,163,68,68,68,68,163,68,163,163,163,68,68,163,68,163,68,68,68,68,163,163,68,163,163,163,68,163,163,163,68,163,163,68,68,68,68,68,68,163,163,163,163,163,68,163,163,163,68,68,68,163,68,163,163,68,68,163,68,68,68,163,68,163,163,163,163,68,68,163,163,163,68,68],"coherence":1,"opposite_coherence":0,"dot_radius":2,"dot_side_length":1,"dot_life":-1,"move_distance":1,"aperture_width":300,"aperture_height":300,"dot_color":["black","white","white","white","black","black","white","black","black","white","white","white","black","white","black","black","black","black","white","white","black","black","black","white","black","black","black","white","black","white","black","black","white","white","black","white","black","white","white","black","white","black","black","white","white","white","white","black","white","black","white","black","black","white","white","white","white","white","white","white","white","white","black","white","black","black","black","white","black","black","white","black","white","white","white","black","black","black","white","white","black","white","black","white","black","white","black","black","white","black","white","black","black","white","white","white","black","black","black","black","black","black","black","white","white","white","black","white","black","white","black","white","black","black","black","black","white","white","black","black","black","black","white","white","white","white","white","white","black","black","black","black","white","black","white","white","white","black","black","white","black","white","black","black","black","black","white","white","black","white","white","white","black","white","white","white","black","white","white","black","black","black","black","black","black","white","white","white","white","white","black","white","white","white","black","black","black","white","black","white","white","black","black","white","black","black","black","white","black","white","white","white","white","black","black","white","white","white","black","black"],"dot_shape":"circle","background_color":"#AAA","RDK_type":3,"aperture_type":2,"reinsert_type":2,"frame_rate":16.658333333333335,"frame_rate_array":[15,15,17,16,17,17,17,16,17,17,16,17,16,16,17,17,17,17,17,17,17,17,16,17,17,16,17,16,17,17,17,16,17,16,17,17,16,17,17,17,16,17,16,17,17,17,16,17,17,17,17,17,16,17,16,17,17,17,16,17,17,16,17,16,17,17,16,17,16,16,17,17,16,17,17,16,17,17,17,17,17,16,17,17,16,17,16,16,17,17,16,17,17,16,17,17,16,17,17,16,17,17,17,17,17,17,17,17,16,17,16,16,17,17,16,17,17,16,17,17],"number_of_frames":120,"aperture_center_x":758.5,"aperture_center_y":426.5,"fixation_cross":true,"fixation_cross_width":15,"fixation_cross_height":15,"fixation_cross_color":"#111","fixation_cross_thickness":1,"border":true,"border_thickness":2,"border_color":"transparent","canvas_width":1517,"canvas_height":853,"trial_type":"rdk","trial_index":24,"plugin_version":"2.0.0","time_elapsed":189835},{"rt":4119,"stimulus":"\n        <div class=\"response-container\">\n          <div class=\"response-instruction\">\n            <p>rotate the bar by using the left and right arrow keys.</p>\n            <p>when you are determined, press the Enter key.</p>\n          </div>\n          <div class=\"response-circle\">\n            <div class=\"response-fixation\"></div>\n            <div id=\"bar\" class=\"rotating-bar\"></div>\n          </div>\n        </div>\n      ","response":"Enter","trial_type":"html-keyboard-response","trial_index":25,"plugin_version":"2.1.0","time_elapsed":193954,"response_angle_css":230,"response_angle_rdk":220,"angular_error_target":152,"angular_error_distractor":57,"target_direction":68,"target_group":"black","reward_points":0},{"rt":null,"stimulus":"\n          <p style=\"color: #FF3333;\">Your reward: 0 points</p>\n        ","response":null,"trial_type":"html-keyboard-response","trial_index":26,"plugin_version":"2.1.0","time_elapsed":195964},{"rt":null,"stimulus":"<div class=\"fixation\" style=\"font-size: 60px;\">+</div>","response":null,"trial_type":"html-keyboard-response","trial_index":27,"plugin_version":"2.1.0","time_elapsed":196974},{"target_group":"white","condition_label":"W_H_vs_B_L_rep4","target_direction":6,"distractor_direction":243,"session_rotation":328,"rt":-1,"response":"","correct":false,"choices":"ALL_KEYS","correct_choice":["a"],"trial_duration":2000,"flip_timestamps":[],"response_ends_trial":false,"number_of_apertures":200,"number_of_dots":[1,1,1,1,1,1,1,1,1,1,1,1,1,1,1,1,1,1,1,1,1,1,1,1,1,1,1,1,1,1,1,1,1,1,1,1,1,1,1,1,1,1,1,1,1,1,1,1,1,1,1,1,1,1,1,1,1,1,1,1,1,1,1,1,1,1,1,1,1,1,1,1,1,1,1,1,1,1,1,1,1,1,1,1,1,1,1,1,1,1,1,1,1,1,1,1,1,1,1,1,1,1,1,1,1,1,1,1,1,1,1,1,1,1,1,1,1,1,1,1,1,1,1,1,1,1,1,1,1,1,1,1,1,1,1,1,1,1,1,1,1,1,1,1,1,1,1,1,1,1,1,1,1,1,1,1,1,1,1,1,1,1,1,1,1,1,1,1,1,1,1,1,1,1,1,1,1,1,1,1,1,1,1,1,1,1,1,1,1,1,1,1,1,1,1,1,1,1,1,1],"number_of_sets":1,"coherent_direction":[243,6,6,243,243,6,6,243,243,6,243,243,6,6,243,6,243,243,6,243,243,243,243,6,6,6,243,6,6,6,243,243,6,6,243,243,243,6,243,243,6,6,243,243,243,6,243,243,243,6,243,6,6,6,6,243,6,243,243,6,243,243,6,6,6,243,6,243,243,243,243,243,6,243,6,6,6,6,6,6,243,243,243,243,6,243,6,243,243,243,243,6,243,243,6,243,243,243,243,243,6,6,243,6,6,6,6,6,243,6,6,6,6,243,243,6,6,6,6,243,6,6,6,6,6,243,243,243,6,6,243,6,243,243,243,243,6,6,6,243,6,6,243,6,6,6,243,6,6,243,243,6,243,243,6,243,243,243,6,243,6,6,243,6,243,6,6,6,6,243,243,6,6,243,243,6,6,243,243,6,243,6,6,243,243,6,6,243,6,243,6,243,243,243,243,243,6,6,6,243],"coherence":1,"opposite_coherence":0,"dot_radius":2,"dot_side_length":1,"dot_life":-1,"move_distance":1,"aperture_width":300,"aperture_height":300,"dot_color":["black","white","white","black","black","white","white","black","black","white","black","black","white","white","black","white","black","black","white","black","black","black","black","white","white","white","black","white","white","white","black","black","white","white","black","black","black","white","black","black","white","white","black","black","black","white","black","black","black","white","black","white","white","white","white","black","white","black","black","white","black","black","white","white","white","black","white","black","black","black","black","black","white","black","white","white","white","white","white","white","black","black","black","black","white","black","white","black","black","black","black","white","black","black","white","black","black","black","black","black","white","white","black","white","white","white","white","white","black","white","white","white","white","black","black","white","white","white","white","black","white","white","white","white","white","black","black","black","white","white","black","white","black","black","black","black","white","white","white","black","white","white","black","white","white","white","black","white","white","black","black","white","black","black","white","black","black","black","white","black","white","white","black","white","black","white","white","white","white","black","black","white","white","black","black","white","white","black","black","white","black","white","white","black","black","white","white","black","white","black","white","black","black","black","black","black","white","white","white","black"],"dot_shape":"circle","background_color":"#AAA","RDK_type":3,"aperture_type":2,"reinsert_type":2,"frame_rate":16.611570247933884,"frame_rate_array":[2,12,17,17,17,17,17,17,16,17,17,17,16,17,16,17,17,17,17,17,17,17,18,16,17,17,16,17,17,16,17,17,17,16,17,17,17,17,17,17,17,17,17,17,17,17,17,16,17,17,16,17,17,16,17,17,16,17,17,17,16,17,16,17,17,16,17,16,17,17,17,17,17,16,17,16,17,16,17,17,17,17,17,17,17,17,17,16,17,16,17,17,17,17,17,17,16,17,16,17,17,16,17,17,17,17,16,17,17,17,16,17,17,16,16,17,16,17,17,17,17],"number_of_frames":121,"aperture_center_x":758.5,"aperture_center_y":426.5,"fixation_cross":true,"fixation_cross_width":15,"fixation_cross_height":15,"fixation_cross_color":"#111","fixation_cross_thickness":1,"border":true,"border_thickness":2,"border_color":"transparent","canvas_width":1517,"canvas_height":853,"trial_type":"rdk","trial_index":28,"plugin_version":"2.0.0","time_elapsed":198983},{"rt":6707,"stimulus":"\n        <div class=\"response-container\">\n          <div class=\"response-instruction\">\n            <p>rotate the bar by using the left and right arrow keys.</p>\n            <p>when you are determined, press the Enter key.</p>\n          </div>\n          <div class=\"response-circle\">\n            <div class=\"response-fixation\"></div>\n            <div id=\"bar\" class=\"rotating-bar\"></div>\n          </div>\n        </div>\n      ","response":"Enter","trial_type":"html-keyboard-response","trial_index":29,"plugin_version":"2.1.0","time_elapsed":205691,"response_angle_css":227,"response_angle_rdk":223,"angular_error_target":-143,"angular_error_distractor":-20,"target_direction":6,"target_group":"white","reward_points":0},{"rt":null,"stimulus":"\n          <p style=\"color: #FF3333;\">Your reward: 0 points</p>\n        ","response":null,"trial_type":"html-keyboard-response","trial_index":30,"plugin_version":"2.1.0","time_elapsed":207704},{"rt":null,"stimulus":"<div class=\"fixation\" style=\"font-size: 60px;\">+</div>","response":null,"trial_type":"html-keyboard-response","trial_index":31,"plugin_version":"2.1.0","time_elapsed":208719},{"target_group":"white","condition_label":"W_H_vs_B_L_rep20","target_direction":8,"distractor_direction":273,"session_rotation":328,"rt":-1,"response":"","correct":false,"choices":"ALL_KEYS","correct_choice":["a"],"trial_duration":2000,"flip_timestamps":[],"response_ends_trial":false,"number_of_apertures":200,"number_of_dots":[1,1,1,1,1,1,1,1,1,1,1,1,1,1,1,1,1,1,1,1,1,1,1,1,1,1,1,1,1,1,1,1,1,1,1,1,1,1,1,1,1,1,1,1,1,1,1,1,1,1,1,1,1,1,1,1,1,1,1,1,1,1,1,1,1,1,1,1,1,1,1,1,1,1,1,1,1,1,1,1,1,1,1,1,1,1,1,1,1,1,1,1,1,1,1,1,1,1,1,1,1,1,1,1,1,1,1,1,1,1,1,1,1,1,1,1,1,1,1,1,1,1,1,1,1,1,1,1,1,1,1,1,1,1,1,1,1,1,1,1,1,1,1,1,1,1,1,1,1,1,1,1,1,1,1,1,1,1,1,1,1,1,1,1,1,1,1,1,1,1,1,1,1,1,1,1,1,1,1,1,1,1,1,1,1,1,1,1,1,1,1,1,1,1,1,1,1,1,1,1],"number_of_sets":1,"coherent_direction":[273,273,8,273,273,8,273,273,8,273,273,273,273,273,8,273,273,273,273,8,273,273,8,8,273,273,8,273,273,8,8,273,8,8,8,8,273,273,8,273,8,273,8,8,273,8,8,273,8,8,8,273,8,8,8,8,8,273,273,8,8,273,8,273,8,273,273,273,273,273,8,8,273,273,8,273,273,8,8,8,273,273,273,8,8,273,273,8,8,273,8,8,8,8,8,8,273,8,8,273,8,273,273,273,273,273,273,273,8,8,273,8,273,273,8,8,8,8,273,273,8,273,273,273,8,8,273,8,8,273,8,273,8,273,273,273,8,8,8,273,8,8,273,8,273,8,8,273,8,273,273,273,8,273,8,273,8,8,8,273,8,8,8,273,8,8,273,273,273,8,8,8,8,8,273,273,8,273,273,273,8,273,8,273,8,8,273,8,273,273,8,273,273,273,8,273,273,8,8,8],"coherence":1,"opposite_coherence":0,"dot_radius":2,"dot_side_length":1,"dot_life":-1,"move_distance":1,"aperture_width":300,"aperture_height":300,"dot_color":["black","black","white","black","black","white","black","black","white","black","black","black","black","black","white","black","black","black","black","white","black","black","white","white","black","black","white","black","black","white","white","black","white","white","white","white","black","black","white","black","white","black","white","white","black","white","white","black","white","white","white","black","white","white","white","white","white","black","black","white","white","black","white","black","white","black","black","black","black","black","white","white","black","black","white","black","black","white","white","white","black","black","black","white","white","black","black","white","white","black","white","white","white","white","white","white","black","white","white","black","white","black","black","black","black","black","black","black","white","white","black","white","black","black","white","white","white","white","black","black","white","black","black","black","white","white","black","white","white","black","white","black","white","black","black","black","white","white","white","black","white","white","black","white","black","white","white","black","white","black","black","black","white","black","white","black","white","white","white","black","white","white","white","black","white","white","black","black","black","white","white","white","white","white","black","black","white","black","black","black","white","black","white","black","white","white","black","white","black","black","white","black","black","black","white","black","black","white","white","white"],"dot_shape":"circle","background_color":"#AAA","RDK_type":3,"aperture_type":2,"reinsert_type":2,"frame_rate":16.658333333333335,"frame_rate_array":[5,12,17,16,17,17,17,17,17,17,17,16,18,16,17,17,17,16,17,17,17,17,17,16,17,17,17,17,17,16,17,17,16,17,17,17,17,17,17,17,17,16,17,16,17,17,17,17,18,16,17,17,17,17,17,17,17,17,17,17,17,17,16,17,16,17,16,17,16,16,18,16,16,17,17,17,17,16,17,17,17,16,17,17,17,17,16,16,17,17,17,17,17,17,17,17,16,17,17,16,17,17,16,17,17,16,17,17,17,16,17,16,17,17,17,17,17,17,17,17],"number_of_frames":120,"aperture_center_x":758.5,"aperture_center_y":426.5,"fixation_cross":true,"fixation_cross_width":15,"fixation_cross_height":15,"fixation_cross_color":"#111","fixation_cross_thickness":1,"border":true,"border_thickness":2,"border_color":"transparent","canvas_width":1517,"canvas_height":853,"trial_type":"rdk","trial_index":32,"plugin_version":"2.0.0","time_elapsed":210728},{"rt":3033,"stimulus":"\n        <div class=\"response-container\">\n          <div class=\"response-instruction\">\n            <p>rotate the bar by using the left and right arrow keys.</p>\n            <p>when you are determined, press the Enter key.</p>\n          </div>\n          <div class=\"response-circle\">\n            <div class=\"response-fixation\"></div>\n            <div id=\"bar\" class=\"rotating-bar\"></div>\n          </div>\n        </div>\n      ","response":"Enter","trial_type":"html-keyboard-response","trial_index":33,"plugin_version":"2.1.0","time_elapsed":213762,"response_angle_css":57,"response_angle_rdk":33,"angular_error_target":25,"angular_error_distractor":120,"target_direction":8,"target_group":"white","reward_points":5},{"rt":null,"stimulus":"\n          <p style=\"color: #00FF00;\">Your reward: 5 points</p>\n        ","response":null,"trial_type":"html-keyboard-response","trial_index":34,"plugin_version":"2.1.0","time_elapsed":215779},{"rt":null,"stimulus":"<div class=\"fixation\" style=\"font-size: 60px;\">+</div>","response":null,"trial_type":"html-keyboard-response","trial_index":35,"plugin_version":"2.1.0","time_elapsed":216783},{"target_group":"black","condition_label":"B_H_vs_W_L_rep6","target_direction":75,"distractor_direction":171,"session_rotation":328,"rt":-1,"response":"","correct":false,"choices":"ALL_KEYS","correct_choice":["a"],"trial_duration":2000,"flip_timestamps":[],"response_ends_trial":false,"number_of_apertures":200,"number_of_dots":[1,1,1,1,1,1,1,1,1,1,1,1,1,1,1,1,1,1,1,1,1,1,1,1,1,1,1,1,1,1,1,1,1,1,1,1,1,1,1,1,1,1,1,1,1,1,1,1,1,1,1,1,1,1,1,1,1,1,1,1,1,1,1,1,1,1,1,1,1,1,1,1,1,1,1,1,1,1,1,1,1,1,1,1,1,1,1,1,1,1,1,1,1,1,1,1,1,1,1,1,1,1,1,1,1,1,1,1,1,1,1,1,1,1,1,1,1,1,1,1,1,1,1,1,1,1,1,1,1,1,1,1,1,1,1,1,1,1,1,1,1,1,1,1,1,1,1,1,1,1,1,1,1,1,1,1,1,1,1,1,1,1,1,1,1,1,1,1,1,1,1,1,1,1,1,1,1,1,1,1,1,1,1,1,1,1,1,1,1,1,1,1,1,1,1,1,1,1,1,1],"number_of_sets":1,"coherent_direction":[171,171,75,171,75,75,75,171,171,75,75,171,75,171,171,171,75,75,171,75,75,75,171,75,75,171,75,75,75,75,171,171,171,75,171,75,171,75,75,75,75,171,171,171,171,171,171,171,171,75,171,75,75,171,75,75,171,171,171,171,75,75,171,171,171,75,75,171,171,171,171,75,75,171,75,171,171,171,75,171,171,75,171,75,75,75,171,171,171,171,171,75,171,171,171,75,171,171,171,171,75,75,75,171,75,75,171,171,75,75,75,171,171,171,75,171,75,171,75,171,171,75,75,171,75,75,75,171,171,75,75,75,171,75,75,75,75,171,75,171,75,75,75,75,171,171,171,75,75,171,75,75,171,171,171,75,75,171,171,75,171,171,171,75,171,75,75,75,75,171,171,171,75,75,75,75,171,75,171,75,171,75,75,75,171,171,75,75,75,171,171,171,75,171,75,75,75,75,171,171],"coherence":1,"opposite_coherence":0,"dot_radius":2,"dot_side_length":1,"dot_life":-1,"move_distance":1,"aperture_width":300,"aperture_height":300,"dot_color":["white","white","black","white","black","black","black","white","white","black","black","white","black","white","white","white","black","black","white","black","black","black","white","black","black","white","black","black","black","black","white","white","white","black","white","black","white","black","black","black","black","white","white","white","white","white","white","white","white","black","white","black","black","white","black","black","white","white","white","white","black","black","white","white","white","black","black","white","white","white","white","black","black","white","black","white","white","white","black","white","white","black","white","black","black","black","white","white","white","white","white","black","white","white","white","black","white","white","white","white","black","black","black","white","black","black","white","white","black","black","black","white","white","white","black","white","black","white","black","white","white","black","black","white","black","black","black","white","white","black","black","black","white","black","black","black","black","white","black","white","black","black","black","black","white","white","white","black","black","white","black","black","white","white","white","black","black","white","white","black","white","white","white","black","white","black","black","black","black","white","white","white","black","black","black","black","white","black","white","black","white","black","black","black","white","white","black","black","black","white","white","white","black","white","black","black","black","black","white","white"],"dot_shape":"circle","background_color":"#AAA","RDK_type":3,"aperture_type":2,"reinsert_type":2,"frame_rate":16.85,"frame_rate_array":[12,17,17,17,17,17,17,17,17,17,17,17,17,17,17,17,17,17,17,16,17,17,17,17,17,16,17,17,17,17,17,17,17,17,16,17,17,16,18,16,17,17,17,16,17,17,17,17,17,17,17,16,17,17,17,16,17,17,17,17,17,16,17,17,17,17,17,17,17,17,17,17,17,17,17,17,17,17,17,17,17,17,17,17,17,17,17,17,17,17,17,17,17,17,17,17,17,17,17,17,16,17,16,17,18,16,16,17,17,17,17,17,16,17,17,16,17,17,17,17],"number_of_frames":120,"aperture_center_x":758.5,"aperture_center_y":426.5,"fixation_cross":true,"fixation_cross_width":15,"fixation_cross_height":15,"fixation_cross_color":"#111","fixation_cross_thickness":1,"border":true,"border_thickness":2,"border_color":"transparent","canvas_width":1517,"canvas_height":853,"trial_type":"rdk","trial_index":36,"plugin_version":"2.0.0","time_elapsed":218797},{"rt":3443,"stimulus":"\n        <div class=\"response-container\">\n          <div class=\"response-instruction\">\n            <p>rotate the bar by using the left and right arrow keys.</p>\n            <p>when you are determined, press the Enter key.</p>\n          </div>\n          <div class=\"response-circle\">\n            <div class=\"response-fixation\"></div>\n            <div id=\"bar\" class=\"rotating-bar\"></div>\n          </div>\n        </div>\n      ","response":"Enter","trial_type":"html-keyboard-response","trial_index":37,"plugin_version":"2.1.0","time_elapsed":222240,"response_angle_css":58,"response_angle_rdk":32,"angular_error_target":-43,"angular_error_distractor":-139,"target_direction":75,"target_group":"black","reward_points":1},{"rt":null,"stimulus":"\n          <p style=\"color: #FF3333;\">Your reward: 1 points</p>\n        ","response":null,"trial_type":"html-keyboard-response","trial_index":38,"plugin_version":"2.1.0","time_elapsed":224243},{"rt":null,"stimulus":"<div class=\"fixation\" style=\"font-size: 60px;\">+</div>","response":null,"trial_type":"html-keyboard-response","trial_index":39,"plugin_version":"2.1.0","time_elapsed":225264},{"target_group":"white","condition_label":"W_H_vs_B_L_rep16","target_direction":10,"distractor_direction":252,"session_rotation":328,"rt":-1,"response":"","correct":false,"choices":"ALL_KEYS","correct_choice":["a"],"trial_duration":2000,"flip_timestamps":[],"response_ends_trial":false,"number_of_apertures":200,"number_of_dots":[1,1,1,1,1,1,1,1,1,1,1,1,1,1,1,1,1,1,1,1,1,1,1,1,1,1,1,1,1,1,1,1,1,1,1,1,1,1,1,1,1,1,1,1,1,1,1,1,1,1,1,1,1,1,1,1,1,1,1,1,1,1,1,1,1,1,1,1,1,1,1,1,1,1,1,1,1,1,1,1,1,1,1,1,1,1,1,1,1,1,1,1,1,1,1,1,1,1,1,1,1,1,1,1,1,1,1,1,1,1,1,1,1,1,1,1,1,1,1,1,1,1,1,1,1,1,1,1,1,1,1,1,1,1,1,1,1,1,1,1,1,1,1,1,1,1,1,1,1,1,1,1,1,1,1,1,1,1,1,1,1,1,1,1,1,1,1,1,1,1,1,1,1,1,1,1,1,1,1,1,1,1,1,1,1,1,1,1,1,1,1,1,1,1,1,1,1,1,1,1],"number_of_sets":1,"coherent_direction":[252,10,10,10,10,10,252,252,252,10,252,252,10,10,10,10,10,252,10,252,10,10,252,252,252,10,10,252,252,10,252,10,10,10,252,252,252,10,10,252,252,252,10,252,10,252,10,252,252,252,252,252,10,10,10,252,10,252,10,10,252,252,10,10,10,252,10,10,252,252,252,10,10,252,252,252,252,10,252,252,252,10,252,10,10,252,252,252,252,252,252,252,10,252,252,252,252,10,252,252,10,252,10,252,10,10,252,252,10,252,10,252,10,10,10,252,252,10,252,10,252,252,10,10,10,252,252,10,10,10,252,10,10,252,252,10,252,10,252,252,10,252,10,252,10,10,10,10,252,252,10,252,252,10,10,10,10,10,252,10,10,10,10,10,252,10,10,10,252,252,10,10,252,252,252,10,10,252,252,10,10,10,252,10,252,252,10,10,10,252,252,10,252,252,10,252,252,10,10,252],"coherence":1,"opposite_coherence":0,"dot_radius":2,"dot_side_length":1,"dot_life":-1,"move_distance":1,"aperture_width":300,"aperture_height":300,"dot_color":["black","white","white","white","white","white","black","black","black","white","black","black","white","white","white","white","white","black","white","black","white","white","black","black","black","white","white","black","black","white","black","white","white","white","black","black","black","white","white","black","black","black","white","black","white","black","white","black","black","black","black","black","white","white","white","black","white","black","white","white","black","black","white","white","white","black","white","white","black","black","black","white","white","black","black","black","black","white","black","black","black","white","black","white","white","black","black","black","black","black","black","black","white","black","black","black","black","white","black","black","white","black","white","black","white","white","black","black","white","black","white","black","white","white","white","black","black","white","black","white","black","black","white","white","white","black","black","white","white","white","black","white","white","black","black","white","black","white","black","black","white","black","white","black","white","white","white","white","black","black","white","black","black","white","white","white","white","white","black","white","white","white","white","white","black","white","white","white","black","black","white","white","black","black","black","white","white","black","black","white","white","white","black","white","black","black","white","white","white","black","black","white","black","black","white","black","black","white","white","black"],"dot_shape":"circle","background_color":"#AAA","RDK_type":3,"aperture_type":2,"reinsert_type":2,"frame_rate":16.616666666666667,"frame_rate_array":[9,15,17,16,17,17,16,17,17,16,17,17,17,17,17,17,16,17,17,17,16,17,17,16,17,16,17,17,17,16,17,17,16,17,17,16,17,16,17,16,17,17,17,17,16,17,16,17,17,17,16,17,17,16,17,16,16,17,17,16,17,17,16,17,16,16,17,17,16,17,16,17,17,16,17,17,17,17,17,17,16,17,16,17,17,16,17,16,17,16,17,17,17,17,17,16,17,17,16,17,16,17,17,17,17,17,17,16,17,17,16,17,17,17,16,17,17,17,17,17],"number_of_frames":120,"aperture_center_x":758.5,"aperture_center_y":426.5,"fixation_cross":true,"fixation_cross_width":15,"fixation_cross_height":15,"fixation_cross_color":"#111","fixation_cross_thickness":1,"border":true,"border_thickness":2,"border_color":"transparent","canvas_width":1517,"canvas_height":853,"trial_type":"rdk","trial_index":40,"plugin_version":"2.0.0","time_elapsed":227281},{"rt":3238,"stimulus":"\n        <div class=\"response-container\">\n          <div class=\"response-instruction\">\n            <p>rotate the bar by using the left and right arrow keys.</p>\n            <p>when you are determined, press the Enter key.</p>\n          </div>\n          <div class=\"response-circle\">\n            <div class=\"response-fixation\"></div>\n            <div id=\"bar\" class=\"rotating-bar\"></div>\n          </div>\n        </div>\n      ","response":"Enter","trial_type":"html-keyboard-response","trial_index":41,"plugin_version":"2.1.0","time_elapsed":230520,"response_angle_css":224,"response_angle_rdk":226,"angular_error_target":-144,"angular_error_distractor":-26,"target_direction":10,"target_group":"white","reward_points":0},{"rt":null,"stimulus":"\n          <p style=\"color: #FF3333;\">Your reward: 0 points</p>\n        ","response":null,"trial_type":"html-keyboard-response","trial_index":42,"plugin_version":"2.1.0","time_elapsed":232534},{"rt":null,"stimulus":"<div class=\"fixation\" style=\"font-size: 60px;\">+</div>","response":null,"trial_type":"html-keyboard-response","trial_index":43,"plugin_version":"2.1.0","time_elapsed":233544},{"target_group":"white","condition_label":"W_H_vs_B_L_rep1","target_direction":4,"distractor_direction":238,"session_rotation":328,"rt":-1,"response":"","correct":false,"choices":"ALL_KEYS","correct_choice":["a"],"trial_duration":2000,"flip_timestamps":[],"response_ends_trial":false,"number_of_apertures":200,"number_of_dots":[1,1,1,1,1,1,1,1,1,1,1,1,1,1,1,1,1,1,1,1,1,1,1,1,1,1,1,1,1,1,1,1,1,1,1,1,1,1,1,1,1,1,1,1,1,1,1,1,1,1,1,1,1,1,1,1,1,1,1,1,1,1,1,1,1,1,1,1,1,1,1,1,1,1,1,1,1,1,1,1,1,1,1,1,1,1,1,1,1,1,1,1,1,1,1,1,1,1,1,1,1,1,1,1,1,1,1,1,1,1,1,1,1,1,1,1,1,1,1,1,1,1,1,1,1,1,1,1,1,1,1,1,1,1,1,1,1,1,1,1,1,1,1,1,1,1,1,1,1,1,1,1,1,1,1,1,1,1,1,1,1,1,1,1,1,1,1,1,1,1,1,1,1,1,1,1,1,1,1,1,1,1,1,1,1,1,1,1,1,1,1,1,1,1,1,1,1,1,1,1],"number_of_sets":1,"coherent_direction":[238,238,4,4,238,238,4,4,4,4,238,4,4,4,238,238,4,4,4,238,238,238,4,238,238,238,238,4,238,238,4,4,238,238,4,238,238,4,238,4,4,4,238,4,238,238,238,4,238,238,4,4,4,238,238,238,238,4,238,4,4,4,238,238,4,4,238,4,238,238,4,4,238,238,238,238,4,4,238,238,4,238,4,4,238,238,4,238,238,4,238,238,4,238,4,238,4,238,238,238,4,4,238,4,4,238,238,4,4,238,238,238,238,4,4,4,4,4,4,4,4,238,238,4,4,4,4,4,238,4,4,4,238,238,4,4,4,238,238,238,238,238,4,238,238,238,4,4,238,238,4,4,4,4,238,4,238,4,238,238,238,238,4,4,4,238,238,238,4,238,238,238,238,4,4,238,4,4,238,238,4,4,4,4,238,4,238,4,4,4,4,4,238,4,238,4,238,238,4,238],"coherence":1,"opposite_coherence":0,"dot_radius":2,"dot_side_length":1,"dot_life":-1,"move_distance":1,"aperture_width":300,"aperture_height":300,"dot_color":["black","black","white","white","black","black","white","white","white","white","black","white","white","white","black","black","white","white","white","black","black","black","white","black","black","black","black","white","black","black","white","white","black","black","white","black","black","white","black","white","white","white","black","white","black","black","black","white","black","black","white","white","white","black","black","black","black","white","black","white","white","white","black","black","white","white","black","white","black","black","white","white","black","black","black","black","white","white","black","black","white","black","white","white","black","black","white","black","black","white","black","black","white","black","white","black","white","black","black","black","white","white","black","white","white","black","black","white","white","black","black","black","black","white","white","white","white","white","white","white","white","black","black","white","white","white","white","white","black","white","white","white","black","black","white","white","white","black","black","black","black","black","white","black","black","black","white","white","black","black","white","white","white","white","black","white","black","white","black","black","black","black","white","white","white","black","black","black","white","black","black","black","black","white","white","black","white","white","black","black","white","white","white","white","black","white","black","white","white","white","white","white","black","white","black","white","black","black","white","black"],"dot_shape":"circle","background_color":"#AAA","RDK_type":3,"aperture_type":2,"reinsert_type":2,"frame_rate":16.491803278688526,"frame_rate_array":[8,5,15,16,17,17,16,18,16,17,17,17,16,17,17,16,18,16,16,17,17,16,17,17,16,17,17,16,17,17,16,17,17,16,17,17,16,17,17,16,18,16,17,17,17,17,17,17,16,17,16,17,16,17,17,16,17,17,16,16,17,16,16,17,17,17,17,17,17,16,17,16,17,17,16,17,17,16,17,17,16,17,17,16,17,17,16,17,17,15,17,17,16,17,17,17,17,17,16,17,17,16,16,17,16,17,17,16,17,17,17,17,16,17,16,17,16,17,17,16,17,17],"number_of_frames":122,"aperture_center_x":758.5,"aperture_center_y":426.5,"fixation_cross":true,"fixation_cross_width":15,"fixation_cross_height":15,"fixation_cross_color":"#111","fixation_cross_thickness":1,"border":true,"border_thickness":2,"border_color":"transparent","canvas_width":1517,"canvas_height":853,"trial_type":"rdk","trial_index":44,"plugin_version":"2.0.0","time_elapsed":235566},{"rt":2991,"stimulus":"\n        <div class=\"response-container\">\n          <div class=\"response-instruction\">\n            <p>rotate the bar by using the left and right arrow keys.</p>\n            <p>when you are determined, press the Enter key.</p>\n          </div>\n          <div class=\"response-circle\">\n            <div class=\"response-fixation\"></div>\n            <div id=\"bar\" class=\"rotating-bar\"></div>\n          </div>\n        </div>\n      ","response":"Enter","trial_type":"html-keyboard-response","trial_index":45,"plugin_version":"2.1.0","time_elapsed":238558,"response_angle_css":40,"response_angle_rdk":50,"angular_error_target":46,"angular_error_distractor":172,"target_direction":4,"target_group":"white","reward_points":0},{"rt":null,"stimulus":"\n          <p style=\"color: #FF3333;\">Your reward: 0 points</p>\n        ","response":null,"trial_type":"html-keyboard-response","trial_index":46,"plugin_version":"2.1.0","time_elapsed":240574},{"rt":null,"stimulus":"<div class=\"fixation\" style=\"font-size: 60px;\">+</div>","response":null,"trial_type":"html-keyboard-response","trial_index":47,"plugin_version":"2.1.0","time_elapsed":241578},{"target_group":"white","condition_label":"W_H_vs_B_L_rep6","target_direction":340,"distractor_direction":238,"session_rotation":328,"rt":-1,"response":"","correct":false,"choices":"ALL_KEYS","correct_choice":["a"],"trial_duration":2000,"flip_timestamps":[],"response_ends_trial":false,"number_of_apertures":200,"number_of_dots":[1,1,1,1,1,1,1,1,1,1,1,1,1,1,1,1,1,1,1,1,1,1,1,1,1,1,1,1,1,1,1,1,1,1,1,1,1,1,1,1,1,1,1,1,1,1,1,1,1,1,1,1,1,1,1,1,1,1,1,1,1,1,1,1,1,1,1,1,1,1,1,1,1,1,1,1,1,1,1,1,1,1,1,1,1,1,1,1,1,1,1,1,1,1,1,1,1,1,1,1,1,1,1,1,1,1,1,1,1,1,1,1,1,1,1,1,1,1,1,1,1,1,1,1,1,1,1,1,1,1,1,1,1,1,1,1,1,1,1,1,1,1,1,1,1,1,1,1,1,1,1,1,1,1,1,1,1,1,1,1,1,1,1,1,1,1,1,1,1,1,1,1,1,1,1,1,1,1,1,1,1,1,1,1,1,1,1,1,1,1,1,1,1,1,1,1,1,1,1,1],"number_of_sets":1,"coherent_direction":[340,238,340,238,238,238,238,238,340,238,340,238,340,340,340,238,340,340,238,238,340,238,238,238,340,340,238,238,340,238,238,340,238,238,340,340,340,340,340,238,238,238,340,238,238,238,340,238,340,340,238,238,238,238,340,340,340,340,238,238,238,340,238,238,340,238,340,340,340,340,238,340,340,340,340,340,238,340,340,238,340,238,340,340,340,238,340,340,340,238,238,340,238,238,238,340,238,238,238,238,238,340,340,340,340,238,238,340,340,340,238,340,340,238,340,340,238,238,340,340,238,238,340,340,238,340,340,340,238,238,340,238,238,238,238,238,340,340,340,340,340,340,238,238,340,340,340,340,340,238,238,238,340,340,340,340,340,238,238,340,238,238,238,340,238,238,340,340,238,238,238,340,340,238,340,340,340,340,238,238,340,238,238,238,340,238,238,340,238,340,238,238,238,238,238,340,238,238,238,340],"coherence":1,"opposite_coherence":0,"dot_radius":2,"dot_side_length":1,"dot_life":-1,"move_distance":1,"aperture_width":300,"aperture_height":300,"dot_color":["white","black","white","black","black","black","black","black","white","black","white","black","white","white","white","black","white","white","black","black","white","black","black","black","white","white","black","black","white","black","black","white","black","black","white","white","white","white","white","black","black","black","white","black","black","black","white","black","white","white","black","black","black","black","white","white","white","white","black","black","black","white","black","black","white","black","white","white","white","white","black","white","white","white","white","white","black","white","white","black","white","black","white","white","white","black","white","white","white","black","black","white","black","black","black","white","black","black","black","black","black","white","white","white","white","black","black","white","white","white","black","white","white","black","white","white","black","black","white","white","black","black","white","white","black","white","white","white","black","black","white","black","black","black","black","black","white","white","white","white","white","white","black","black","white","white","white","white","white","black","black","black","white","white","white","white","white","black","black","white","black","black","black","white","black","black","white","white","black","black","black","white","white","black","white","white","white","white","black","black","white","black","black","black","white","black","black","white","black","white","black","black","black","black","black","white","black","black","black","white"],"dot_shape":"circle","background_color":"#AAA","RDK_type":3,"aperture_type":2,"reinsert_type":2,"frame_rate":16.68595041322314,"frame_rate_array":[10,12,17,17,17,17,17,17,17,17,17,17,16,17,17,17,17,16,17,17,17,17,17,17,17,16,17,17,16,17,17,16,17,17,17,16,16,17,17,16,17,16,17,17,16,17,16,18,16,17,16,17,17,17,17,17,17,17,17,16,17,17,17,16,17,16,17,17,17,17,17,16,17,17,17,16,17,16,17,17,17,17,17,17,17,17,16,17,17,17,17,16,17,17,16,17,17,17,16,17,17,17,17,17,16,17,17,17,18,16,17,17,17,16,17,16,17,17,17,16,17],"number_of_frames":121,"aperture_center_x":758.5,"aperture_center_y":426.5,"fixation_cross":true,"fixation_cross_width":15,"fixation_cross_height":15,"fixation_cross_color":"#111","fixation_cross_thickness":1,"border":true,"border_thickness":2,"border_color":"transparent","canvas_width":1517,"canvas_height":853,"trial_type":"rdk","trial_index":48,"plugin_version":"2.0.0","time_elapsed":243599},{"rt":1869,"stimulus":"\n        <div class=\"response-container\">\n          <div class=\"response-instruction\">\n            <p>rotate the bar by using the left and right arrow keys.</p>\n            <p>when you are determined, press the Enter key.</p>\n          </div>\n          <div class=\"response-circle\">\n            <div class=\"response-fixation\"></div>\n            <div id=\"bar\" class=\"rotating-bar\"></div>\n          </div>\n        </div>\n      ","response":"Enter","trial_type":"html-keyboard-response","trial_index":49,"plugin_version":"2.1.0","time_elapsed":245469,"response_angle_css":210,"response_angle_rdk":240,"angular_error_target":-100,"angular_error_distractor":2,"target_direction":340,"target_group":"white","reward_points":0},{"rt":null,"stimulus":"\n          <p style=\"color: #FF3333;\">Your reward: 0 points</p>\n        ","response":null,"trial_type":"html-keyboard-response","trial_index":50,"plugin_version":"2.1.0","time_elapsed":247473},{"rt":null,"stimulus":"<div class=\"fixation\" style=\"font-size: 60px;\">+</div>","response":null,"trial_type":"html-keyboard-response","trial_index":51,"plugin_version":"2.1.0","time_elapsed":248481},{"target_group":"black","condition_label":"B_H_vs_W_L_rep18","target_direction":87,"distractor_direction":192,"session_rotation":328,"rt":-1,"response":"","correct":false,"choices":"ALL_KEYS","correct_choice":["a"],"trial_duration":2000,"flip_timestamps":[],"response_ends_trial":false,"number_of_apertures":200,"number_of_dots":[1,1,1,1,1,1,1,1,1,1,1,1,1,1,1,1,1,1,1,1,1,1,1,1,1,1,1,1,1,1,1,1,1,1,1,1,1,1,1,1,1,1,1,1,1,1,1,1,1,1,1,1,1,1,1,1,1,1,1,1,1,1,1,1,1,1,1,1,1,1,1,1,1,1,1,1,1,1,1,1,1,1,1,1,1,1,1,1,1,1,1,1,1,1,1,1,1,1,1,1,1,1,1,1,1,1,1,1,1,1,1,1,1,1,1,1,1,1,1,1,1,1,1,1,1,1,1,1,1,1,1,1,1,1,1,1,1,1,1,1,1,1,1,1,1,1,1,1,1,1,1,1,1,1,1,1,1,1,1,1,1,1,1,1,1,1,1,1,1,1,1,1,1,1,1,1,1,1,1,1,1,1,1,1,1,1,1,1,1,1,1,1,1,1,1,1,1,1,1,1],"number_of_sets":1,"coherent_direction":[87,192,192,87,87,192,87,192,192,87,87,192,192,87,192,87,87,87,87,192,192,192,192,87,87,87,192,87,192,192,87,87,87,192,87,87,192,87,87,192,192,87,87,192,192,192,87,192,87,87,87,192,87,87,192,192,192,192,192,192,192,87,87,192,87,87,192,192,87,192,87,87,192,87,192,87,192,87,87,87,192,87,87,192,87,192,192,87,87,87,87,192,192,192,87,87,87,192,192,192,87,87,192,87,192,87,192,87,192,87,192,192,192,87,87,192,192,87,87,87,192,87,192,192,192,87,192,192,87,192,192,192,192,192,87,87,87,192,87,192,192,87,192,87,192,192,192,87,87,192,192,87,192,192,192,87,87,87,87,192,87,192,87,192,192,87,192,87,192,192,192,192,192,87,87,87,87,192,192,192,192,192,87,87,192,192,87,192,192,87,87,87,87,87,87,87,87,192,87,87],"coherence":1,"opposite_coherence":0,"dot_radius":2,"dot_side_length":1,"dot_life":-1,"move_distance":1,"aperture_width":300,"aperture_height":300,"dot_color":["black","white","white","black","black","white","black","white","white","black","black","white","white","black","white","black","black","black","black","white","white","white","white","black","black","black","white","black","white","white","black","black","black","white","black","black","white","black","black","white","white","black","black","white","white","white","black","white","black","black","black","white","black","black","white","white","white","white","white","white","white","black","black","white","black","black","white","white","black","white","black","black","white","black","white","black","white","black","black","black","white","black","black","white","black","white","white","black","black","black","black","white","white","white","black","black","black","white","white","white","black","black","white","black","white","black","white","black","white","black","white","white","white","black","black","white","white","black","black","black","white","black","white","white","white","black","white","white","black","white","white","white","white","white","black","black","black","white","black","white","white","black","white","black","white","white","white","black","black","white","white","black","white","white","white","black","black","black","black","white","black","white","black","white","white","black","white","black","white","white","white","white","white","black","black","black","black","white","white","white","white","white","black","black","white","white","black","white","white","black","black","black","black","black","black","black","black","white","black","black"],"dot_shape":"circle","background_color":"#AAA","RDK_type":3,"aperture_type":2,"reinsert_type":2,"frame_rate":16.616666666666667,"frame_rate_array":[7,16,17,16,17,17,17,16,17,17,17,17,16,17,16,17,16,17,17,16,17,16,17,17,17,17,17,17,16,17,17,16,17,17,16,17,17,16,17,17,16,17,17,16,17,16,17,17,17,17,16,17,17,17,17,16,17,17,17,17,16,17,16,17,16,17,16,17,17,17,17,17,17,17,16,17,16,17,17,16,17,16,17,17,17,17,16,17,16,17,17,16,17,17,16,17,17,16,17,16,17,17,17,16,17,17,16,17,17,17,17,16,18,16,17,16,17,16,17,17],"number_of_frames":120,"aperture_center_x":758.5,"aperture_center_y":426.5,"fixation_cross":true,"fixation_cross_width":15,"fixation_cross_height":15,"fixation_cross_color":"#111","fixation_cross_thickness":1,"border":true,"border_thickness":2,"border_color":"transparent","canvas_width":1517,"canvas_height":853,"trial_type":"rdk","trial_index":52,"plugin_version":"2.0.0","time_elapsed":250495},{"rt":3488,"stimulus":"\n        <div class=\"response-container\">\n          <div class=\"response-instruction\">\n            <p>rotate the bar by using the left and right arrow keys.</p>\n            <p>when you are determined, press the Enter key.</p>\n          </div>\n          <div class=\"response-circle\">\n            <div class=\"response-fixation\"></div>\n            <div id=\"bar\" class=\"rotating-bar\"></div>\n          </div>\n        </div>\n      ","response":"Enter","trial_type":"html-keyboard-response","trial_index":53,"plugin_version":"2.1.0","time_elapsed":253986,"response_angle_css":39,"response_angle_rdk":51,"angular_error_target":-36,"angular_error_distractor":-141,"target_direction":87,"target_group":"black","reward_points":2},{"rt":null,"stimulus":"\n          <p style=\"color: #FF3333;\">Your reward: 2 points</p>\n        ","response":null,"trial_type":"html-keyboard-response","trial_index":54,"plugin_version":"2.1.0","time_elapsed":256003},{"rt":null,"stimulus":"<div class=\"fixation\" style=\"font-size: 60px;\">+</div>","response":null,"trial_type":"html-keyboard-response","trial_index":55,"plugin_version":"2.1.0","time_elapsed":257020},{"target_group":"white","condition_label":"W_H_vs_B_L_rep18","target_direction":7,"distractor_direction":271,"session_rotation":328,"rt":-1,"response":"","correct":false,"choices":"ALL_KEYS","correct_choice":["a"],"trial_duration":2000,"flip_timestamps":[],"response_ends_trial":false,"number_of_apertures":200,"number_of_dots":[1,1,1,1,1,1,1,1,1,1,1,1,1,1,1,1,1,1,1,1,1,1,1,1,1,1,1,1,1,1,1,1,1,1,1,1,1,1,1,1,1,1,1,1,1,1,1,1,1,1,1,1,1,1,1,1,1,1,1,1,1,1,1,1,1,1,1,1,1,1,1,1,1,1,1,1,1,1,1,1,1,1,1,1,1,1,1,1,1,1,1,1,1,1,1,1,1,1,1,1,1,1,1,1,1,1,1,1,1,1,1,1,1,1,1,1,1,1,1,1,1,1,1,1,1,1,1,1,1,1,1,1,1,1,1,1,1,1,1,1,1,1,1,1,1,1,1,1,1,1,1,1,1,1,1,1,1,1,1,1,1,1,1,1,1,1,1,1,1,1,1,1,1,1,1,1,1,1,1,1,1,1,1,1,1,1,1,1,1,1,1,1,1,1,1,1,1,1,1,1],"number_of_sets":1,"coherent_direction":[7,271,271,271,271,271,271,7,7,271,7,271,7,7,7,7,7,7,271,271,271,271,271,7,7,271,7,271,7,7,271,271,271,7,271,271,7,271,7,271,271,271,7,7,7,271,7,7,271,7,271,271,271,271,7,271,7,7,7,7,7,7,271,271,7,7,271,7,7,7,271,271,271,271,7,7,271,271,7,271,7,271,271,271,7,7,271,7,271,7,7,7,271,271,271,271,271,7,271,7,7,7,7,271,7,271,271,7,7,271,7,271,271,271,271,7,271,7,7,7,271,7,7,271,7,271,7,7,271,7,271,7,271,271,7,7,271,271,271,7,7,271,271,7,271,7,271,271,7,271,271,7,7,271,271,7,271,271,271,271,7,7,271,7,7,7,271,7,7,271,7,271,271,271,7,271,7,271,7,7,7,271,7,271,271,7,7,7,7,7,271,7,271,7,7,271,271,7,271,7],"coherence":1,"opposite_coherence":0,"dot_radius":2,"dot_side_length":1,"dot_life":-1,"move_distance":1,"aperture_width":300,"aperture_height":300,"dot_color":["white","black","black","black","black","black","black","white","white","black","white","black","white","white","white","white","white","white","black","black","black","black","black","white","white","black","white","black","white","white","black","black","black","white","black","black","white","black","white","black","black","black","white","white","white","black","white","white","black","white","black","black","black","black","white","black","white","white","white","white","white","white","black","black","white","white","black","white","white","white","black","black","black","black","white","white","black","black","white","black","white","black","black","black","white","white","black","white","black","white","white","white","black","black","black","black","black","white","black","white","white","white","white","black","white","black","black","white","white","black","white","black","black","black","black","white","black","white","white","white","black","white","white","black","white","black","white","white","black","white","black","white","black","black","white","white","black","black","black","white","white","black","black","white","black","white","black","black","white","black","black","white","white","black","black","white","black","black","black","black","white","white","black","white","white","white","black","white","white","black","white","black","black","black","white","black","white","black","white","white","white","black","white","black","black","white","white","white","white","white","black","white","black","white","white","black","black","white","black","white"],"dot_shape":"circle","background_color":"#AAA","RDK_type":3,"aperture_type":2,"reinsert_type":2,"frame_rate":16.633333333333333,"frame_rate_array":[8,10,16,17,17,17,16,17,17,17,17,17,17,17,17,17,17,17,17,17,17,17,16,17,17,17,16,17,17,17,17,17,17,16,17,17,16,17,17,16,17,17,17,17,17,17,17,16,17,17,17,16,16,18,15,17,16,17,16,18,16,16,18,16,17,16,17,17,16,18,16,17,17,16,17,17,16,17,17,16,17,17,16,17,17,17,16,17,16,18,16,17,16,18,16,18,16,17,16,17,17,17,17,17,17,16,17,17,17,17,16,17,17,16,17,17,17,17,16,17],"number_of_frames":120,"aperture_center_x":758.5,"aperture_center_y":426.5,"fixation_cross":true,"fixation_cross_width":15,"fixation_cross_height":15,"fixation_cross_color":"#111","fixation_cross_thickness":1,"border":true,"border_thickness":2,"border_color":"transparent","canvas_width":1517,"canvas_height":853,"trial_type":"rdk","trial_index":56,"plugin_version":"2.0.0","time_elapsed":259029},{"rt":2008,"stimulus":"\n        <div class=\"response-container\">\n          <div class=\"response-instruction\">\n            <p>rotate the bar by using the left and right arrow keys.</p>\n            <p>when you are determined, press the Enter key.</p>\n          </div>\n          <div class=\"response-circle\">\n            <div class=\"response-fixation\"></div>\n            <div id=\"bar\" class=\"rotating-bar\"></div>\n          </div>\n        </div>\n      ","response":"Enter","trial_type":"html-keyboard-response","trial_index":57,"plugin_version":"2.1.0","time_elapsed":261038,"response_angle_css":32,"response_angle_rdk":58,"angular_error_target":51,"angular_error_distractor":147,"target_direction":7,"target_group":"white","reward_points":0},{"rt":null,"stimulus":"\n          <p style=\"color: #FF3333;\">Your reward: 0 points</p>\n        ","response":null,"trial_type":"html-keyboard-response","trial_index":58,"plugin_version":"2.1.0","time_elapsed":263054},{"rt":null,"stimulus":"<div class=\"fixation\" style=\"font-size: 60px;\">+</div>","response":null,"trial_type":"html-keyboard-response","trial_index":59,"plugin_version":"2.1.0","time_elapsed":264059},{"target_group":"white","condition_label":"W_H_vs_B_L_rep15","target_direction":356,"distractor_direction":257,"session_rotation":328,"rt":-1,"response":"","correct":false,"choices":"ALL_KEYS","correct_choice":["a"],"trial_duration":2000,"flip_timestamps":[],"response_ends_trial":false,"number_of_apertures":200,"number_of_dots":[1,1,1,1,1,1,1,1,1,1,1,1,1,1,1,1,1,1,1,1,1,1,1,1,1,1,1,1,1,1,1,1,1,1,1,1,1,1,1,1,1,1,1,1,1,1,1,1,1,1,1,1,1,1,1,1,1,1,1,1,1,1,1,1,1,1,1,1,1,1,1,1,1,1,1,1,1,1,1,1,1,1,1,1,1,1,1,1,1,1,1,1,1,1,1,1,1,1,1,1,1,1,1,1,1,1,1,1,1,1,1,1,1,1,1,1,1,1,1,1,1,1,1,1,1,1,1,1,1,1,1,1,1,1,1,1,1,1,1,1,1,1,1,1,1,1,1,1,1,1,1,1,1,1,1,1,1,1,1,1,1,1,1,1,1,1,1,1,1,1,1,1,1,1,1,1,1,1,1,1,1,1,1,1,1,1,1,1,1,1,1,1,1,1,1,1,1,1,1,1],"number_of_sets":1,"coherent_direction":[356,356,257,257,257,257,257,257,356,257,257,356,257,356,257,257,356,257,356,356,356,356,257,257,356,257,257,356,257,257,356,356,356,257,356,356,257,356,257,257,356,257,356,257,257,257,257,356,356,356,257,356,356,356,257,257,257,356,257,257,257,356,257,356,356,356,356,356,257,356,356,257,257,257,257,257,356,356,356,257,356,356,356,257,257,356,356,257,257,356,257,257,257,257,356,257,257,356,257,257,356,356,257,257,257,356,356,257,356,356,257,257,356,356,356,356,356,356,356,356,356,257,257,257,257,356,356,257,257,257,257,356,356,356,356,257,356,356,356,356,257,257,356,356,257,257,356,356,257,257,257,356,356,257,356,356,356,356,356,257,356,257,257,356,356,356,257,257,257,356,356,257,257,257,257,356,257,257,356,356,257,257,356,257,257,356,257,356,356,257,356,257,356,356,257,257,257,356,356,257],"coherence":1,"opposite_coherence":0,"dot_radius":2,"dot_side_length":1,"dot_life":-1,"move_distance":1,"aperture_width":300,"aperture_height":300,"dot_color":["white","white","black","black","black","black","black","black","white","black","black","white","black","white","black","black","white","black","white","white","white","white","black","black","white","black","black","white","black","black","white","white","white","black","white","white","black","white","black","black","white","black","white","black","black","black","black","white","white","white","black","white","white","white","black","black","black","white","black","black","black","white","black","white","white","white","white","white","black","white","white","black","black","black","black","black","white","white","white","black","white","white","white","black","black","white","white","black","black","white","black","black","black","black","white","black","black","white","black","black","white","white","black","black","black","white","white","black","white","white","black","black","white","white","white","white","white","white","white","white","white","black","black","black","black","white","white","black","black","black","black","white","white","white","white","black","white","white","white","white","black","black","white","white","black","black","white","white","black","black","black","white","white","black","white","white","white","white","white","black","white","black","black","white","white","white","black","black","black","white","white","black","black","black","black","white","black","black","white","white","black","black","white","black","black","white","black","white","white","black","white","black","white","white","black","black","black","white","white","black"],"dot_shape":"circle","background_color":"#AAA","RDK_type":3,"aperture_type":2,"reinsert_type":2,"frame_rate":16.677685950413224,"frame_rate_array":[2,13,17,17,17,16,17,17,17,17,17,17,17,17,16,17,17,17,16,17,17,16,17,17,16,17,16,17,17,17,17,17,17,16,17,16,17,17,16,17,17,17,17,16,17,17,17,17,17,16,17,17,17,17,17,17,17,17,17,17,17,17,17,17,17,17,17,16,17,17,17,17,17,17,17,16,17,17,17,17,17,17,16,17,17,17,17,17,17,17,17,17,17,18,16,17,16,17,17,17,17,16,17,17,16,20,13,16,17,17,17,17,17,17,17,17,17,17,17,16,17],"number_of_frames":121,"aperture_center_x":758.5,"aperture_center_y":426.5,"fixation_cross":true,"fixation_cross_width":15,"fixation_cross_height":15,"fixation_cross_color":"#111","fixation_cross_thickness":1,"border":true,"border_thickness":2,"border_color":"transparent","canvas_width":1517,"canvas_height":853,"trial_type":"rdk","trial_index":60,"plugin_version":"2.0.0","time_elapsed":266064},{"rt":2628,"stimulus":"\n        <div class=\"response-container\">\n          <div class=\"response-instruction\">\n            <p>rotate the bar by using the left and right arrow keys.</p>\n            <p>when you are determined, press the Enter key.</p>\n          </div>\n          <div class=\"response-circle\">\n            <div class=\"response-fixation\"></div>\n            <div id=\"bar\" class=\"rotating-bar\"></div>\n          </div>\n        </div>\n      ","response":"Enter","trial_type":"html-keyboard-response","trial_index":61,"plugin_version":"2.1.0","time_elapsed":268693,"response_angle_css":201,"response_angle_rdk":249,"angular_error_target":-107,"angular_error_distractor":-8,"target_direction":356,"target_group":"white","reward_points":0},{"rt":null,"stimulus":"\n          <p style=\"color: #FF3333;\">Your reward: 0 points</p>\n        ","response":null,"trial_type":"html-keyboard-response","trial_index":62,"plugin_version":"2.1.0","time_elapsed":270704},{"rt":null,"stimulus":"<div class=\"fixation\" style=\"font-size: 60px;\">+</div>","response":null,"trial_type":"html-keyboard-response","trial_index":63,"plugin_version":"2.1.0","time_elapsed":271715},{"target_group":"black","condition_label":"B_H_vs_W_L_rep22","target_direction":82,"distractor_direction":181,"session_rotation":328,"rt":-1,"response":"","correct":false,"choices":"ALL_KEYS","correct_choice":["a"],"trial_duration":2000,"flip_timestamps":[],"response_ends_trial":false,"number_of_apertures":200,"number_of_dots":[1,1,1,1,1,1,1,1,1,1,1,1,1,1,1,1,1,1,1,1,1,1,1,1,1,1,1,1,1,1,1,1,1,1,1,1,1,1,1,1,1,1,1,1,1,1,1,1,1,1,1,1,1,1,1,1,1,1,1,1,1,1,1,1,1,1,1,1,1,1,1,1,1,1,1,1,1,1,1,1,1,1,1,1,1,1,1,1,1,1,1,1,1,1,1,1,1,1,1,1,1,1,1,1,1,1,1,1,1,1,1,1,1,1,1,1,1,1,1,1,1,1,1,1,1,1,1,1,1,1,1,1,1,1,1,1,1,1,1,1,1,1,1,1,1,1,1,1,1,1,1,1,1,1,1,1,1,1,1,1,1,1,1,1,1,1,1,1,1,1,1,1,1,1,1,1,1,1,1,1,1,1,1,1,1,1,1,1,1,1,1,1,1,1,1,1,1,1,1,1],"number_of_sets":1,"coherent_direction":[181,181,181,181,82,82,181,82,181,181,181,82,82,181,181,181,181,82,82,181,82,181,181,181,181,181,181,181,181,181,181,82,181,82,82,181,82,82,181,82,82,82,82,82,181,181,82,82,82,181,82,82,181,181,181,82,82,82,82,181,181,82,181,181,82,82,181,82,181,82,82,181,181,82,181,181,82,82,82,181,181,181,82,181,82,82,181,181,82,82,82,82,82,181,82,82,181,181,181,181,181,181,181,181,82,82,82,82,181,82,181,181,181,181,181,181,181,82,181,82,82,181,181,82,82,82,82,82,82,181,82,181,181,181,181,82,82,82,181,82,82,181,82,181,82,181,181,181,82,82,82,181,82,181,181,82,82,82,82,82,82,82,82,82,82,82,181,181,82,181,181,181,181,82,82,181,82,181,82,181,82,181,82,181,82,82,181,82,82,181,181,82,82,82,181,181,181,181,82,82],"coherence":1,"opposite_coherence":0,"dot_radius":2,"dot_side_length":1,"dot_life":-1,"move_distance":1,"aperture_width":300,"aperture_height":300,"dot_color":["white","white","white","white","black","black","white","black","white","white","white","black","black","white","white","white","white","black","black","white","black","white","white","white","white","white","white","white","white","white","white","black","white","black","black","white","black","black","white","black","black","black","black","black","white","white","black","black","black","white","black","black","white","white","white","black","black","black","black","white","white","black","white","white","black","black","white","black","white","black","black","white","white","black","white","white","black","black","black","white","white","white","black","white","black","black","white","white","black","black","black","black","black","white","black","black","white","white","white","white","white","white","white","white","black","black","black","black","white","black","white","white","white","white","white","white","white","black","white","black","black","white","white","black","black","black","black","black","black","white","black","white","white","white","white","black","black","black","white","black","black","white","black","white","black","white","white","white","black","black","black","white","black","white","white","black","black","black","black","black","black","black","black","black","black","black","white","white","black","white","white","white","white","black","black","white","black","white","black","white","black","white","black","white","black","black","white","black","black","white","white","black","black","black","white","white","white","white","black","black"],"dot_shape":"circle","background_color":"#AAA","RDK_type":3,"aperture_type":2,"reinsert_type":2,"frame_rate":16.570247933884296,"frame_rate_array":[5,16,17,17,16,17,17,16,17,17,16,17,17,16,18,16,16,17,17,16,18,16,17,16,17,16,17,16,16,17,17,16,17,16,17,17,17,16,17,17,16,17,17,16,17,16,16,17,17,16,17,17,16,17,16,16,17,17,16,17,17,17,17,17,16,17,17,16,18,16,17,17,17,16,17,17,16,17,17,16,17,16,17,17,17,16,17,17,16,17,17,16,17,17,16,17,17,16,17,17,16,17,17,16,18,16,17,17,17,16,17,17,16,17,17,16,17,16,17,17,17],"number_of_frames":121,"aperture_center_x":758.5,"aperture_center_y":426.5,"fixation_cross":true,"fixation_cross_width":15,"fixation_cross_height":15,"fixation_cross_color":"#111","fixation_cross_thickness":1,"border":true,"border_thickness":2,"border_color":"transparent","canvas_width":1517,"canvas_height":853,"trial_type":"rdk","trial_index":64,"plugin_version":"2.0.0","time_elapsed":273730},{"rt":1434,"stimulus":"\n        <div class=\"response-container\">\n          <div class=\"response-instruction\">\n            <p>rotate the bar by using the left and right arrow keys.</p>\n            <p>when you are determined, press the Enter key.</p>\n          </div>\n          <div class=\"response-circle\">\n            <div class=\"response-fixation\"></div>\n            <div id=\"bar\" class=\"rotating-bar\"></div>\n          </div>\n        </div>\n      ","response":"Enter","trial_type":"html-keyboard-response","trial_index":65,"plugin_version":"2.1.0","time_elapsed":275164,"response_angle_css":49,"response_angle_rdk":41,"angular_error_target":-41,"angular_error_distractor":-140,"target_direction":82,"target_group":"black","reward_points":1},{"rt":null,"stimulus":"\n          <p style=\"color: #FF3333;\">Your reward: 1 points</p>\n        ","response":null,"trial_type":"html-keyboard-response","trial_index":66,"plugin_version":"2.1.0","time_elapsed":277174},{"rt":null,"stimulus":"<div class=\"fixation\" style=\"font-size: 60px;\">+</div>","response":null,"trial_type":"html-keyboard-response","trial_index":67,"plugin_version":"2.1.0","time_elapsed":278189},{"target_group":"black","condition_label":"B_H_vs_W_L_rep21","target_direction":69,"distractor_direction":189,"session_rotation":328,"rt":-1,"response":"","correct":false,"choices":"ALL_KEYS","correct_choice":["a"],"trial_duration":2000,"flip_timestamps":[],"response_ends_trial":false,"number_of_apertures":200,"number_of_dots":[1,1,1,1,1,1,1,1,1,1,1,1,1,1,1,1,1,1,1,1,1,1,1,1,1,1,1,1,1,1,1,1,1,1,1,1,1,1,1,1,1,1,1,1,1,1,1,1,1,1,1,1,1,1,1,1,1,1,1,1,1,1,1,1,1,1,1,1,1,1,1,1,1,1,1,1,1,1,1,1,1,1,1,1,1,1,1,1,1,1,1,1,1,1,1,1,1,1,1,1,1,1,1,1,1,1,1,1,1,1,1,1,1,1,1,1,1,1,1,1,1,1,1,1,1,1,1,1,1,1,1,1,1,1,1,1,1,1,1,1,1,1,1,1,1,1,1,1,1,1,1,1,1,1,1,1,1,1,1,1,1,1,1,1,1,1,1,1,1,1,1,1,1,1,1,1,1,1,1,1,1,1,1,1,1,1,1,1,1,1,1,1,1,1,1,1,1,1,1,1],"number_of_sets":1,"coherent_direction":[189,189,189,69,69,189,189,189,189,189,189,69,189,189,189,189,69,189,69,69,189,189,69,189,189,189,69,69,69,189,189,189,189,69,69,189,189,69,189,189,69,189,69,69,69,189,69,69,69,189,189,189,189,189,69,69,189,69,69,69,69,189,189,69,69,69,189,69,189,189,69,189,69,69,69,189,189,189,69,189,69,69,189,69,69,69,189,69,189,189,69,69,189,69,69,189,189,189,69,189,69,69,69,189,189,69,69,69,69,69,69,189,189,69,189,189,189,69,69,189,189,69,189,69,69,69,189,69,189,189,69,189,189,69,189,189,69,69,189,189,69,189,189,189,189,69,69,189,189,69,69,69,69,189,189,69,189,189,189,189,69,189,189,189,69,69,189,69,69,69,189,69,69,69,69,69,69,69,69,69,189,69,189,69,69,69,189,69,189,189,189,69,189,189,69,69,189,189,69,69],"coherence":1,"opposite_coherence":0,"dot_radius":2,"dot_side_length":1,"dot_life":-1,"move_distance":1,"aperture_width":300,"aperture_height":300,"dot_color":["white","white","white","black","black","white","white","white","white","white","white","black","white","white","white","white","black","white","black","black","white","white","black","white","white","white","black","black","black","white","white","white","white","black","black","white","white","black","white","white","black","white","black","black","black","white","black","black","black","white","white","white","white","white","black","black","white","black","black","black","black","white","white","black","black","black","white","black","white","white","black","white","black","black","black","white","white","white","black","white","black","black","white","black","black","black","white","black","white","white","black","black","white","black","black","white","white","white","black","white","black","black","black","white","white","black","black","black","black","black","black","white","white","black","white","white","white","black","black","white","white","black","white","black","black","black","white","black","white","white","black","white","white","black","white","white","black","black","white","white","black","white","white","white","white","black","black","white","white","black","black","black","black","white","white","black","white","white","white","white","black","white","white","white","black","black","white","black","black","black","white","black","black","black","black","black","black","black","black","black","white","black","white","black","black","black","white","black","white","white","white","black","white","white","black","black","white","white","black","black"],"dot_shape":"circle","background_color":"#AAA","RDK_type":3,"aperture_type":2,"reinsert_type":2,"frame_rate":16.66115702479339,"frame_rate_array":[3,12,17,16,17,17,17,17,17,17,17,17,17,17,17,16,17,17,17,16,17,17,17,17,17,17,17,17,17,17,17,17,17,17,17,16,16,17,17,16,17,17,16,17,16,17,17,17,16,17,17,17,17,17,17,17,17,17,17,17,17,17,17,17,17,17,16,18,17,17,17,17,17,16,17,17,17,17,16,17,16,16,18,17,17,16,17,17,17,17,17,17,17,16,17,16,16,17,16,17,16,17,17,17,17,16,17,17,17,16,17,16,17,17,17,17,17,16,17,17,17],"number_of_frames":121,"aperture_center_x":758.5,"aperture_center_y":426.5,"fixation_cross":true,"fixation_cross_width":15,"fixation_cross_height":15,"fixation_cross_color":"#111","fixation_cross_thickness":1,"border":true,"border_thickness":2,"border_color":"transparent","canvas_width":1517,"canvas_height":853,"trial_type":"rdk","trial_index":68,"plugin_version":"2.0.0","time_elapsed":280196},{"rt":2760,"stimulus":"\n        <div class=\"response-container\">\n          <div class=\"response-instruction\">\n            <p>rotate the bar by using the left and right arrow keys.</p>\n            <p>when you are determined, press the Enter key.</p>\n          </div>\n          <div class=\"response-circle\">\n            <div class=\"response-fixation\"></div>\n            <div id=\"bar\" class=\"rotating-bar\"></div>\n          </div>\n        </div>\n      ","response":"Enter","trial_type":"html-keyboard-response","trial_index":69,"plugin_version":"2.1.0","time_elapsed":282956,"response_angle_css":37,"response_angle_rdk":53,"angular_error_target":-16,"angular_error_distractor":-136,"target_direction":69,"target_group":"black","reward_points":6},{"rt":null,"stimulus":"\n          <p style=\"color: #00FF00;\">Your reward: 6 points</p>\n        ","response":null,"trial_type":"html-keyboard-response","trial_index":70,"plugin_version":"2.1.0","time_elapsed":284958},{"rt":null,"stimulus":"<div class=\"fixation\" style=\"font-size: 60px;\">+</div>","response":null,"trial_type":"html-keyboard-response","trial_index":71,"plugin_version":"2.1.0","time_elapsed":285984},{"target_group":"white","condition_label":"W_H_vs_B_L_rep7","target_direction":1,"distractor_direction":255,"session_rotation":328,"rt":-1,"response":"","correct":false,"choices":"ALL_KEYS","correct_choice":["a"],"trial_duration":2000,"flip_timestamps":[],"response_ends_trial":false,"number_of_apertures":200,"number_of_dots":[1,1,1,1,1,1,1,1,1,1,1,1,1,1,1,1,1,1,1,1,1,1,1,1,1,1,1,1,1,1,1,1,1,1,1,1,1,1,1,1,1,1,1,1,1,1,1,1,1,1,1,1,1,1,1,1,1,1,1,1,1,1,1,1,1,1,1,1,1,1,1,1,1,1,1,1,1,1,1,1,1,1,1,1,1,1,1,1,1,1,1,1,1,1,1,1,1,1,1,1,1,1,1,1,1,1,1,1,1,1,1,1,1,1,1,1,1,1,1,1,1,1,1,1,1,1,1,1,1,1,1,1,1,1,1,1,1,1,1,1,1,1,1,1,1,1,1,1,1,1,1,1,1,1,1,1,1,1,1,1,1,1,1,1,1,1,1,1,1,1,1,1,1,1,1,1,1,1,1,1,1,1,1,1,1,1,1,1,1,1,1,1,1,1,1,1,1,1,1,1],"number_of_sets":1,"coherent_direction":[1,1,255,1,255,1,1,1,255,1,1,255,255,255,1,1,1,1,255,1,1,255,1,1,255,1,255,255,1,255,255,255,1,1,255,255,255,255,255,1,1,1,255,1,1,255,1,255,255,1,255,255,1,255,1,1,1,1,1,1,1,255,255,255,255,255,255,255,1,255,255,255,1,1,1,255,255,1,1,255,1,1,1,1,1,1,1,255,255,255,255,255,255,1,255,1,1,1,1,255,1,255,255,1,1,1,1,1,1,255,1,255,255,255,255,255,1,1,1,255,1,255,255,255,255,1,1,1,255,255,255,1,255,1,255,1,255,1,1,1,255,255,1,255,255,255,255,1,255,255,1,255,1,255,1,255,1,1,1,255,1,1,255,1,255,255,1,255,1,1,1,1,255,1,1,1,255,255,1,255,255,1,255,255,255,255,255,255,1,1,1,255,255,1,255,255,255,1,255,255],"coherence":1,"opposite_coherence":0,"dot_radius":2,"dot_side_length":1,"dot_life":-1,"move_distance":1,"aperture_width":300,"aperture_height":300,"dot_color":["white","white","black","white","black","white","white","white","black","white","white","black","black","black","white","white","white","white","black","white","white","black","white","white","black","white","black","black","white","black","black","black","white","white","black","black","black","black","black","white","white","white","black","white","white","black","white","black","black","white","black","black","white","black","white","white","white","white","white","white","white","black","black","black","black","black","black","black","white","black","black","black","white","white","white","black","black","white","white","black","white","white","white","white","white","white","white","black","black","black","black","black","black","white","black","white","white","white","white","black","white","black","black","white","white","white","white","white","white","black","white","black","black","black","black","black","white","white","white","black","white","black","black","black","black","white","white","white","black","black","black","white","black","white","black","white","black","white","white","white","black","black","white","black","black","black","black","white","black","black","white","black","white","black","white","black","white","white","white","black","white","white","black","white","black","black","white","black","white","white","white","white","black","white","white","white","black","black","white","black","black","white","black","black","black","black","black","black","white","white","white","black","black","white","black","black","black","white","black","black"],"dot_shape":"circle","background_color":"#AAA","RDK_type":3,"aperture_type":2,"reinsert_type":2,"frame_rate":16.628099173553718,"frame_rate_array":[8,10,17,17,17,16,17,17,17,16,17,17,17,17,16,17,17,16,17,17,17,17,17,17,16,17,17,16,17,17,17,16,17,17,17,17,17,16,18,16,17,17,17,17,16,17,16,17,16,18,16,18,16,17,18,16,18,15,17,16,17,17,16,17,17,16,17,17,16,18,16,17,16,17,16,17,18,16,18,16,16,17,17,16,17,18,16,17,16,17,16,17,17,17,17,17,17,17,17,17,17,16,17,17,17,16,17,17,16,17,16,17,16,17,16,17,16,17,17,17,17],"number_of_frames":121,"aperture_center_x":758.5,"aperture_center_y":426.5,"fixation_cross":true,"fixation_cross_width":15,"fixation_cross_height":15,"fixation_cross_color":"#111","fixation_cross_thickness":1,"border":true,"border_thickness":2,"border_color":"transparent","canvas_width":1517,"canvas_height":853,"trial_type":"rdk","trial_index":72,"plugin_version":"2.0.0","time_elapsed":287997},{"rt":2862,"stimulus":"\n        <div class=\"response-container\">\n          <div class=\"response-instruction\">\n            <p>rotate the bar by using the left and right arrow keys.</p>\n            <p>when you are determined, press the Enter key.</p>\n          </div>\n          <div class=\"response-circle\">\n            <div class=\"response-fixation\"></div>\n            <div id=\"bar\" class=\"rotating-bar\"></div>\n          </div>\n        </div>\n      ","response":"Enter","trial_type":"html-keyboard-response","trial_index":73,"plugin_version":"2.1.0","time_elapsed":290860,"response_angle_css":215,"response_angle_rdk":235,"angular_error_target":-126,"angular_error_distractor":-20,"target_direction":1,"target_group":"white","reward_points":0},{"rt":null,"stimulus":"\n          <p style=\"color: #FF3333;\">Your reward: 0 points</p>\n        ","response":null,"trial_type":"html-keyboard-response","trial_index":74,"plugin_version":"2.1.0","time_elapsed":292875},{"rt":null,"stimulus":"<div class=\"fixation\" style=\"font-size: 60px;\">+</div>","response":null,"trial_type":"html-keyboard-response","trial_index":75,"plugin_version":"2.1.0","time_elapsed":293885},{"target_group":"black","condition_label":"B_H_vs_W_L_rep15","target_direction":69,"distractor_direction":166,"session_rotation":328,"rt":-1,"response":"","correct":false,"choices":"ALL_KEYS","correct_choice":["a"],"trial_duration":2000,"flip_timestamps":[],"response_ends_trial":false,"number_of_apertures":200,"number_of_dots":[1,1,1,1,1,1,1,1,1,1,1,1,1,1,1,1,1,1,1,1,1,1,1,1,1,1,1,1,1,1,1,1,1,1,1,1,1,1,1,1,1,1,1,1,1,1,1,1,1,1,1,1,1,1,1,1,1,1,1,1,1,1,1,1,1,1,1,1,1,1,1,1,1,1,1,1,1,1,1,1,1,1,1,1,1,1,1,1,1,1,1,1,1,1,1,1,1,1,1,1,1,1,1,1,1,1,1,1,1,1,1,1,1,1,1,1,1,1,1,1,1,1,1,1,1,1,1,1,1,1,1,1,1,1,1,1,1,1,1,1,1,1,1,1,1,1,1,1,1,1,1,1,1,1,1,1,1,1,1,1,1,1,1,1,1,1,1,1,1,1,1,1,1,1,1,1,1,1,1,1,1,1,1,1,1,1,1,1,1,1,1,1,1,1,1,1,1,1,1,1],"number_of_sets":1,"coherent_direction":[69,166,69,69,166,69,166,166,69,166,166,166,69,166,69,69,69,69,166,69,69,166,166,166,69,69,166,69,166,69,69,69,166,166,166,166,166,69,166,166,166,166,69,69,166,166,166,69,166,69,166,69,166,69,69,166,166,69,69,69,166,166,69,69,166,166,69,166,69,166,69,166,69,69,69,166,69,166,69,166,69,166,166,166,166,166,69,166,69,166,69,166,166,166,166,69,166,166,69,166,69,166,166,69,69,69,166,69,166,166,166,69,69,166,69,166,69,69,69,166,166,166,166,69,166,69,69,166,69,166,166,69,69,166,69,69,69,166,166,69,69,69,166,69,166,69,69,69,69,166,69,166,166,69,166,166,69,69,69,69,69,69,69,69,166,69,69,69,69,166,69,166,166,166,166,166,69,166,166,69,69,69,166,166,166,69,166,69,69,166,69,69,166,69,166,69,166,69,166,166],"coherence":1,"opposite_coherence":0,"dot_radius":2,"dot_side_length":1,"dot_life":-1,"move_distance":1,"aperture_width":300,"aperture_height":300,"dot_color":["black","white","black","black","white","black","white","white","black","white","white","white","black","white","black","black","black","black","white","black","black","white","white","white","black","black","white","black","white","black","black","black","white","white","white","white","white","black","white","white","white","white","black","black","white","white","white","black","white","black","white","black","white","black","black","white","white","black","black","black","white","white","black","black","white","white","black","white","black","white","black","white","black","black","black","white","black","white","black","white","black","white","white","white","white","white","black","white","black","white","black","white","white","white","white","black","white","white","black","white","black","white","white","black","black","black","white","black","white","white","white","black","black","white","black","white","black","black","black","white","white","white","white","black","white","black","black","white","black","white","white","black","black","white","black","black","black","white","white","black","black","black","white","black","white","black","black","black","black","white","black","white","white","black","white","white","black","black","black","black","black","black","black","black","white","black","black","black","black","white","black","white","white","white","white","white","black","white","white","black","black","black","white","white","white","black","white","black","black","white","black","black","white","black","white","black","white","black","white","white"],"dot_shape":"circle","background_color":"#AAA","RDK_type":3,"aperture_type":2,"reinsert_type":2,"frame_rate":16.633333333333333,"frame_rate_array":[4,12,17,17,16,17,17,17,17,17,16,17,17,16,17,17,17,17,17,16,17,17,16,17,16,17,17,17,17,17,17,16,17,17,17,17,17,16,17,17,16,17,17,17,17,17,17,17,17,18,16,17,16,17,17,17,17,17,17,17,16,17,17,17,17,17,16,17,17,16,17,17,17,16,17,17,16,17,17,17,17,17,17,17,17,17,17,16,17,16,17,16,17,17,16,17,17,16,17,16,17,17,17,16,17,16,17,17,16,17,17,17,17,16,17,16,17,17,17,17],"number_of_frames":120,"aperture_center_x":758.5,"aperture_center_y":426.5,"fixation_cross":true,"fixation_cross_width":15,"fixation_cross_height":15,"fixation_cross_color":"#111","fixation_cross_thickness":1,"border":true,"border_thickness":2,"border_color":"transparent","canvas_width":1517,"canvas_height":853,"trial_type":"rdk","trial_index":76,"plugin_version":"2.0.0","time_elapsed":295894},{"rt":2008,"stimulus":"\n        <div class=\"response-container\">\n          <div class=\"response-instruction\">\n            <p>rotate the bar by using the left and right arrow keys.</p>\n            <p>when you are determined, press the Enter key.</p>\n          </div>\n          <div class=\"response-circle\">\n            <div class=\"response-fixation\"></div>\n            <div id=\"bar\" class=\"rotating-bar\"></div>\n          </div>\n        </div>\n      ","response":"Enter","trial_type":"html-keyboard-response","trial_index":77,"plugin_version":"2.1.0","time_elapsed":297902,"response_angle_css":49,"response_angle_rdk":41,"angular_error_target":-28,"angular_error_distractor":-125,"target_direction":69,"target_group":"black","reward_points":4},{"rt":null,"stimulus":"\n          <p style=\"color: #00FF00;\">Your reward: 4 points</p>\n        ","response":null,"trial_type":"html-keyboard-response","trial_index":78,"plugin_version":"2.1.0","time_elapsed":299905},{"rt":null,"stimulus":"<div class=\"fixation\" style=\"font-size: 60px;\">+</div>","response":null,"trial_type":"html-keyboard-response","trial_index":79,"plugin_version":"2.1.0","time_elapsed":300914},{"target_group":"white","condition_label":"W_H_vs_B_L_rep21","target_direction":8,"distractor_direction":249,"session_rotation":328,"rt":-1,"response":"","correct":false,"choices":"ALL_KEYS","correct_choice":["a"],"trial_duration":2000,"flip_timestamps":[],"response_ends_trial":false,"number_of_apertures":200,"number_of_dots":[1,1,1,1,1,1,1,1,1,1,1,1,1,1,1,1,1,1,1,1,1,1,1,1,1,1,1,1,1,1,1,1,1,1,1,1,1,1,1,1,1,1,1,1,1,1,1,1,1,1,1,1,1,1,1,1,1,1,1,1,1,1,1,1,1,1,1,1,1,1,1,1,1,1,1,1,1,1,1,1,1,1,1,1,1,1,1,1,1,1,1,1,1,1,1,1,1,1,1,1,1,1,1,1,1,1,1,1,1,1,1,1,1,1,1,1,1,1,1,1,1,1,1,1,1,1,1,1,1,1,1,1,1,1,1,1,1,1,1,1,1,1,1,1,1,1,1,1,1,1,1,1,1,1,1,1,1,1,1,1,1,1,1,1,1,1,1,1,1,1,1,1,1,1,1,1,1,1,1,1,1,1,1,1,1,1,1,1,1,1,1,1,1,1,1,1,1,1,1,1],"number_of_sets":1,"coherent_direction":[8,8,8,8,249,249,249,8,249,249,249,8,249,8,249,8,249,249,249,8,249,249,8,8,8,8,249,8,8,249,8,8,249,249,249,8,8,8,249,249,8,249,249,249,249,8,8,8,249,8,249,8,8,249,8,8,249,249,249,249,249,249,8,249,8,249,8,8,249,8,8,8,249,249,249,8,249,249,249,8,8,8,8,8,249,249,8,8,8,8,249,8,249,8,8,8,249,249,8,249,249,249,249,8,249,8,249,8,249,8,249,8,8,249,249,249,249,249,8,8,8,249,249,8,249,8,8,8,8,8,249,8,249,8,8,8,249,8,249,8,8,249,8,8,8,8,249,249,8,8,8,8,8,249,8,249,249,249,249,8,249,249,8,249,249,249,249,8,8,8,8,8,249,8,249,249,8,249,8,8,8,8,249,249,249,249,249,8,249,249,8,8,249,249,249,249,249,249,249,8],"coherence":1,"opposite_coherence":0,"dot_radius":2,"dot_side_length":1,"dot_life":-1,"move_distance":1,"aperture_width":300,"aperture_height":300,"dot_color":["white","white","white","white","black","black","black","white","black","black","black","white","black","white","black","white","black","black","black","white","black","black","white","white","white","white","black","white","white","black","white","white","black","black","black","white","white","white","black","black","white","black","black","black","black","white","white","white","black","white","black","white","white","black","white","white","black","black","black","black","black","black","white","black","white","black","white","white","black","white","white","white","black","black","black","white","black","black","black","white","white","white","white","white","black","black","white","white","white","white","black","white","black","white","white","white","black","black","white","black","black","black","black","white","black","white","black","white","black","white","black","white","white","black","black","black","black","black","white","white","white","black","black","white","black","white","white","white","white","white","black","white","black","white","white","white","black","white","black","white","white","black","white","white","white","white","black","black","white","white","white","white","white","black","white","black","black","black","black","white","black","black","white","black","black","black","black","white","white","white","white","white","black","white","black","black","white","black","white","white","white","white","black","black","black","black","black","white","black","black","white","white","black","black","black","black","black","black","black","white"],"dot_shape":"circle","background_color":"#AAA","RDK_type":3,"aperture_type":2,"reinsert_type":2,"frame_rate":16.65,"frame_rate_array":[7,18,16,17,16,17,17,17,17,16,17,16,17,17,16,17,16,17,17,16,17,17,17,17,16,17,16,17,17,16,17,17,17,17,17,16,17,17,16,17,17,16,17,16,17,16,17,16,17,16,17,17,16,17,17,17,16,17,17,16,17,17,17,17,17,16,18,16,17,17,16,17,16,17,17,17,17,16,17,17,16,17,17,17,17,16,17,17,17,17,17,17,16,17,16,17,17,17,16,17,16,17,17,17,17,16,17,17,17,17,16,17,16,17,17,17,17,17,17,17],"number_of_frames":120,"aperture_center_x":758.5,"aperture_center_y":426.5,"fixation_cross":true,"fixation_cross_width":15,"fixation_cross_height":15,"fixation_cross_color":"#111","fixation_cross_thickness":1,"border":true,"border_thickness":2,"border_color":"transparent","canvas_width":1517,"canvas_height":853,"trial_type":"rdk","trial_index":80,"plugin_version":"2.0.0","time_elapsed":302926},{"rt":2560,"stimulus":"\n        <div class=\"response-container\">\n          <div class=\"response-instruction