[{"rt":238538,"stimulus":"Welcome to the experiment. Press any key to begin.","response":"h","trial_type":"html-keyboard-response","trial_index":0,"plugin_version":"2.1.0","time_elapsed":238545},{"rt":314943,"stimulus":"\n        <div class=\"instructions-container\">\n          <h2>Instructions</h2>\n\n          <p>\n          In this experiment, you will see <strong>two Random Dot Kinematograms (RDKs)</strong> displayed simultaneously.\n          </p>\n\n          <p>\n          An RDK is a visual stimulus consisting of many small dots that move coherently in a single direction. \n          In this experiment, the dots will be either <strong>white</strong> or <strong>black</strong> \n          (see the short demo below for an example of an RDK stimulus).\n          </p>\n\n          <p>\n          On each trial, the two RDKs will move in different directions. \n          Your task is to decide <strong>which RDK appears to contain more dots</strong>.\n          </p>\n\n          <p>\n          The RDK that you judge to have more dots is called the <strong>target RDK</strong>. \n          For example, if the white RDK appears to have more dots than the black RDK, \n          you should report the motion direction of the white RDK.\n          </p>\n\n          <p>\n          After viewing the RDKs, you will rotate a bar to indicate the perceived direction of the target RDK \n          using the <strong>left</strong> and <strong>right arrow keys</strong>. \n          Press <strong>Enter</strong> when you are satisfied with your response.\n          </p>\n\n          <p>\n          You will receive points based on the <strong>accuracy of your response</strong>, \n          and your final <strong>bonus reward</strong> may depend on your overall performance. \n          Please try to respond as accurately as possible.\n          </p>\n\n          <p>\n          You will first complete <strong>three practice trials</strong>. \n          Press the <strong>Enter</strong> key to start the practice phase.\n          </p>\n\n          <canvas id=\"instruction-demo-rdk\" width=\"300\" height=\"300\"style=\"display:block;margin:12px auto; border-radius: 50%;\"></canvas>\n        </div>\n      ","response":"Enter","trial_type":"html-keyboard-response","trial_index":1,"plugin_version":"2.1.0","time_elapsed":553497},{"rt":null,"stimulus":"<div class=\"fixation\" style=\"font-size: 60px;\">+</div>","response":null,"trial_type":"html-keyboard-response","trial_index":2,"plugin_version":"2.1.0","time_elapsed":554513},{"target_group":"black","target_index":1,"condition_label":"B_H_vs_W_L","rt":-1,"response":"","correct":false,"choices":"ALL_KEYS","correct_choice":["a"],"trial_duration":2000,"flip_timestamps":[],"response_ends_trial":false,"number_of_apertures":2,"number_of_dots":[50,100],"number_of_sets":1,"coherent_direction":[10,100],"coherence":1,"opposite_coherence":0,"dot_radius":2,"dot_side_length":1,"dot_life":-1,"move_distance":1,"aperture_width":300,"aperture_height":300,"dot_color":["white","black"],"dot_shape":"circle","background_color":"#AAA","RDK_type":3,"aperture_type":2,"reinsert_type":2,"frame_rate":16.619834710743802,"frame_rate_array":[3,14,18,16,16,17,16,16,17,16,17,17,17,17,18,15,18,17,16,17,16,16,17,17,16,16,17,16,17,18,17,16,16,17,17,16,17,17,17,17,17,17,17,16,17,17,16,18,17,16,17,18,16,17,17,16,17,17,16,16,18,17,17,17,17,17,17,17,17,17,17,17,17,17,17,16,18,17,17,17,15,18,16,16,17,17,17,17,17,17,16,17,17,17,17,17,18,17,17,15,16,17,16,17,17,18,17,17,16,16,16,17,15,17,17,17,17,17,17,17,15],"number_of_frames":121,"aperture_center_x":960,"aperture_center_y":540,"fixation_cross":true,"fixation_cross_width":15,"fixation_cross_height":15,"fixation_cross_color":"#111","fixation_cross_thickness":1,"border":true,"border_thickness":2,"border_color":"transparent","canvas_width":1920,"canvas_height":1080,"trial_type":"rdk","trial_index":3,"plugin_version":"2.0.0","time_elapsed":556527,"target_direction":100,"distractor_direction":10},{"rt":41376,"stimulus":"\n        <div class=\"response-container\">\n          <div class=\"response-instruction\">\n            <p>rotate the bar by using the left and right arrow keys.</p>\n            <p>when you are determined, press the Enter key.</p>\n          </div>\n          <div class=\"response-circle\">\n            <div class=\"response-fixation\"></div>\n            <div id=\"bar\" class=\"rotating-bar\"></div>\n          </div>\n        </div>\n      ","response":"Enter","trial_type":"html-keyboard-response","trial_index":4,"plugin_version":"2.1.0","time_elapsed":597904,"response_angle_css":273,"response_angle_rdk":177,"angular_error_target":77,"angular_error_distractor":167,"target_direction":100,"target_group":"black","reward_points":0},{"rt":null,"stimulus":"\n          <p style=\"color: #FF3333;\">Your reward: 0 points</p>\n        ","response":null,"trial_type":"html-keyboard-response","trial_index":5,"plugin_version":"2.1.0","time_elapsed":599915},{"rt":null,"stimulus":"<div class=\"fixation\" style=\"font-size: 60px;\">+</div>","response":null,"trial_type":"html-keyboard-response","trial_index":6,"plugin_version":"2.1.0","time_elapsed":600927},{"target_group":"white","target_index":0,"condition_label":"W_H_vs_B_L","rt":-1,"response":"","correct":false,"choices":"ALL_KEYS","correct_choice":["a"],"trial_duration":2000,"flip_timestamps":[],"response_ends_trial":false,"number_of_apertures":2,"number_of_dots":[100,50],"number_of_sets":1,"coherent_direction":[150,30],"coherence":1,"opposite_coherence":0,"dot_radius":2,"dot_side_length":1,"dot_life":-1,"move_distance":1,"aperture_width":300,"aperture_height":300,"dot_color":["white","black"],"dot_shape":"circle","background_color":"#AAA","RDK_type":3,"aperture_type":2,"reinsert_type":2,"frame_rate":16.8,"frame_rate_array":[6,17,17,17,16,17,17,17,16,17,17,17,17,17,17,17,17,17,17,17,17,17,17,17,17,17,17,17,17,16,17,17,17,17,17,17,17,17,17,17,17,17,17,17,17,17,17,17,17,17,16,17,17,17,17,17,17,17,17,17,17,16,17,17,16,17,17,17,17,17,16,17,17,17,17,17,17,17,16,16,17,17,17,17,17,17,17,17,17,17,16,17,17,17,17,17,17,16,17,17,17,17,17,17,17,17,17,16,17,17,17,17,17,17,17,17,16,17,17,17],"number_of_frames":120,"aperture_center_x":960,"aperture_center_y":540,"fixation_cross":true,"fixation_cross_width":15,"fixation_cross_height":15,"fixation_cross_color":"#111","fixation_cross_thickness":1,"border":true,"border_thickness":2,"border_color":"transparent","canvas_width":1920,"canvas_height":1080,"trial_type":"rdk","trial_index":7,"plugin_version":"2.0.0","time_elapsed":602933,"target_direction":150,"distractor_direction":30},{"rt":5775,"stimulus":"\n        <div class=\"response-container\">\n          <div class=\"response-instruction\">\n            <p>rotate the bar by using the left and right arrow keys.</p>\n            <p>when you are determined, press the Enter key.</p>\n          </div>\n          <div class=\"response-circle\">\n            <div class=\"response-fixation\"></div>\n            <div id=\"bar\" class=\"rotating-bar\"></div>\n          </div>\n        </div>\n      ","response":"Enter","trial_type":"html-keyboard-response","trial_index":8,"plugin_version":"2.1.0","time_elapsed":608711,"response_angle_css":270,"response_angle_rdk":180,"angular_error_target":30,"angular_error_distractor":150,"target_direction":150,"target_group":"white","reward_points":4},{"rt":null,"stimulus":"\n          <p style=\"color: #00FF00;\">Your reward: 4 points</p>\n        ","response":null,"trial_type":"html-keyboard-response","trial_index":9,"plugin_version":"2.1.0","time_elapsed":610714},{"rt":null,"stimulus":"<div class=\"fixation\" style=\"font-size: 60px;\">+</div>","response":null,"trial_type":"html-keyboard-response","trial_index":10,"plugin_version":"2.1.0","time_elapsed":611720},{"target_group":"black","target_index":1,"condition_label":"B_H_vs_W_L","rt":-1,"response":"","correct":false,"choices":"ALL_KEYS","correct_choice":["a"],"trial_duration":2000,"flip_timestamps":[],"response_ends_trial":false,"number_of_apertures":2,"number_of_dots":[50,100],"number_of_sets":1,"coherent_direction":[270,180],"coherence":1,"opposite_coherence":0,"dot_radius":2,"dot_side_length":1,"dot_life":-1,"move_distance":1,"aperture_width":300,"aperture_height":300,"dot_color":["white","black"],"dot_shape":"circle","background_color":"#AAA","RDK_type":3,"aperture_type":2,"reinsert_type":2,"frame_rate":16.833333333333332,"frame_rate_array":[9,17,17,17,16,17,17,17,17,17,17,17,17,17,16,17,17,17,17,17,17,17,17,17,17,16,17,17,17,17,16,17,17,16,17,17,17,17,17,17,17,17,16,17,17,17,17,17,17,17,17,17,17,17,17,17,17,17,17,17,17,16,17,17,17,17,17,17,17,17,17,17,16,17,17,17,17,17,17,17,17,17,17,16,17,17,17,17,17,17,17,17,17,17,16,17,17,17,17,17,17,17,17,17,17,16,17,17,17,17,17,17,17,17,17,17,17,17,16,17],"number_of_frames":120,"aperture_center_x":960,"aperture_center_y":540,"fixation_cross":true,"fixation_cross_width":15,"fixation_cross_height":15,"fixation_cross_color":"#111","fixation_cross_thickness":1,"border":true,"border_thickness":2,"border_color":"transparent","canvas_width":1920,"canvas_height":1080,"trial_type":"rdk","trial_index":11,"plugin_version":"2.0.0","time_elapsed":613728,"target_direction":180,"distractor_direction":270},{"rt":4520,"stimulus":"\n        <div class=\"response-container\">\n          <div class=\"response-instruction\">\n            <p>rotate the bar by using the left and right arrow keys.</p>\n            <p>when you are determined, press the Enter key.</p>\n          </div>\n          <div class=\"response-circle\">\n            <div class=\"response-fixation\"></div>\n            <div id=\"bar\" class=\"rotating-bar\"></div>\n          </div>\n        </div>\n      ","response":"Enter","trial_type":"html-keyboard-response","trial_index":12,"plugin_version":"2.1.0","time_elapsed":618250,"response_angle_css":269,"response_angle_rdk":181,"angular_error_target":1,"angular_error_distractor":-89,"target_direction":180,"target_group":"black","reward_points":9},{"rt":null,"stimulus":"\n          <p style=\"color: #00FF00;\">Your reward: 9 points</p>\n        ","response":null,"trial_type":"html-keyboard-response","trial_index":13,"plugin_version":"2.1.0","time_elapsed":620260},{"rt":1549,"stimulus":"\n        <div class=\"instructions-container\">\n          <h2>End of Practice</h2>\n          <p>You have completed the practice trials.</p>\n          <p>Press <strong>Enter</strong> key to begin the main experiment.</p>\n        </div>\n      ","response":"Enter","trial_type":"html-keyboard-response","trial_index":14,"plugin_version":"2.1.0","time_elapsed":621811},{"rt":null,"stimulus":"<div class=\"fixation\" style=\"font-size: 60px;\">+</div>","response":null,"trial_type":"html-keyboard-response","trial_index":15,"plugin_version":"2.1.0","time_elapsed":622818},{"target_group":"white","condition_label":"W_H_vs_B_L_rep6","target_direction":257,"distractor_direction":150,"session_rotation":213,"rt":-1,"response":"","correct":false,"choices":"ALL_KEYS","correct_choice":["a"],"trial_duration":2000,"flip_timestamps":[],"response_ends_trial":false,"number_of_apertures":200,"number_of_dots":[1,1,1,1,1,1,1,1,1,1,1,1,1,1,1,1,1,1,1,1,1,1,1,1,1,1,1,1,1,1,1,1,1,1,1,1,1,1,1,1,1,1,1,1,1,1,1,1,1,1,1,1,1,1,1,1,1,1,1,1,1,1,1,1,1,1,1,1,1,1,1,1,1,1,1,1,1,1,1,1,1,1,1,1,1,1,1,1,1,1,1,1,1,1,1,1,1,1,1,1,1,1,1,1,1,1,1,1,1,1,1,1,1,1,1,1,1,1,1,1,1,1,1,1,1,1,1,1,1,1,1,1,1,1,1,1,1,1,1,1,1,1,1,1,1,1,1,1,1,1,1,1,1,1,1,1,1,1,1,1,1,1,1,1,1,1,1,1,1,1,1,1,1,1,1,1,1,1,1,1,1,1,1,1,1,1,1,1,1,1,1,1,1,1,1,1,1,1,1,1],"number_of_sets":1,"coherent_direction":[150,257,150,150,150,150,257,150,150,150,150,257,257,150,150,257,257,257,150,150,150,257,150,150,150,257,150,150,150,150,150,150,257,150,150,257,150,150,150,150,257,257,150,257,257,257,150,257,257,150,150,257,150,150,150,257,150,257,257,257,257,257,150,257,257,150,150,150,150,150,150,150,150,257,150,257,150,150,150,150,257,150,257,150,150,150,257,150,257,150,150,150,257,150,150,150,150,257,257,257,257,150,257,257,257,257,257,257,150,150,150,257,257,257,257,257,257,150,150,257,257,150,257,257,257,150,257,150,257,150,257,257,257,257,257,150,257,150,257,257,150,257,257,257,257,150,150,150,257,257,150,257,150,150,257,150,150,150,257,150,257,150,150,150,257,150,257,150,257,257,150,150,257,257,257,257,257,257,257,150,257,150,257,257,257,257,150,150,257,257,257,150,257,257,150,150,257,257,257,257],"coherence":1,"opposite_coherence":0,"dot_radius":2,"dot_side_length":1,"dot_life":-1,"move_distance":1,"aperture_width":300,"aperture_height":300,"dot_color":["black","white","black","black","black","black","white","black","black","black","black","white","white","black","black","white","white","white","black","black","black","white","black","black","black","white","black","black","black","black","black","black","white","black","black","white","black","black","black","black","white","white","black","white","white","white","black","white","white","black","black","white","black","black","black","white","black","white","white","white","white","white","black","white","white","black","black","black","black","black","black","black","black","white","black","white","black","black","black","black","white","black","white","black","black","black","white","black","white","black","black","black","white","black","black","black","black","white","white","white","white","black","white","white","white","white","white","white","black","black","black","white","white","white","white","white","white","black","black","white","white","black","white","white","white","black","white","black","white","black","white","white","white","white","white","black","white","black","white","white","black","white","white","white","white","black","black","black","white","white","black","white","black","black","white","black","black","black","white","black","white","black","black","black","white","black","white","black","white","white","black","black","white","white","white","white","white","white","white","black","white","black","white","white","white","white","black","black","white","white","white","black","white","white","black","black","white","white","white","white"],"dot_shape":"circle","background_color":"#AAA","RDK_type":3,"aperture_type":2,"reinsert_type":2,"frame_rate":16.733333333333334,"frame_rate_array":[14,6,19,15,16,17,17,17,17,17,17,16,16,17,17,17,17,17,17,17,17,16,17,17,16,17,17,17,16,17,17,17,17,17,17,17,17,17,17,16,17,16,17,16,16,17,17,16,17,17,17,17,17,17,17,17,16,17,17,17,17,17,24,13,14,16,18,16,17,17,17,16,17,17,17,17,17,16,17,17,17,17,17,17,17,17,17,17,16,17,17,17,17,17,17,16,17,17,17,17,17,17,17,17,17,17,17,17,16,17,17,17,17,17,17,17,17,17,17,17],"number_of_frames":120,"aperture_center_x":960,"aperture_center_y":540,"fixation_cross":true,"fixation_cross_width":15,"fixation_cross_height":15,"fixation_cross_color":"#111","fixation_cross_thickness":1,"border":true,"border_thickness":2,"border_color":"transparent","canvas_width":1920,"canvas_height":1080,"trial_type":"rdk","trial_index":16,"plugin_version":"2.0.0","time_elapsed":624828},{"rt":4566,"stimulus":"\n        <div class=\"response-container\">\n          <div class=\"response-instruction\">\n            <p>rotate the bar by using the left and right arrow keys.</p>\n            <p>when you are determined, press the Enter key.</p>\n          </div>\n          <div class=\"response-circle\">\n            <div class=\"response-fixation\"></div>\n            <div id=\"bar\" class=\"rotating-bar\"></div>\n          </div>\n        </div>\n      ","response":"Enter","trial_type":"html-keyboard-response","trial_index":17,"plugin_version":"2.1.0","time_elapsed":629396,"response_angle_css":-37,"response_angle_rdk":127,"angular_error_target":-130,"angular_error_distractor":-23,"target_direction":257,"target_group":"white","reward_points":0},{"rt":null,"stimulus":"\n          <p style=\"color: #FF3333;\">Your reward: 0 points</p>\n        ","response":null,"trial_type":"html-keyboard-response","trial_index":18,"plugin_version":"2.1.0","time_elapsed":631406},{"rt":null,"stimulus":"<div class=\"fixation\" style=\"font-size: 60px;\">+</div>","response":null,"trial_type":"html-keyboard-response","trial_index":19,"plugin_version":"2.1.0","time_elapsed":632408},{"target_group":"black","condition_label":"B_H_vs_W_L_rep23","target_direction":305,"distractor_direction":45,"session_rotation":213,"rt":-1,"response":"","correct":false,"choices":"ALL_KEYS","correct_choice":["a"],"trial_duration":2000,"flip_timestamps":[],"response_ends_trial":false,"number_of_apertures":200,"number_of_dots":[1,1,1,1,1,1,1,1,1,1,1,1,1,1,1,1,1,1,1,1,1,1,1,1,1,1,1,1,1,1,1,1,1,1,1,1,1,1,1,1,1,1,1,1,1,1,1,1,1,1,1,1,1,1,1,1,1,1,1,1,1,1,1,1,1,1,1,1,1,1,1,1,1,1,1,1,1,1,1,1,1,1,1,1,1,1,1,1,1,1,1,1,1,1,1,1,1,1,1,1,1,1,1,1,1,1,1,1,1,1,1,1,1,1,1,1,1,1,1,1,1,1,1,1,1,1,1,1,1,1,1,1,1,1,1,1,1,1,1,1,1,1,1,1,1,1,1,1,1,1,1,1,1,1,1,1,1,1,1,1,1,1,1,1,1,1,1,1,1,1,1,1,1,1,1,1,1,1,1,1,1,1,1,1,1,1,1,1,1,1,1,1,1,1,1,1,1,1,1,1],"number_of_sets":1,"coherent_direction":[305,305,305,305,45,305,45,45,45,305,45,305,305,45,45,305,45,45,45,305,45,305,45,45,45,45,45,305,45,45,305,305,305,45,45,305,45,305,45,305,45,45,305,45,45,45,45,45,305,45,45,45,45,45,45,305,45,305,45,305,305,305,45,305,45,305,305,45,45,305,305,305,305,45,45,305,305,305,45,45,305,45,305,305,305,305,45,305,305,305,45,45,305,305,305,305,305,305,45,305,305,45,45,305,45,45,45,305,45,45,45,45,305,305,305,45,45,305,305,305,45,305,45,45,305,305,45,305,45,45,305,45,305,305,305,305,45,45,305,305,305,305,305,45,305,45,305,305,305,45,305,45,45,305,305,45,305,305,45,305,45,45,305,305,45,45,45,305,45,305,305,305,45,45,305,305,305,45,45,45,305,45,45,45,45,45,305,45,45,45,45,305,305,45,305,305,45,305,305,45],"coherence":1,"opposite_coherence":0,"dot_radius":2,"dot_side_length":1,"dot_life":-1,"move_distance":1,"aperture_width":300,"aperture_height":300,"dot_color":["black","black","black","black","white","black","white","white","white","black","white","black","black","white","white","black","white","white","white","black","white","black","white","white","white","white","white","black","white","white","black","black","black","white","white","black","white","black","white","black","white","white","black","white","white","white","white","white","black","white","white","white","white","white","white","black","white","black","white","black","black","black","white","black","white","black","black","white","white","black","black","black","black","white","white","black","black","black","white","white","black","white","black","black","black","black","white","black","black","black","white","white","black","black","black","black","black","black","white","black","black","white","white","black","white","white","white","black","white","white","white","white","black","black","black","white","white","black","black","black","white","black","white","white","black","black","white","black","white","white","black","white","black","black","black","black","white","white","black","black","black","black","black","white","black","white","black","black","black","white","black","white","white","black","black","white","black","black","white","black","white","white","black","black","white","white","white","black","white","black","black","black","white","white","black","black","black","white","white","white","black","white","white","white","white","white","black","white","white","white","white","black","black","white","black","black","white","black","black","white"],"dot_shape":"circle","background_color":"#AAA","RDK_type":3,"aperture_type":2,"reinsert_type":2,"frame_rate":16.783333333333335,"frame_rate_array":[11,17,17,16,17,17,17,17,17,17,17,17,17,17,17,17,17,17,16,17,17,17,17,17,16,17,17,17,17,17,16,17,17,16,17,17,16,21,13,17,17,16,17,16,16,17,17,17,17,17,17,17,17,17,17,17,17,17,16,17,17,17,17,17,16,17,16,17,16,17,17,17,17,16,17,17,16,17,16,17,17,17,17,17,17,17,17,17,17,17,17,17,17,17,17,17,17,16,17,17,16,16,17,17,17,17,17,17,17,17,17,17,17,17,17,17,17,16,17,17],"number_of_frames":120,"aperture_center_x":960,"aperture_center_y":540,"fixation_cross":true,"fixation_cross_width":15,"fixation_cross_height":15,"fixation_cross_color":"#111","fixation_cross_thickness":1,"border":true,"border_thickness":2,"border_color":"transparent","canvas_width":1920,"canvas_height":1080,"trial_type":"rdk","trial_index":20,"plugin_version":"2.0.0","time_elapsed":634421},{"rt":3644,"stimulus":"\n        <div class=\"response-container\">\n          <div class=\"response-instruction\">\n            <p>rotate the bar by using the left and right arrow keys.</p>\n            <p>when you are determined, press the Enter key.</p>\n          </div>\n          <div class=\"response-circle\">\n            <div class=\"response-fixation\"></div>\n            <div id=\"bar\" class=\"rotating-bar\"></div>\n          </div>\n        </div>\n      ","response":"Enter","trial_type":"html-keyboard-response","trial_index":21,"plugin_version":"2.1.0","time_elapsed":638067,"response_angle_css":94,"response_angle_rdk":356,"angular_error_target":51,"angular_error_distractor":-49,"target_direction":305,"target_group":"black","reward_points":0},{"rt":null,"stimulus":"\n          <p style=\"color: #FF3333;\">Your reward: 0 points</p>\n        ","response":null,"trial_type":"html-keyboard-response","trial_index":22,"plugin_version":"2.1.0","time_elapsed":640073},{"rt":null,"stimulus":"<div class=\"fixation\" style=\"font-size: 60px;\">+</div>","response":null,"trial_type":"html-keyboard-response","trial_index":23,"plugin_version":"2.1.0","time_elapsed":641087},{"target_group":"white","condition_label":"W_H_vs_B_L_rep15","target_direction":239,"distractor_direction":139,"session_rotation":213,"rt":-1,"response":"","correct":false,"choices":"ALL_KEYS","correct_choice":["a"],"trial_duration":2000,"flip_timestamps":[],"response_ends_trial":false,"number_of_apertures":200,"number_of_dots":[1,1,1,1,1,1,1,1,1,1,1,1,1,1,1,1,1,1,1,1,1,1,1,1,1,1,1,1,1,1,1,1,1,1,1,1,1,1,1,1,1,1,1,1,1,1,1,1,1,1,1,1,1,1,1,1,1,1,1,1,1,1,1,1,1,1,1,1,1,1,1,1,1,1,1,1,1,1,1,1,1,1,1,1,1,1,1,1,1,1,1,1,1,1,1,1,1,1,1,1,1,1,1,1,1,1,1,1,1,1,1,1,1,1,1,1,1,1,1,1,1,1,1,1,1,1,1,1,1,1,1,1,1,1,1,1,1,1,1,1,1,1,1,1,1,1,1,1,1,1,1,1,1,1,1,1,1,1,1,1,1,1,1,1,1,1,1,1,1,1,1,1,1,1,1,1,1,1,1,1,1,1,1,1,1,1,1,1,1,1,1,1,1,1,1,1,1,1,1,1],"number_of_sets":1,"coherent_direction":[139,139,239,139,139,139,239,139,139,139,239,139,139,239,239,239,239,239,139,139,139,139,139,139,239,239,139,239,139,239,139,239,239,239,139,139,239,239,139,139,239,239,239,139,239,139,239,139,139,239,139,239,139,139,139,139,139,239,239,239,139,139,239,139,239,139,139,239,239,139,239,139,239,239,139,239,139,139,139,239,239,239,239,139,239,239,139,239,139,139,139,239,139,139,239,239,239,139,139,239,239,239,139,239,139,139,139,139,139,139,239,239,239,139,239,139,239,239,139,239,239,139,139,139,239,139,139,139,239,139,239,139,239,239,139,239,239,139,139,239,239,239,139,239,139,139,139,139,239,139,239,239,139,239,239,239,139,239,239,139,139,139,139,239,239,139,139,139,239,239,239,139,239,139,239,239,139,239,139,239,239,139,139,239,139,139,239,239,139,239,239,239,239,239,239,239,139,239,239,139],"coherence":1,"opposite_coherence":0,"dot_radius":2,"dot_side_length":1,"dot_life":-1,"move_distance":1,"aperture_width":300,"aperture_height":300,"dot_color":["black","black","white","black","black","black","white","black","black","black","white","black","black","white","white","white","white","white","black","black","black","black","black","black","white","white","black","white","black","white","black","white","white","white","black","black","white","white","black","black","white","white","white","black","white","black","white","black","black","white","black","white","black","black","black","black","black","white","white","white","black","black","white","black","white","black","black","white","white","black","white","black","white","white","black","white","black","black","black","white","white","white","white","black","white","white","black","white","black","black","black","white","black","black","white","white","white","black","black","white","white","white","black","white","black","black","black","black","black","black","white","white","white","black","white","black","white","white","black","white","white","black","black","black","white","black","black","black","white","black","white","black","white","white","black","white","white","black","black","white","white","white","black","white","black","black","black","black","white","black","white","white","black","white","white","white","black","white","white","black","black","black","black","white","white","black","black","black","white","white","white","black","white","black","white","white","black","white","black","white","white","black","black","white","black","black","white","white","black","white","white","white","white","white","white","white","black","white","white","black"],"dot_shape":"circle","background_color":"#AAA","RDK_type":3,"aperture_type":2,"reinsert_type":2,"frame_rate":16.85,"frame_rate_array":[13,17,17,17,17,17,17,17,16,17,17,17,17,17,17,17,17,17,17,16,17,16,17,17,17,17,17,17,17,17,17,17,16,17,17,17,17,17,17,17,17,17,17,17,17,17,17,17,16,17,17,17,17,17,17,17,17,17,17,17,17,17,17,17,17,17,17,16,17,17,17,17,16,17,17,17,17,17,16,17,17,16,17,17,17,17,17,17,17,17,17,17,17,17,17,17,17,16,17,17,16,17,17,17,17,17,16,17,17,17,17,16,17,17,17,17,17,17,16,17],"number_of_frames":120,"aperture_center_x":960,"aperture_center_y":540,"fixation_cross":true,"fixation_cross_width":15,"fixation_cross_height":15,"fixation_cross_color":"#111","fixation_cross_thickness":1,"border":true,"border_thickness":2,"border_color":"transparent","canvas_width":1920,"canvas_height":1080,"trial_type":"rdk","trial_index":24,"plugin_version":"2.0.0","time_elapsed":643091},{"rt":5309,"stimulus":"\n        <div class=\"response-container\">\n          <div class=\"response-instruction\">\n            <p>rotate the bar by using the left and right arrow keys.</p>\n            <p>when you are determined, press the Enter key.</p>\n          </div>\n          <div class=\"response-circle\">\n            <div class=\"response-fixation\"></div>\n            <div id=\"bar\" class=\"rotating-bar\"></div>\n          </div>\n        </div>\n      ","response":"Enter","trial_type":"html-keyboard-response","trial_index":25,"plugin_version":"2.1.0","time_elapsed":648402,"response_angle_css":-41,"response_angle_rdk":131,"angular_error_target":-108,"angular_error_distractor":-8,"target_direction":239,"target_group":"white","reward_points":0},{"rt":null,"stimulus":"\n          <p style=\"color: #FF3333;\">Your reward: 0 points</p>\n        ","response":null,"trial_type":"html-keyboard-response","trial_index":26,"plugin_version":"2.1.0","time_elapsed":650409},{"rt":null,"stimulus":"<div class=\"fixation\" style=\"font-size: 60px;\">+</div>","response":null,"trial_type":"html-keyboard-response","trial_index":27,"plugin_version":"2.1.0","time_elapsed":651416},{"target_group":"white","condition_label":"W_H_vs_B_L_rep8","target_direction":245,"distractor_direction":150,"session_rotation":213,"rt":-1,"response":"","correct":false,"choices":"ALL_KEYS","correct_choice":["a"],"trial_duration":2000,"flip_timestamps":[],"response_ends_trial":false,"number_of_apertures":200,"number_of_dots":[1,1,1,1,1,1,1,1,1,1,1,1,1,1,1,1,1,1,1,1,1,1,1,1,1,1,1,1,1,1,1,1,1,1,1,1,1,1,1,1,1,1,1,1,1,1,1,1,1,1,1,1,1,1,1,1,1,1,1,1,1,1,1,1,1,1,1,1,1,1,1,1,1,1,1,1,1,1,1,1,1,1,1,1,1,1,1,1,1,1,1,1,1,1,1,1,1,1,1,1,1,1,1,1,1,1,1,1,1,1,1,1,1,1,1,1,1,1,1,1,1,1,1,1,1,1,1,1,1,1,1,1,1,1,1,1,1,1,1,1,1,1,1,1,1,1,1,1,1,1,1,1,1,1,1,1,1,1,1,1,1,1,1,1,1,1,1,1,1,1,1,1,1,1,1,1,1,1,1,1,1,1,1,1,1,1,1,1,1,1,1,1,1,1,1,1,1,1,1,1],"number_of_sets":1,"coherent_direction":[245,245,245,150,245,245,150,150,245,150,245,150,150,150,245,245,150,245,245,150,150,245,245,150,245,245,150,150,245,150,150,150,150,150,245,150,150,150,150,150,150,245,150,245,150,245,150,150,245,245,150,245,245,245,150,150,245,150,150,245,150,150,150,245,245,245,245,245,150,245,245,245,150,245,150,245,150,245,150,245,245,150,245,150,150,150,150,245,150,150,245,150,245,245,245,245,245,245,150,150,150,245,150,245,150,245,245,150,150,245,245,245,245,150,245,150,150,150,245,245,150,150,245,150,245,150,245,245,245,150,245,150,245,150,150,245,150,150,245,245,150,245,245,245,150,150,150,245,245,245,150,245,245,245,150,245,245,245,245,150,150,150,245,245,245,245,245,150,150,150,150,245,245,245,150,150,245,245,150,150,150,245,150,150,245,150,245,150,150,245,245,150,150,150,150,245,150,245,150,150],"coherence":1,"opposite_coherence":0,"dot_radius":2,"dot_side_length":1,"dot_life":-1,"move_distance":1,"aperture_width":300,"aperture_height":300,"dot_color":["white","white","white","black","white","white","black","black","white","black","white","black","black","black","white","white","black","white","white","black","black","white","white","black","white","white","black","black","white","black","black","black","black","black","white","black","black","black","black","black","black","white","black","white","black","white","black","black","white","white","black","white","white","white","black","black","white","black","black","white","black","black","black","white","white","white","white","white","black","white","white","white","black","white","black","white","black","white","black","white","white","black","white","black","black","black","black","white","black","black","white","black","white","white","white","white","white","white","black","black","black","white","black","white","black","white","white","black","black","white","white","white","white","black","white","black","black","black","white","white","black","black","white","black","white","black","white","white","white","black","white","black","white","black","black","white","black","black","white","white","black","white","white","white","black","black","black","white","white","white","black","white","white","white","black","white","white","white","white","black","black","black","white","white","white","white","white","black","black","black","black","white","white","white","black","black","white","white","black","black","black","white","black","black","white","black","white","black","black","white","white","black","black","black","black","white","black","white","black","black"],"dot_shape":"circle","background_color":"#AAA","RDK_type":3,"aperture_type":2,"reinsert_type":2,"frame_rate":16.766666666666666,"frame_rate_array":[16,12,17,17,16,17,17,17,17,17,17,17,16,17,17,17,17,17,17,18,16,16,17,17,17,17,17,17,17,17,17,17,17,17,17,17,16,17,17,17,17,16,17,17,17,17,17,17,17,17,17,16,21,12,17,17,16,17,16,17,17,17,17,17,16,17,17,17,17,17,17,17,17,17,19,14,17,17,16,17,17,17,16,17,17,17,17,17,17,16,17,17,16,17,17,17,16,17,17,16,17,17,17,16,16,17,16,17,17,17,16,17,17,17,17,17,16,17,17,17],"number_of_frames":120,"aperture_center_x":960,"aperture_center_y":540,"fixation_cross":true,"fixation_cross_width":15,"fixation_cross_height":15,"fixation_cross_color":"#111","fixation_cross_thickness":1,"border":true,"border_thickness":2,"border_color":"transparent","canvas_width":1920,"canvas_height":1080,"trial_type":"rdk","trial_index":28,"plugin_version":"2.0.0","time_elapsed":653420},{"rt":2528,"stimulus":"\n        <div class=\"response-container\">\n          <div class=\"response-instruction\">\n            <p>rotate the bar by using the left and right arrow keys.</p>\n            <p>when you are determined, press the Enter key.</p>\n          </div>\n          <div class=\"response-circle\">\n            <div class=\"response-fixation\"></div>\n            <div id=\"bar\" class=\"rotating-bar\"></div>\n          </div>\n        </div>\n      ","response":"Enter","trial_type":"html-keyboard-response","trial_index":29,"plugin_version":"2.1.0","time_elapsed":655949,"response_angle_css":311,"response_angle_rdk":139,"angular_error_target":-106,"angular_error_distractor":-11,"target_direction":245,"target_group":"white","reward_points":0},{"rt":null,"stimulus":"\n          <p style=\"color: #FF3333;\">Your reward: 0 points</p>\n        ","response":null,"trial_type":"html-keyboard-response","trial_index":30,"plugin_version":"2.1.0","time_elapsed":657964},{"rt":null,"stimulus":"<div class=\"fixation\" style=\"font-size: 60px;\">+</div>","response":null,"trial_type":"html-keyboard-response","trial_index":31,"plugin_version":"2.1.0","time_elapsed":658978},{"target_group":"black","condition_label":"B_H_vs_W_L_rep11","target_direction":316,"distractor_direction":55,"session_rotation":213,"rt":-1,"response":"","correct":false,"choices":"ALL_KEYS","correct_choice":["a"],"trial_duration":2000,"flip_timestamps":[],"response_ends_trial":false,"number_of_apertures":200,"number_of_dots":[1,1,1,1,1,1,1,1,1,1,1,1,1,1,1,1,1,1,1,1,1,1,1,1,1,1,1,1,1,1,1,1,1,1,1,1,1,1,1,1,1,1,1,1,1,1,1,1,1,1,1,1,1,1,1,1,1,1,1,1,1,1,1,1,1,1,1,1,1,1,1,1,1,1,1,1,1,1,1,1,1,1,1,1,1,1,1,1,1,1,1,1,1,1,1,1,1,1,1,1,1,1,1,1,1,1,1,1,1,1,1,1,1,1,1,1,1,1,1,1,1,1,1,1,1,1,1,1,1,1,1,1,1,1,1,1,1,1,1,1,1,1,1,1,1,1,1,1,1,1,1,1,1,1,1,1,1,1,1,1,1,1,1,1,1,1,1,1,1,1,1,1,1,1,1,1,1,1,1,1,1,1,1,1,1,1,1,1,1,1,1,1,1,1,1,1,1,1,1,1],"number_of_sets":1,"coherent_direction":[316,55,55,55,316,316,55,316,55,316,316,316,316,316,316,316,55,55,55,55,55,316,55,316,55,55,316,316,55,55,316,316,55,316,55,316,55,55,55,55,316,316,316,55,55,55,316,55,55,55,316,55,316,316,316,55,316,55,316,316,316,316,316,55,55,316,316,55,55,55,316,316,316,55,316,316,55,55,55,55,55,316,316,316,316,55,55,55,55,316,316,316,316,55,316,316,316,316,55,55,316,316,316,316,316,55,316,55,316,316,55,55,55,316,55,316,316,55,316,316,316,55,55,55,55,55,316,55,55,55,316,55,55,316,316,316,316,316,316,316,55,316,316,316,316,55,55,55,316,316,55,316,55,316,55,316,55,316,55,55,316,55,55,316,55,316,55,316,55,316,316,316,55,316,55,55,55,316,316,55,316,55,55,316,55,55,55,55,55,55,55,316,55,55,55,55,316,316,55,55],"coherence":1,"opposite_coherence":0,"dot_radius":2,"dot_side_length":1,"dot_life":-1,"move_distance":1,"aperture_width":300,"aperture_height":300,"dot_color":["black","white","white","white","black","black","white","black","white","black","black","black","black","black","black","black","white","white","white","white","white","black","white","black","white","white","black","black","white","white","black","black","white","black","white","black","white","white","white","white","black","black","black","white","white","white","black","white","white","white","black","white","black","black","black","white","black","white","black","black","black","black","black","white","white","black","black","white","white","white","black","black","black","white","black","black","white","white","white","white","white","black","black","black","black","white","white","white","white","black","black","black","black","white","black","black","black","black","white","white","black","black","black","black","black","white","black","white","black","black","white","white","white","black","white","black","black","white","black","black","black","white","white","white","white","white","black","white","white","white","black","white","white","black","black","black","black","black","black","black","white","black","black","black","black","white","white","white","black","black","white","black","white","black","white","black","white","black","white","white","black","white","white","black","white","black","white","black","white","black","black","black","white","black","white","white","white","black","black","white","black","white","white","black","white","white","white","white","white","white","white","black","white","white","white","white","black","black","white","white"],"dot_shape":"circle","background_color":"#AAA","RDK_type":3,"aperture_type":2,"reinsert_type":2,"frame_rate":16.833333333333332,"frame_rate_array":[13,17,17,16,17,17,17,17,17,17,17,16,16,17,17,17,17,16,17,17,17,17,16,17,17,17,17,17,17,17,17,17,16,17,17,17,17,16,17,17,17,17,17,17,17,17,17,17,17,17,16,17,17,17,17,17,17,17,16,17,17,16,17,17,17,17,17,16,17,17,17,16,17,16,16,17,17,17,17,17,17,17,17,17,17,17,17,17,17,16,17,17,17,17,17,16,17,17,17,17,17,17,17,17,17,17,17,17,17,17,17,17,17,17,17,17,17,17,17,17],"number_of_frames":120,"aperture_center_x":960,"aperture_center_y":540,"fixation_cross":true,"fixation_cross_width":15,"fixation_cross_height":15,"fixation_cross_color":"#111","fixation_cross_thickness":1,"border":true,"border_thickness":2,"border_color":"transparent","canvas_width":1920,"canvas_height":1080,"trial_type":"rdk","trial_index":32,"plugin_version":"2.0.0","time_elapsed":660983},{"rt":1175,"stimulus":"\n        <div class=\"response-container\">\n          <div class=\"response-instruction\">\n            <p>rotate the bar by using the left and right arrow keys.</p>\n            <p>when you are determined, press the Enter key.</p>\n          </div>\n          <div class=\"response-circle\">\n            <div class=\"response-fixation\"></div>\n            <div id=\"bar\" class=\"rotating-bar\"></div>\n          </div>\n        </div>\n      ","response":"Enter","trial_type":"html-keyboard-response","trial_index":33,"plugin_version":"2.1.0","time_elapsed":662159,"response_angle_css":57,"response_angle_rdk":33,"angular_error_target":77,"angular_error_distractor":-22,"target_direction":316,"target_group":"black","reward_points":0},{"rt":null,"stimulus":"\n          <p style=\"color: #FF3333;\">Your reward: 0 points</p>\n        ","response":null,"trial_type":"html-keyboard-response","trial_index":34,"plugin_version":"2.1.0","time_elapsed":664168},{"rt":null,"stimulus":"<div class=\"fixation\" style=\"font-size: 60px;\">+</div>","response":null,"trial_type":"html-keyboard-response","trial_index":35,"plugin_version":"2.1.0","time_elapsed":665177},{"target_group":"black","condition_label":"B_H_vs_W_L_rep15","target_direction":306,"distractor_direction":38,"session_rotation":213,"rt":-1,"response":"","correct":false,"choices":"ALL_KEYS","correct_choice":["a"],"trial_duration":2000,"flip_timestamps":[],"response_ends_trial":false,"number_of_apertures":200,"number_of_dots":[1,1,1,1,1,1,1,1,1,1,1,1,1,1,1,1,1,1,1,1,1,1,1,1,1,1,1,1,1,1,1,1,1,1,1,1,1,1,1,1,1,1,1,1,1,1,1,1,1,1,1,1,1,1,1,1,1,1,1,1,1,1,1,1,1,1,1,1,1,1,1,1,1,1,1,1,1,1,1,1,1,1,1,1,1,1,1,1,1,1,1,1,1,1,1,1,1,1,1,1,1,1,1,1,1,1,1,1,1,1,1,1,1,1,1,1,1,1,1,1,1,1,1,1,1,1,1,1,1,1,1,1,1,1,1,1,1,1,1,1,1,1,1,1,1,1,1,1,1,1,1,1,1,1,1,1,1,1,1,1,1,1,1,1,1,1,1,1,1,1,1,1,1,1,1,1,1,1,1,1,1,1,1,1,1,1,1,1,1,1,1,1,1,1,1,1,1,1,1,1],"number_of_sets":1,"coherent_direction":[306,306,306,306,38,38,306,38,38,38,306,38,306,306,38,38,306,38,38,38,306,306,38,38,38,38,38,38,38,306,306,306,306,306,306,38,306,306,38,38,38,306,38,306,306,38,306,306,306,38,306,38,38,306,306,306,306,306,306,38,306,306,38,306,38,306,306,38,306,306,306,38,38,38,306,38,38,38,306,38,306,38,306,306,306,306,38,306,38,38,306,306,38,306,38,306,38,38,38,38,38,306,306,38,306,306,38,306,38,38,38,306,38,306,306,306,38,38,306,38,306,306,38,306,306,38,38,306,38,306,38,306,306,38,306,38,38,38,38,306,38,306,306,38,38,38,306,38,306,306,306,38,38,306,306,38,38,38,38,38,306,38,38,306,306,306,306,306,306,306,38,38,38,38,306,38,38,306,38,38,38,306,306,38,306,306,38,306,38,38,38,38,306,306,38,306,306,306,38,38],"coherence":1,"opposite_coherence":0,"dot_radius":2,"dot_side_length":1,"dot_life":-1,"move_distance":1,"aperture_width":300,"aperture_height":300,"dot_color":["black","black","black","black","white","white","black","white","white","white","black","white","black","black","white","white","black","white","white","white","black","black","white","white","white","white","white","white","white","black","black","black","black","black","black","white","black","black","white","white","white","black","white","black","black","white","black","black","black","white","black","white","white","black","black","black","black","black","black","white","black","black","white","black","white","black","black","white","black","black","black","white","white","white","black","white","white","white","black","white","black","white","black","black","black","black","white","black","white","white","black","black","white","black","white","black","white","white","white","white","white","black","black","white","black","black","white","black","white","white","white","black","white","black","black","black","white","white","black","white","black","black","white","black","black","white","white","black","white","black","white","black","black","white","black","white","white","white","white","black","white","black","black","white","white","white","black","white","black","black","black","white","white","black","black","white","white","white","white","white","black","white","white","black","black","black","black","black","black","black","white","white","white","white","black","white","white","black","white","white","white","black","black","white","black","black","white","black","white","white","white","white","black","black","white","black","black","black","white","white"],"dot_shape":"circle","background_color":"#AAA","RDK_type":3,"aperture_type":2,"reinsert_type":2,"frame_rate":16.775,"frame_rate_array":[11,16,17,17,17,17,17,17,16,17,17,17,17,17,16,16,17,17,17,17,17,17,17,17,17,16,16,17,16,17,17,17,17,16,17,17,17,16,17,17,17,17,17,16,17,17,17,17,17,16,17,17,17,17,17,17,16,17,17,17,17,17,17,17,17,17,17,16,16,17,17,17,17,17,17,17,17,16,17,17,17,17,17,17,17,17,17,17,17,17,17,17,16,17,17,17,17,16,17,17,17,17,17,16,17,16,17,17,17,17,16,17,17,17,17,17,17,16,17,17],"number_of_frames":120,"aperture_center_x":960,"aperture_center_y":540,"fixation_cross":true,"fixation_cross_width":15,"fixation_cross_height":15,"fixation_cross_color":"#111","fixation_cross_thickness":1,"border":true,"border_thickness":2,"border_color":"transparent","canvas_width":1920,"canvas_height":1080,"trial_type":"rdk","trial_index":36,"plugin_version":"2.0.0","time_elapsed":667191},{"rt":4827,"stimulus":"\n        <div class=\"response-container\">\n          <div class=\"response-instruction\">\n            <p>rotate the bar by using the left and right arrow keys.</p>\n            <p>when you are determined, press the Enter key.</p>\n          </div>\n          <div class=\"response-circle\">\n            <div class=\"response-fixation\"></div>\n            <div id=\"bar\" class=\"rotating-bar\"></div>\n          </div>\n        </div>\n      ","response":"Enter","trial_type":"html-keyboard-response","trial_index":37,"plugin_version":"2.1.0","time_elapsed":672020,"response_angle_css":179,"response_angle_rdk":271,"angular_error_target":-35,"angular_error_distractor":-127,"target_direction":306,"target_group":"black","reward_points":3},{"rt":null,"stimulus":"\n          <p style=\"color: #00FF00;\">Your reward: 3 points</p>\n        ","response":null,"trial_type":"html-keyboard-response","trial_index":38,"plugin_version":"2.1.0","time_elapsed":674028},{"rt":null,"stimulus":"<div class=\"fixation\" style=\"font-size: 60px;\">+</div>","response":null,"trial_type":"html-keyboard-response","trial_index":39,"plugin_version":"2.1.0","time_elapsed":675042},{"target_group":"white","condition_label":"W_H_vs_B_L_rep24","target_direction":238,"distractor_direction":144,"session_rotation":213,"rt":-1,"response":"","correct":false,"choices":"ALL_KEYS","correct_choice":["a"],"trial_duration":2000,"flip_timestamps":[],"response_ends_trial":false,"number_of_apertures":200,"number_of_dots":[1,1,1,1,1,1,1,1,1,1,1,1,1,1,1,1,1,1,1,1,1,1,1,1,1,1,1,1,1,1,1,1,1,1,1,1,1,1,1,1,1,1,1,1,1,1,1,1,1,1,1,1,1,1,1,1,1,1,1,1,1,1,1,1,1,1,1,1,1,1,1,1,1,1,1,1,1,1,1,1,1,1,1,1,1,1,1,1,1,1,1,1,1,1,1,1,1,1,1,1,1,1,1,1,1,1,1,1,1,1,1,1,1,1,1,1,1,1,1,1,1,1,1,1,1,1,1,1,1,1,1,1,1,1,1,1,1,1,1,1,1,1,1,1,1,1,1,1,1,1,1,1,1,1,1,1,1,1,1,1,1,1,1,1,1,1,1,1,1,1,1,1,1,1,1,1,1,1,1,1,1,1,1,1,1,1,1,1,1,1,1,1,1,1,1,1,1,1,1,1],"number_of_sets":1,"coherent_direction":[238,144,144,238,238,238,238,238,144,238,238,238,144,144,144,238,238,238,238,238,238,144,144,238,238,144,238,238,238,238,144,238,144,144,238,144,144,144,238,238,238,144,144,144,238,144,238,238,144,144,144,238,238,144,144,144,144,238,238,238,144,238,238,144,144,238,144,144,144,238,238,238,144,238,238,144,144,144,238,238,238,238,238,144,238,238,238,238,238,238,144,238,144,144,144,238,238,144,144,238,144,144,238,144,238,144,238,238,238,144,238,144,144,144,144,238,144,144,144,238,238,238,144,144,144,144,144,238,144,144,238,144,238,144,238,238,238,144,238,144,144,144,238,238,238,144,238,238,238,144,238,238,144,144,144,144,238,144,144,238,238,144,144,144,238,144,238,144,144,238,144,144,144,238,144,238,144,238,238,238,144,144,238,238,238,144,144,144,144,238,238,144,144,144,144,144,144,238,144,238],"coherence":1,"opposite_coherence":0,"dot_radius":2,"dot_side_length":1,"dot_life":-1,"move_distance":1,"aperture_width":300,"aperture_height":300,"dot_color":["white","black","black","white","white","white","white","white","black","white","white","white","black","black","black","white","white","white","white","white","white","black","black","white","white","black","white","white","white","white","black","white","black","black","white","black","black","black","white","white","white","black","black","black","white","black","white","white","black","black","black","white","white","black","black","black","black","white","white","white","black","white","white","black","black","white","black","black","black","white","white","white","black","white","white","black","black","black","white","white","white","white","white","black","white","white","white","white","white","white","black","white","black","black","black","white","white","black","black","white","black","black","white","black","white","black","white","white","white","black","white","black","black","black","black","white","black","black","black","white","white","white","black","black","black","black","black","white","black","black","white","black","white","black","white","white","white","black","white","black","black","black","white","white","white","black","white","white","white","black","white","white","black","black","black","black","white","black","black","white","white","black","black","black","white","black","white","black","black","white","black","black","black","white","black","white","black","white","white","white","black","black","white","white","white","black","black","black","black","white","white","black","black","black","black","black","black","white","black","white"],"dot_shape":"circle","background_color":"#AAA","RDK_type":3,"aperture_type":2,"reinsert_type":2,"frame_rate":16.733333333333334,"frame_rate_array":[13,12,17,17,16,17,17,17,17,17,17,17,17,16,17,17,17,17,17,17,17,17,16,17,17,17,17,17,17,16,16,17,17,17,17,16,17,16,17,17,17,17,17,17,17,17,17,16,17,17,17,17,17,17,17,18,15,17,17,17,17,16,17,17,17,17,17,17,16,16,17,16,17,17,17,17,16,17,17,17,16,17,16,16,17,17,17,17,17,16,17,17,17,17,17,17,17,17,17,17,17,17,17,16,16,17,17,16,17,17,16,17,17,17,17,17,16,17,17,17],"number_of_frames":120,"aperture_center_x":960,"aperture_center_y":540,"fixation_cross":true,"fixation_cross_width":15,"fixation_cross_height":15,"fixation_cross_color":"#111","fixation_cross_thickness":1,"border":true,"border_thickness":2,"border_color":"transparent","canvas_width":1920,"canvas_height":1080,"trial_type":"rdk","trial_index":40,"plugin_version":"2.0.0","time_elapsed":677050},{"rt":4751,"stimulus":"\n        <div class=\"response-container\">\n          <div class=\"response-instruction\">\n            <p>rotate the bar by using the left and right arrow keys.</p>\n            <p>when you are determined, press the Enter key.</p>\n          </div>\n          <div class=\"response-circle\">\n            <div class=\"response-fixation\"></div>\n            <div id=\"bar\" class=\"rotating-bar\"></div>\n          </div>\n        </div>\n      ","response":"Enter","trial_type":"html-keyboard-response","trial_index":41,"plugin_version":"2.1.0","time_elapsed":681802,"response_angle_css":-57,"response_angle_rdk":147,"angular_error_target":-91,"angular_error_distractor":3,"target_direction":238,"target_group":"white","reward_points":0},{"rt":null,"stimulus":"\n          <p style=\"color: #FF3333;\">Your reward: 0 points</p>\n        ","response":null,"trial_type":"html-keyboard-response","trial_index":42,"plugin_version":"2.1.0","time_elapsed":683817},{"rt":null,"stimulus":"<div class=\"fixation\" style=\"font-size: 60px;\">+</div>","response":null,"trial_type":"html-keyboard-response","trial_index":43,"plugin_version":"2.1.0","time_elapsed":684821},{"target_group":"black","condition_label":"B_H_vs_W_L_rep7","target_direction":311,"distractor_direction":45,"session_rotation":213,"rt":-1,"response":"","correct":false,"choices":"ALL_KEYS","correct_choice":["a"],"trial_duration":2000,"flip_timestamps":[],"response_ends_trial":false,"number_of_apertures":200,"number_of_dots":[1,1,1,1,1,1,1,1,1,1,1,1,1,1,1,1,1,1,1,1,1,1,1,1,1,1,1,1,1,1,1,1,1,1,1,1,1,1,1,1,1,1,1,1,1,1,1,1,1,1,1,1,1,1,1,1,1,1,1,1,1,1,1,1,1,1,1,1,1,1,1,1,1,1,1,1,1,1,1,1,1,1,1,1,1,1,1,1,1,1,1,1,1,1,1,1,1,1,1,1,1,1,1,1,1,1,1,1,1,1,1,1,1,1,1,1,1,1,1,1,1,1,1,1,1,1,1,1,1,1,1,1,1,1,1,1,1,1,1,1,1,1,1,1,1,1,1,1,1,1,1,1,1,1,1,1,1,1,1,1,1,1,1,1,1,1,1,1,1,1,1,1,1,1,1,1,1,1,1,1,1,1,1,1,1,1,1,1,1,1,1,1,1,1,1,1,1,1,1,1],"number_of_sets":1,"coherent_direction":[311,311,45,311,311,311,311,45,45,45,45,311,45,311,45,311,45,45,311,311,311,45,311,311,311,311,45,311,311,45,45,311,45,45,45,45,311,45,45,311,311,45,45,311,45,45,45,311,311,45,45,311,311,311,311,45,311,45,311,311,311,45,45,311,45,45,45,311,45,45,45,45,45,311,311,45,45,311,311,311,45,311,311,45,311,311,45,45,45,311,311,311,311,311,311,45,45,311,311,45,45,311,45,45,311,311,311,45,311,45,45,311,45,45,45,311,311,45,311,311,45,311,45,45,45,311,45,45,45,311,311,45,45,311,45,45,45,45,311,45,45,311,311,311,311,311,45,45,311,311,45,45,311,311,311,311,311,311,311,311,45,45,311,45,311,311,45,311,45,45,311,311,45,45,311,45,311,311,311,45,45,45,45,45,311,311,45,45,45,45,311,45,311,45,311,45,311,45,45,311],"coherence":1,"opposite_coherence":0,"dot_radius":2,"dot_side_length":1,"dot_life":-1,"move_distance":1,"aperture_width":300,"aperture_height":300,"dot_color":["black","black","white","black","black","black","black","white","white","white","white","black","white","black","white","black","white","white","black","black","black","white","black","black","black","black","white","black","black","white","white","black","white","white","white","white","black","white","white","black","black","white","white","black","white","white","white","black","black","white","white","black","black","black","black","white","black","white","black","black","black","white","white","black","white","white","white","black","white","white","white","white","white","black","black","white","white","black","black","black","white","black","black","white","black","black","white","white","white","black","black","black","black","black","black","white","white","black","black","white","white","black","white","white","black","black","black","white","black","white","white","black","white","white","white","black","black","white","black","black","white","black","white","white","white","black","white","white","white","black","black","white","white","black","white","white","white","white","black","white","white","black","black","black","black","black","white","white","black","black","white","white","black","black","black","black","black","black","black","black","white","white","black","white","black","black","white","black","white","white","black","black","white","white","black","white","black","black","black","white","white","white","white","white","black","black","white","white","white","white","black","white","black","white","black","white","black","white","white","black"],"dot_shape":"circle","background_color":"#AAA","RDK_type":3,"aperture_type":2,"reinsert_type":2,"frame_rate":16.766666666666666,"frame_rate_array":[8,17,17,17,17,17,16,17,16,17,17,17,17,17,17,17,17,17,17,16,17,17,17,17,17,17,17,16,17,17,17,17,17,17,16,17,17,17,17,17,17,17,17,17,16,17,17,17,16,17,17,16,17,17,17,17,17,16,17,17,17,17,17,17,16,17,17,17,16,17,17,17,16,17,17,17,17,17,17,17,16,17,17,17,16,17,17,17,17,17,17,17,17,16,17,17,17,16,17,17,17,16,17,17,17,17,17,17,17,17,17,17,17,17,17,17,16,17,17,16],"number_of_frames":120,"aperture_center_x":960,"aperture_center_y":540,"fixation_cross":true,"fixation_cross_width":15,"fixation_cross_height":15,"fixation_cross_color":"#111","fixation_cross_thickness":1,"border":true,"border_thickness":2,"border_color":"transparent","canvas_width":1920,"canvas_height":1080,"trial_type":"rdk","trial_index":44,"plugin_version":"2.0.0","time_elapsed":686829},{"rt":5963,"stimulus":"\n        <div class=\"response-container\">\n          <div class=\"response-instruction\">\n            <p>rotate the bar by using the left and right arrow keys.</p>\n            <p>when you are determined, press the Enter key.</p>\n          </div>\n          <div class=\"response-circle\">\n            <div class=\"response-fixation\"></div>\n            <div id=\"bar\" class=\"rotating-bar\"></div>\n          </div>\n        </div>\n      ","response":"Enter","trial_type":"html-keyboard-response","trial_index":45,"plugin_version":"2.1.0","time_elapsed":692793,"response_angle_css":167,"response_angle_rdk":283,"angular_error_target":-28,"angular_error_distractor":-122,"target_direction":311,"target_group":"black","reward_points":4},{"rt":null,"stimulus":"\n          <p style=\"color: #00FF00;\">Your reward: 4 points</p>\n        ","response":null,"trial_type":"html-keyboard-response","trial_index":46,"plugin_version":"2.1.0","time_elapsed":694801},{"rt":null,"stimulus":"<div class=\"fixation\" style=\"font-size: 60px;\">+</div>","response":null,"trial_type":"html-keyboard-response","trial_index":47,"plugin_version":"2.1.0","time_elapsed":695812},{"target_group":"white","condition_label":"W_H_vs_B_L_rep23","target_direction":228,"distractor_direction":128,"session_rotation":213,"rt":-1,"response":"","correct":false,"choices":"ALL_KEYS","correct_choice":["a"],"trial_duration":2000,"flip_timestamps":[],"response_ends_trial":false,"number_of_apertures":200,"number_of_dots":[1,1,1,1,1,1,1,1,1,1,1,1,1,1,1,1,1,1,1,1,1,1,1,1,1,1,1,1,1,1,1,1,1,1,1,1,1,1,1,1,1,1,1,1,1,1,1,1,1,1,1,1,1,1,1,1,1,1,1,1,1,1,1,1,1,1,1,1,1,1,1,1,1,1,1,1,1,1,1,1,1,1,1,1,1,1,1,1,1,1,1,1,1,1,1,1,1,1,1,1,1,1,1,1,1,1,1,1,1,1,1,1,1,1,1,1,1,1,1,1,1,1,1,1,1,1,1,1,1,1,1,1,1,1,1,1,1,1,1,1,1,1,1,1,1,1,1,1,1,1,1,1,1,1,1,1,1,1,1,1,1,1,1,1,1,1,1,1,1,1,1,1,1,1,1,1,1,1,1,1,1,1,1,1,1,1,1,1,1,1,1,1,1,1,1,1,1,1,1,1],"number_of_sets":1,"coherent_direction":[128,228,128,128,128,128,228,128,228,128,128,128,228,128,228,128,128,228,228,128,128,228,228,128,128,128,228,128,128,128,128,128,228,128,228,228,128,128,228,228,128,228,228,228,128,228,228,228,228,128,128,128,228,228,128,128,228,128,228,228,228,128,128,128,128,228,228,128,228,128,128,128,228,128,128,228,228,128,228,128,228,128,128,228,128,228,228,128,228,228,228,128,228,128,228,128,128,228,228,228,128,128,228,228,228,128,228,128,128,228,228,228,128,128,228,128,228,228,128,128,228,228,228,228,128,128,128,128,228,128,128,228,228,228,128,128,128,228,228,128,128,228,228,128,128,128,228,128,128,228,228,128,228,228,228,228,128,228,128,228,128,128,228,228,128,228,128,228,228,228,228,228,228,128,128,128,128,128,228,128,128,228,228,228,128,228,128,128,128,128,128,228,228,228,228,128,228,228,228,228],"coherence":1,"opposite_coherence":0,"dot_radius":2,"dot_side_length":1,"dot_life":-1,"move_distance":1,"aperture_width":300,"aperture_height":300,"dot_color":["black","white","black","black","black","black","white","black","white","black","black","black","white","black","white","black","black","white","white","black","black","white","white","black","black","black","white","black","black","black","black","black","white","black","white","white","black","black","white","white","black","white","white","white","black","white","white","white","white","black","black","black","white","white","black","black","white","black","white","white","white","black","black","black","black","white","white","black","white","black","black","black","white","black","black","white","white","black","white","black","white","black","black","white","black","white","white","black","white","white","white","black","white","black","white","black","black","white","white","white","black","black","white","white","white","black","white","black","black","white","white","white","black","black","white","black","white","white","black","black","white","white","white","white","black","black","black","black","white","black","black","white","white","white","black","black","black","white","white","black","black","white","white","black","black","black","white","black","black","white","white","black","white","white","white","white","black","white","black","white","black","black","white","white","black","white","black","white","white","white","white","white","white","black","black","black","black","black","white","black","black","white","white","white","black","white","black","black","black","black","black","white","white","white","white","black","white","white","white","white"],"dot_shape":"circle","background_color":"#AAA","RDK_type":3,"aperture_type":2,"reinsert_type":2,"frame_rate":16.85,"frame_rate_array":[13,17,17,17,16,17,17,17,17,17,17,17,17,16,17,17,17,17,17,16,17,17,17,17,17,17,17,16,17,17,17,16,17,17,17,16,17,17,17,17,17,17,17,17,16,17,17,17,17,17,17,17,17,17,17,17,17,17,17,16,17,17,17,17,17,17,17,17,17,17,17,16,17,17,17,17,17,17,17,16,17,17,17,17,17,17,16,17,17,17,17,17,17,17,17,17,16,17,17,17,17,16,17,17,17,17,17,17,17,17,17,17,17,17,17,17,17,17,16,17],"number_of_frames":120,"aperture_center_x":960,"aperture_center_y":540,"fixation_cross":true,"fixation_cross_width":15,"fixation_cross_height":15,"fixation_cross_color":"#111","fixation_cross_thickness":1,"border":true,"border_thickness":2,"border_color":"transparent","canvas_width":1920,"canvas_height":1080,"trial_type":"rdk","trial_index":48,"plugin_version":"2.0.0","time_elapsed":697816},{"rt":4163,"stimulus":"\n        <div class=\"response-container\">\n          <div class=\"response-instruction\">\n            <p>rotate the bar by using the left and right arrow keys.</p>\n            <p>when you are determined, press the Enter key.</p>\n          </div>\n          <div class=\"response-circle\">\n            <div class=\"response-fixation\"></div>\n            <div id=\"bar\" class=\"rotating-bar\"></div>\n          </div>\n        </div>\n      ","response":"Enter","trial_type":"html-keyboard-response","trial_index":49,"plugin_version":"2.1.0","time_elapsed":701980,"response_angle_css":215,"response_angle_rdk":235,"angular_error_target":7,"angular_error_distractor":107,"target_direction":228,"target_group":"white","reward_points":8},{"rt":null,"stimulus":"\n          <p style=\"color: #00FF00;\">Your reward: 8 points</p>\n        ","response":null,"trial_type":"html-keyboard-response","trial_index":50,"plugin_version":"2.1.0","time_elapsed":703987},{"rt":null,"stimulus":"<div class=\"fixation\" style=\"font-size: 60px;\">+</div>","response":null,"trial_type":"html-keyboard-response","trial_index":51,"plugin_version":"2.1.0","time_elapsed":704997},{"target_group":"white","condition_label":"W_H_vs_B_L_rep18","target_direction":256,"distractor_direction":136,"session_rotation":213,"rt":-1,"response":"","correct":false,"choices":"ALL_KEYS","correct_choice":["a"],"trial_duration":2000,"flip_timestamps":[],"response_ends_trial":false,"number_of_apertures":200,"number_of_dots":[1,1,1,1,1,1,1,1,1,1,1,1,1,1,1,1,1,1,1,1,1,1,1,1,1,1,1,1,1,1,1,1,1,1,1,1,1,1,1,1,1,1,1,1,1,1,1,1,1,1,1,1,1,1,1,1,1,1,1,1,1,1,1,1,1,1,1,1,1,1,1,1,1,1,1,1,1,1,1,1,1,1,1,1,1,1,1,1,1,1,1,1,1,1,1,1,1,1,1,1,1,1,1,1,1,1,1,1,1,1,1,1,1,1,1,1,1,1,1,1,1,1,1,1,1,1,1,1,1,1,1,1,1,1,1,1,1,1,1,1,1,1,1,1,1,1,1,1,1,1,1,1,1,1,1,1,1,1,1,1,1,1,1,1,1,1,1,1,1,1,1,1,1,1,1,1,1,1,1,1,1,1,1,1,1,1,1,1,1,1,1,1,1,1,1,1,1,1,1,1],"number_of_sets":1,"coherent_direction":[136,136,256,256,136,256,136,256,136,136,256,256,136,136,256,256,136,136,256,256,136,256,256,136,136,256,136,136,136,136,136,136,136,256,256,136,256,256,136,256,256,136,136,256,136,136,256,256,256,256,256,256,256,256,136,136,136,136,256,136,256,256,256,256,256,256,256,136,136,256,256,136,256,256,136,136,256,136,256,136,256,136,136,136,256,256,136,136,256,136,256,136,256,256,136,256,136,256,256,256,256,256,256,136,256,256,256,256,256,136,256,136,136,256,136,136,256,136,136,136,136,256,136,256,136,136,136,256,136,136,136,256,256,136,136,256,136,256,256,136,256,136,256,256,256,136,256,136,256,136,256,136,136,256,256,256,136,136,256,256,136,136,136,256,256,136,136,256,136,256,256,136,136,136,256,136,136,256,136,136,136,256,136,256,256,136,256,136,256,256,136,256,136,136,256,136,136,136,256,136],"coherence":1,"opposite_coherence":0,"dot_radius":2,"dot_side_length":1,"dot_life":-1,"move_distance":1,"aperture_width":300,"aperture_height":300,"dot_color":["black","black","white","white","black","white","black","white","black","black","white","white","black","black","white","white","black","black","white","white","black","white","white","black","black","white","black","black","black","black","black","black","black","white","white","black","white","white","black","white","white","black","black","white","black","black","white","white","white","white","white","white","white","white","black","black","black","black","white","black","white","white","white","white","white","white","white","black","black","white","white","black","white","white","black","black","white","black","white","black","white","black","black","black","white","white","black","black","white","black","white","black","white","white","black","white","black","white","white","white","white","white","white","black","white","white","white","white","white","black","white","black","black","white","black","black","white","black","black","black","black","white","black","white","black","black","black","white","black","black","black","white","white","black","black","white","black","white","white","black","white","black","white","white","white","black","white","black","white","black","white","black","black","white","white","white","black","black","white","white","black","black","black","white","white","black","black","white","black","white","white","black","black","black","white","black","black","white","black","black","black","white","black","white","white","black","white","black","white","white","black","white","black","black","white","black","black","black","white","black"],"dot_shape":"circle","background_color":"#AAA","RDK_type":3,"aperture_type":2,"reinsert_type":2,"frame_rate":16.766666666666666,"frame_rate_array":[12,11,17,17,17,17,17,17,17,17,17,17,16,17,17,17,17,16,17,17,16,17,16,17,17,17,17,17,17,16,17,17,17,17,17,17,16,17,17,17,16,17,17,17,17,17,17,17,17,17,16,17,17,17,16,17,17,17,17,17,17,17,17,16,17,17,17,17,17,17,17,17,17,16,17,17,17,17,17,17,16,17,17,17,17,17,17,17,16,17,17,17,17,17,17,17,17,17,17,17,16,17,17,18,16,17,17,17,16,17,17,17,17,17,17,17,16,17,17,16],"number_of_frames":120,"aperture_center_x":960,"aperture_center_y":540,"fixation_cross":true,"fixation_cross_width":15,"fixation_cross_height":15,"fixation_cross_color":"#111","fixation_cross_thickness":1,"border":true,"border_thickness":2,"border_color":"transparent","canvas_width":1920,"canvas_height":1080,"trial_type":"rdk","trial_index":52,"plugin_version":"2.0.0","time_elapsed":707004},{"rt":3912,"stimulus":"\n        <div class=\"response-container\">\n          <div class=\"response-instruction\">\n            <p>rotate the bar by using the left and right arrow keys.</p>\n            <p>when you are determined, press the Enter key.</p>\n          </div>\n          <div class=\"response-circle\">\n            <div class=\"response-fixation\"></div>\n            <div id=\"bar\" class=\"rotating-bar\"></div>\n          </div>\n        </div>\n      ","response":"Enter","trial_type":"html-keyboard-response","trial_index":53,"plugin_version":"2.1.0","time_elapsed":710917,"response_angle_css":332,"response_angle_rdk":118,"angular_error_target":-138,"angular_error_distractor":-18,"target_direction":256,"target_group":"white","reward_points":0},{"rt":null,"stimulus":"\n          <p style=\"color: #FF3333;\">Your reward: 0 points</p>\n        ","response":null,"trial_type":"html-keyboard-response","trial_index":54,"plugin_version":"2.1.0","time_elapsed":712931},{"rt":null,"stimulus":"<div class=\"fixation\" style=\"font-size: 60px;\">+</div>","response":null,"trial_type":"html-keyboard-response","trial_index":55,"plugin_version":"2.1.0","time_elapsed":713936},{"target_group":"black","condition_label":"B_H_vs_W_L_rep12","target_direction":310,"distractor_direction":71,"session_rotation":213,"rt":-1,"response":"","correct":false,"choices":"ALL_KEYS","correct_choice":["a"],"trial_duration":2000,"flip_timestamps":[],"response_ends_trial":false,"number_of_apertures":200,"number_of_dots":[1,1,1,1,1,1,1,1,1,1,1,1,1,1,1,1,1,1,1,1,1,1,1,1,1,1,1,1,1,1,1,1,1,1,1,1,1,1,1,1,1,1,1,1,1,1,1,1,1,1,1,1,1,1,1,1,1,1,1,1,1,1,1,1,1,1,1,1,1,1,1,1,1,1,1,1,1,1,1,1,1,1,1,1,1,1,1,1,1,1,1,1,1,1,1,1,1,1,1,1,1,1,1,1,1,1,1,1,1,1,1,1,1,1,1,1,1,1,1,1,1,1,1,1,1,1,1,1,1,1,1,1,1,1,1,1,1,1,1,1,1,1,1,1,1,1,1,1,1,1,1,1,1,1,1,1,1,1,1,1,1,1,1,1,1,1,1,1,1,1,1,1,1,1,1,1,1,1,1,1,1,1,1,1,1,1,1,1,1,1,1,1,1,1,1,1,1,1,1,1],"number_of_sets":1,"coherent_direction":[71,310,71,71,310,310,71,310,310,310,71,71,71,310,71,71,71,71,71,310,71,310,310,71,310,310,71,71,310,71,310,71,71,71,71,310,71,71,310,310,310,71,310,71,71,310,71,71,310,310,310,310,310,71,310,310,71,310,310,71,310,310,71,310,310,71,71,71,310,71,310,71,71,310,71,71,71,310,310,71,71,71,310,310,310,310,71,71,310,310,310,71,71,71,71,310,71,310,310,310,71,71,71,71,71,71,71,310,310,71,310,310,71,71,310,71,71,71,310,71,310,71,310,310,310,310,71,310,71,71,71,71,71,310,71,310,71,310,71,310,310,310,310,310,310,310,71,71,71,71,310,310,310,310,71,310,310,310,71,71,71,71,71,71,71,71,310,71,310,310,310,310,310,71,71,310,71,71,310,71,310,310,310,71,310,71,310,310,71,310,310,310,310,310,310,71,310,71,71,310],"coherence":1,"opposite_coherence":0,"dot_radius":2,"dot_side_length":1,"dot_life":-1,"move_distance":1,"aperture_width":300,"aperture_height":300,"dot_color":["white","black","white","white","black","black","white","black","black","black","white","white","white","black","white","white","white","white","white","black","white","black","black","white","black","black","white","white","black","white","black","white","white","white","white","black","white","white","black","black","black","white","black","white","white","black","white","white","black","black","black","black","black","white","black","black","white","black","black","white","black","black","white","black","black","white","white","white","black","white","black","white","white","black","white","white","white","black","black","white","white","white","black","black","black","black","white","white","black","black","black","white","white","white","white","black","white","black","black","black","white","white","white","white","white","white","white","black","black","white","black","black","white","white","black","white","white","white","black","white","black","white","black","black","black","black","white","black","white","white","white","white","white","black","white","black","white","black","white","black","black","black","black","black","black","black","white","white","white","white","black","black","black","black","white","black","black","black","white","white","white","white","white","white","white","white","black","white","black","black","black","black","black","white","white","black","white","white","black","white","black","black","black","white","black","white","black","black","white","black","black","black","black","black","black","white","black","white","white","black"],"dot_shape":"circle","background_color":"#AAA","RDK_type":3,"aperture_type":2,"reinsert_type":2,"frame_rate":16.85,"frame_rate_array":[13,18,15,17,17,17,17,17,17,16,16,17,17,17,17,17,17,16,17,17,17,17,17,17,17,17,17,18,16,16,16,17,17,17,17,17,17,17,17,17,17,17,17,17,16,17,17,17,17,17,16,17,17,17,17,17,17,17,17,17,17,17,17,16,17,17,17,17,17,17,17,16,17,16,17,17,17,17,17,17,17,17,17,17,17,17,17,17,16,17,17,17,17,17,17,16,17,17,17,17,17,17,17,17,17,16,17,17,17,17,17,17,17,17,17,17,17,17,17,17],"number_of_frames":120,"aperture_center_x":960,"aperture_center_y":540,"fixation_cross":true,"fixation_cross_width":15,"fixation_cross_height":15,"fixation_cross_color":"#111","fixation_cross_thickness":1,"border":true,"border_thickness":2,"border_color":"transparent","canvas_width":1920,"canvas_height":1080,"trial_type":"rdk","trial_index":56,"plugin_version":"2.0.0","time_elapsed":715940},{"rt":3935,"stimulus":"\n        <div class=\"response-container\">\n          <div class=\"response-instruction\">\n            <p>rotate the bar by using the left and right arrow keys.</p>\n            <p>when you are determined, press the Enter key.</p>\n          </div>\n          <div class=\"response-circle\">\n            <div class=\"response-fixation\"></div>\n            <div id=\"bar\" class=\"rotating-bar\"></div>\n          </div>\n        </div>\n      ","response":"Enter","trial_type":"html-keyboard-response","trial_index":57,"plugin_version":"2.1.0","time_elapsed":719877,"response_angle_css":149,"response_angle_rdk":301,"angular_error_target":-9,"angular_error_distractor":-130,"target_direction":310,"target_group":"black","reward_points":8},{"rt":null,"stimulus":"\n          <p style=\"color: #00FF00;\">Your reward: 8 points</p>\n        ","response":null,"trial_type":"html-keyboard-response","trial_index":58,"plugin_version":"2.1.0","time_elapsed":721892},{"rt":null,"stimulus":"<div class=\"fixation\" style=\"font-size: 60px;\">+</div>","response":null,"trial_type":"html-keyboard-response","trial_index":59,"plugin_version":"2.1.0","time_elapsed":722895},{"target_group":"white","condition_label":"W_H_vs_B_L_rep9","target_direction":241,"distractor_direction":133,"session_rotation":213,"rt":-1,"response":"","correct":false,"choices":"ALL_KEYS","correct_choice":["a"],"trial_duration":2000,"flip_timestamps":[],"response_ends_trial":false,"number_of_apertures":200,"number_of_dots":[1,1,1,1,1,1,1,1,1,1,1,1,1,1,1,1,1,1,1,1,1,1,1,1,1,1,1,1,1,1,1,1,1,1,1,1,1,1,1,1,1,1,1,1,1,1,1,1,1,1,1,1,1,1,1,1,1,1,1,1,1,1,1,1,1,1,1,1,1,1,1,1,1,1,1,1,1,1,1,1,1,1,1,1,1,1,1,1,1,1,1,1,1,1,1,1,1,1,1,1,1,1,1,1,1,1,1,1,1,1,1,1,1,1,1,1,1,1,1,1,1,1,1,1,1,1,1,1,1,1,1,1,1,1,1,1,1,1,1,1,1,1,1,1,1,1,1,1,1,1,1,1,1,1,1,1,1,1,1,1,1,1,1,1,1,1,1,1,1,1,1,1,1,1,1,1,1,1,1,1,1,1,1,1,1,1,1,1,1,1,1,1,1,1,1,1,1,1,1,1],"number_of_sets":1,"coherent_direction":[241,241,133,241,241,133,241,133,241,133,241,241,241,133,133,241,133,241,241,241,133,133,133,241,133,241,133,241,241,241,241,133,241,133,133,241,133,241,133,241,133,133,133,241,241,241,133,133,241,241,133,133,133,133,133,241,133,241,241,241,241,133,241,133,133,133,133,241,241,241,133,241,133,133,241,133,241,133,241,241,241,241,241,241,241,133,133,133,133,241,133,241,241,133,133,133,133,133,133,133,241,241,133,241,133,133,133,241,133,133,133,133,241,133,241,133,133,133,133,133,241,133,241,241,133,133,241,241,241,241,241,241,133,133,241,241,133,133,241,241,133,241,241,133,133,133,133,133,241,241,133,133,133,241,241,241,241,241,241,241,133,241,133,133,133,133,133,133,241,133,241,241,133,133,133,241,241,133,241,133,241,241,241,241,241,241,241,133,133,241,241,241,133,133,133,241,241,241,133,133],"coherence":1,"opposite_coherence":0,"dot_radius":2,"dot_side_length":1,"dot_life":-1,"move_distance":1,"aperture_width":300,"aperture_height":300,"dot_color":["white","white","black","white","white","black","white","black","white","black","white","white","white","black","black","white","black","white","white","white","black","black","black","white","black","white","black","white","white","white","white","black","white","black","black","white","black","white","black","white","black","black","black","white","white","white","black","black","white","white","black","black","black","black","black","white","black","white","white","white","white","black","white","black","black","black","black","white","white","white","black","white","black","black","white","black","white","black","white","white","white","white","white","white","white","black","black","black","black","white","black","white","white","black","black","black","black","black","black","black","white","white","black","white","black","black","black","white","black","black","black","black","white","black","white","black","black","black","black","black","white","black","white","white","black","black","white","white","white","white","white","white","black","black","white","white","black","black","white","white","black","white","white","black","black","black","black","black","white","white","black","black","black","white","white","white","white","white","white","white","black","white","black","black","black","black","black","black","white","black","white","white","black","black","black","white","white","black","white","black","white","white","white","white","white","white","white","black","black","white","white","white","black","black","black","white","white","white","black","black"],"dot_shape":"circle","background_color":"#AAA","RDK_type":3,"aperture_type":2,"reinsert_type":2,"frame_rate":16.65289256198347,"frame_rate_array":[4,14,17,17,17,16,17,16,17,17,17,17,17,17,18,16,17,17,17,17,16,16,17,17,17,16,17,16,17,18,16,16,17,17,18,15,17,17,17,17,16,17,17,16,16,17,17,17,17,17,17,17,17,16,17,17,17,17,17,17,17,16,17,17,17,17,17,16,17,17,17,16,17,16,17,17,17,17,16,17,16,17,17,17,17,17,15,16,17,17,17,16,17,17,17,18,16,17,17,17,17,17,16,17,17,17,17,17,16,17,17,17,17,17,17,16,17,18,16,17,16],"number_of_frames":121,"aperture_center_x":960,"aperture_center_y":540,"fixation_cross":true,"fixation_cross_width":15,"fixation_cross_height":15,"fixation_cross_color":"#111","fixation_cross_thickness":1,"border":true,"border_thickness":2,"border_color":"transparent","canvas_width":1920,"canvas_height":1080,"trial_type":"rdk","trial_index":60,"plugin_version":"2.0.0","time_elapsed":724903},{"rt":2314,"stimulus":"\n        <div class=\"response-container\">\n          <div class=\"response-instruction\">\n            <p>rotate the bar by using the left and right arrow keys.</p>\n            <p>when you are determined, press the Enter key.</p>\n          </div>\n          <div class=\"response-circle\">\n            <div class=\"response-fixation\"></div>\n            <div id=\"bar\" class=\"rotating-bar\"></div>\n          </div>\n        </div>\n      ","response":"Enter","trial_type":"html-keyboard-response","trial_index":61,"plugin_version":"2.1.0","time_elapsed":727218,"response_angle_css":318,"response_angle_rdk":132,"angular_error_target":-109,"angular_error_distractor":-1,"target_direction":241,"target_group":"white","reward_points":0},{"rt":null,"stimulus":"\n          <p style=\"color: #FF3333;\">Your reward: 0 points</p>\n        ","response":null,"trial_type":"html-keyboard-response","trial_index":62,"plugin_version":"2.1.0","time_elapsed":729228},{"rt":null,"stimulus":"<div class=\"fixation\" style=\"font-size: 60px;\">+</div>","response":null,"trial_type":"html-keyboard-response","trial_index":63,"plugin_version":"2.1.0","time_elapsed":730234},{"target_group":"black","condition_label":"B_H_vs_W_L_rep8","target_direction":304,"distractor_direction":69,"session_rotation":213,"rt":-1,"response":"","correct":false,"choices":"ALL_KEYS","correct_choice":["a"],"trial_duration":2000,"flip_timestamps":[],"response_ends_trial":false,"number_of_apertures":200,"number_of_dots":[1,1,1,1,1,1,1,1,1,1,1,1,1,1,1,1,1,1,1,1,1,1,1,1,1,1,1,1,1,1,1,1,1,1,1,1,1,1,1,1,1,1,1,1,1,1,1,1,1,1,1,1,1,1,1,1,1,1,1,1,1,1,1,1,1,1,1,1,1,1,1,1,1,1,1,1,1,1,1,1,1,1,1,1,1,1,1,1,1,1,1,1,1,1,1,1,1,1,1,1,1,1,1,1,1,1,1,1,1,1,1,1,1,1,1,1,1,1,1,1,1,1,1,1,1,1,1,1,1,1,1,1,1,1,1,1,1,1,1,1,1,1,1,1,1,1,1,1,1,1,1,1,1,1,1,1,1,1,1,1,1,1,1,1,1,1,1,1,1,1,1,1,1,1,1,1,1,1,1,1,1,1,1,1,1,1,1,1,1,1,1,1,1,1,1,1,1,1,1,1],"number_of_sets":1,"coherent_direction":[304,69,304,69,69,69,304,304,69,304,304,304,69,304,304,69,304,69,304,304,304,304,304,304,69,69,69,69,304,304,304,304,69,69,69,304,69,69,304,304,69,69,69,304,304,69,304,304,69,69,69,304,69,69,69,69,304,304,304,69,69,69,304,69,304,69,304,304,69,304,69,69,304,304,69,304,69,304,304,304,304,304,69,304,69,69,69,69,304,304,69,304,69,69,304,69,69,304,69,304,304,304,69,69,304,69,69,69,69,304,69,69,304,304,304,69,304,69,304,304,69,304,304,304,304,69,69,69,304,304,304,304,304,304,69,304,69,304,69,69,69,69,304,69,304,69,304,304,69,69,304,69,69,304,69,304,69,69,304,304,304,304,69,304,69,69,69,304,304,304,304,304,69,69,69,69,69,304,304,69,304,304,304,69,304,69,69,304,69,69,304,69,69,304,69,69,69,69,304,69],"coherence":1,"opposite_coherence":0,"dot_radius":2,"dot_side_length":1,"dot_life":-1,"move_distance":1,"aperture_width":300,"aperture_height":300,"dot_color":["black","white","black","white","white","white","black","black","white","black","black","black","white","black","black","white","black","white","black","black","black","black","black","black","white","white","white","white","black","black","black","black","white","white","white","black","white","white","black","black","white","white","white","black","black","white","black","black","white","white","white","black","white","white","white","white","black","black","black","white","white","white","black","white","black","white","black","black","white","black","white","white","black","black","white","black","white","black","black","black","black","black","white","black","white","white","white","white","black","black","white","black","white","white","black","white","white","black","white","black","black","black","white","white","black","white","white","white","white","black","white","white","black","black","black","white","black","white","black","black","white","black","black","black","black","white","white","white","black","black","black","black","black","black","white","black","white","black","white","white","white","white","black","white","black","white","black","black","white","white","black","white","white","black","white","black","white","white","black","black","black","black","white","black","white","white","white","black","black","black","black","black","white","white","white","white","white","black","black","white","black","black","black","white","black","white","white","black","white","white","black","white","white","black","white","white","white","white","black","white"],"dot_shape":"circle","background_color":"#AAA","RDK_type":3,"aperture_type":2,"reinsert_type":2,"frame_rate":16.766666666666666,"frame_rate_array":[8,16,17,18,16,17,17,16,17,17,17,17,17,17,17,17,17,17,18,15,16,17,17,17,17,17,17,16,17,17,17,17,17,16,17,17,17,16,17,17,16,17,17,17,16,17,16,17,17,17,17,17,17,17,17,17,16,17,17,17,17,17,17,17,18,15,17,16,17,17,17,17,17,17,17,17,17,16,17,17,17,17,17,17,17,17,17,17,16,16,17,17,17,17,17,17,17,17,16,17,17,17,17,17,17,17,17,16,17,17,17,17,17,17,17,17,17,17,16,17],"number_of_frames":120,"aperture_center_x":960,"aperture_center_y":540,"fixation_cross":true,"fixation_cross_width":15,"fixation_cross_height":15,"fixation_cross_color":"#111","fixation_cross_thickness":1,"border":true,"border_thickness":2,"border_color":"transparent","canvas_width":1920,"canvas_height":1080,"trial_type":"rdk","trial_index":64,"plugin_version":"2.0.0","time_elapsed":732242},{"rt":2621,"stimulus":"\n        <div class=\"response-container\">\n          <div class=\"response-instruction\">\n            <p>rotate the bar by using the left and right arrow keys.</p>\n            <p>when you are determined, press the Enter key.</p>\n          </div>\n          <div class=\"response-circle\">\n            <div class=\"response-fixation\"></div>\n            <div id=\"bar\" class=\"rotating-bar\"></div>\n          </div>\n        </div>\n      ","response":"Enter","trial_type":"html-keyboard-response","trial_index":65,"plugin_version":"2.1.0","time_elapsed":734865,"response_angle_css":149,"response_angle_rdk":301,"angular_error_target":-3,"angular_error_distractor":-128,"target_direction":304,"target_group":"black","reward_points":9},{"rt":null,"stimulus":"\n          <p style=\"color: #00FF00;\">Your reward: 9 points</p>\n        ","response":null,"trial_type":"html-keyboard-response","trial_index":66,"plugin_version":"2.1.0","time_elapsed":736882},{"rt":null,"stimulus":"<div class=\"fixation\" style=\"font-size: 60px;\">+</div>","response":null,"trial_type":"html-keyboard-response","trial_index":67,"plugin_version":"2.1.0","time_elapsed":737896},{"target_group":"black","condition_label":"B_H_vs_W_L_rep6","target_direction":311,"distractor_direction":45,"session_rotation":213,"rt":-1,"response":"","correct":false,"choices":"ALL_KEYS","correct_choice":["a"],"trial_duration":2000,"flip_timestamps":[],"response_ends_trial":false,"number_of_apertures":200,"number_of_dots":[1,1,1,1,1,1,1,1,1,1,1,1,1,1,1,1,1,1,1,1,1,1,1,1,1,1,1,1,1,1,1,1,1,1,1,1,1,1,1,1,1,1,1,1,1,1,1,1,1,1,1,1,1,1,1,1,1,1,1,1,1,1,1,1,1,1,1,1,1,1,1,1,1,1,1,1,1,1,1,1,1,1,1,1,1,1,1,1,1,1,1,1,1,1,1,1,1,1,1,1,1,1,1,1,1,1,1,1,1,1,1,1,1,1,1,1,1,1,1,1,1,1,1,1,1,1,1,1,1,1,1,1,1,1,1,1,1,1,1,1,1,1,1,1,1,1,1,1,1,1,1,1,1,1,1,1,1,1,1,1,1,1,1,1,1,1,1,1,1,1,1,1,1,1,1,1,1,1,1,1,1,1,1,1,1,1,1,1,1,1,1,1,1,1,1,1,1,1,1,1],"number_of_sets":1,"coherent_direction":[311,45,45,45,45,311,311,311,311,45,45,311,311,45,311,311,45,45,45,45,311,311,311,311,45,45,45,45,311,311,311,45,45,311,311,311,45,45,45,45,45,45,45,311,45,311,311,311,45,311,311,45,45,311,311,311,45,45,311,45,311,45,45,311,45,311,45,45,45,45,311,311,45,45,45,45,45,45,45,45,45,311,45,45,311,45,311,45,311,311,311,45,311,45,45,45,311,311,45,45,311,311,311,45,311,45,311,311,311,45,311,311,45,45,311,311,45,311,311,45,311,45,311,45,311,45,45,311,311,45,311,311,311,311,311,45,311,45,311,45,311,311,45,45,311,311,45,311,45,45,311,311,311,45,45,45,311,45,45,45,45,311,311,311,311,311,45,311,45,45,311,311,45,311,311,45,311,45,311,45,311,311,45,311,45,311,45,45,311,311,311,311,45,45,45,45,311,311,45,311],"coherence":1,"opposite_coherence":0,"dot_radius":2,"dot_side_length":1,"dot_life":-1,"move_distance":1,"aperture_width":300,"aperture_height":300,"dot_color":["black","white","white","white","white","black","black","black","black","white","white","black","black","white","black","black","white","white","white","white","black","black","black","black","white","white","white","white","black","black","black","white","white","black","black","black","white","white","white","white","white","white","white","black","white","black","black","black","white","black","black","white","white","black","black","black","white","white","black","white","black","white","white","black","white","black","white","white","white","white","black","black","white","white","white","white","white","white","white","white","white","black","white","white","black","white","black","white","black","black","black","white","black","white","white","white","black","black","white","white","black","black","black","white","black","white","black","black","black","white","black","black","white","white","black","black","white","black","black","white","black","white","black","white","black","white","white","black","black","white","black","black","black","black","black","white","black","white","black","white","black","black","white","white","black","black","white","black","white","white","black","black","black","white","white","white","black","white","white","white","white","black","black","black","black","black","white","black","white","white","black","black","white","black","black","white","black","white","black","white","black","black","white","black","white","black","white","white","black","black","black","black","white","white","white","white","black","black","white","black"],"dot_shape":"circle","background_color":"#AAA","RDK_type":3,"aperture_type":2,"reinsert_type":2,"frame_rate":16.766666666666666,"frame_rate_array":[9,17,17,17,16,17,17,17,16,17,17,17,17,16,17,16,17,17,17,17,17,17,17,17,17,17,16,17,17,17,17,17,17,17,17,17,17,17,18,15,17,16,17,17,17,17,16,17,17,17,17,17,17,17,16,17,17,17,17,17,17,16,17,17,16,16,17,16,17,17,17,17,17,17,17,16,17,17,17,17,17,16,17,17,17,17,17,17,17,17,17,17,17,16,17,17,17,17,17,17,17,16,17,17,16,17,17,17,17,17,16,17,17,17,17,17,17,16,17,17],"number_of_frames":120,"aperture_center_x":960,"aperture_center_y":540,"fixation_cross":true,"fixation_cross_width":15,"fixation_cross_height":15,"fixation_cross_color":"#111","fixation_cross_thickness":1,"border":true,"border_thickness":2,"border_color":"transparent","canvas_width":1920,"canvas_height":1080,"trial_type":"rdk","trial_index":68,"plugin_version":"2.0.0","time_elapsed":739905},{"rt":4922,"stimulus":"\n        <div class=\"response-container\">\n          <div class=\"response-instruction\">\n            <p>rotate the bar by using the left and right arrow keys.</p>\n            <p>when you are determined, press the Enter key.</p>\n          </div>\n          <div class=\"response-circle\">\n            <div class=\"response-fixation\"></div>\n            <div id=\"bar\" class=\"rotating-bar\"></div>\n          </div>\n        </div>\n      ","response":"Enter","trial_type":"html-keyboard-response","trial_index":69,"plugin_version":"2.1.0","time_elapsed":744829,"response_angle_css":517,"response_angle_rdk":293,"angular_error_target":-18,"angular_error_distractor":-112,"target_direction":311,"target_group":"black","reward_points":6},{"rt":null,"stimulus":"\n          <p style=\"color: #00FF00;\">Your reward: 6 points</p>\n        ","response":null,"trial_type":"html-keyboard-response","trial_index":70,"plugin_version":"2.1.0","time_elapsed":746836},{"rt":null,"stimulus":"<div class=\"fixation\" style=\"font-size: 60px;\">+</div>","response":null,"trial_type":"html-keyboard-response","trial_index":71,"plugin_version":"2.1.0","time_elapsed":747842},{"target_group":"white","condition_label":"W_H_vs_B_L_rep17","target_direction":257,"distractor_direction":143,"session_rotation":213,"rt":-1,"response":"","correct":false,"choices":"ALL_KEYS","correct_choice":["a"],"trial_duration":2000,"flip_timestamps":[],"response_ends_trial":false,"number_of_apertures":200,"number_of_dots":[1,1,1,1,1,1,1,1,1,1,1,1,1,1,1,1,1,1,1,1,1,1,1,1,1,1,1,1,1,1,1,1,1,1,1,1,1,1,1,1,1,1,1,1,1,1,1,1,1,1,1,1,1,1,1,1,1,1,1,1,1,1,1,1,1,1,1,1,1,1,1,1,1,1,1,1,1,1,1,1,1,1,1,1,1,1,1,1,1,1,1,1,1,1,1,1,1,1,1,1,1,1,1,1,1,1,1,1,1,1,1,1,1,1,1,1,1,1,1,1,1,1,1,1,1,1,1,1,1,1,1,1,1,1,1,1,1,1,1,1,1,1,1,1,1,1,1,1,1,1,1,1,1,1,1,1,1,1,1,1,1,1,1,1,1,1,1,1,1,1,1,1,1,1,1,1,1,1,1,1,1,1,1,1,1,1,1,1,1,1,1,1,1,1,1,1,1,1,1,1],"number_of_sets":1,"coherent_direction":[257,143,143,143,143,257,257,143,257,257,143,257,143,257,257,257,257,143,257,143,143,257,143,257,257,143,257,257,143,143,257,143,143,257,257,143,257,257,143,257,143,257,257,143,257,257,257,257,257,257,143,257,257,143,143,257,257,257,257,143,143,143,143,257,143,143,257,257,143,257,257,143,143,257,143,143,143,143,257,257,143,143,257,143,257,143,257,143,143,143,257,257,143,257,257,257,257,143,257,257,143,143,143,257,143,143,143,143,257,143,257,257,257,257,257,143,257,143,143,143,257,257,143,257,143,143,143,143,257,143,257,257,257,143,257,143,257,257,143,143,257,257,143,257,143,257,143,143,143,143,257,143,143,143,257,143,143,143,257,257,143,143,257,143,143,257,257,257,143,257,143,143,143,143,257,257,143,143,257,257,257,143,143,257,143,257,257,143,257,257,143,143,143,257,143,143,143,257,257,257],"coherence":1,"opposite_coherence":0,"dot_radius":2,"dot_side_length":1,"dot_life":-1,"move_distance":1,"aperture_width":300,"aperture_height":300,"dot_color":["white","black","black","black","black","white","white","black","white","white","black","white","black","white","white","white","white","black","white","black","black","white","black","white","white","black","white","white","black","black","white","black","black","white","white","black","white","white","black","white","black","white","white","black","white","white","white","white","white","white","black","white","white","black","black","white","white","white","white","black","black","black","black","white","black","black","white","white","black","white","white","black","black","white","black","black","black","black","white","white","black","black","white","black","white","black","white","black","black","black","white","white","black","white","white","white","white","black","white","white","black","black","black","white","black","black","black","black","white","black","white","white","white","white","white","black","white","black","black","black","white","white","black","white","black","black","black","black","white","black","white","white","white","black","white","black","white","white","black","black","white","white","black","white","black","white","black","black","black","black","white","black","black","black","white","black","black","black","white","white","black","black","white","black","black","white","white","white","black","white","black","black","black","black","white","white","black","black","white","white","white","black","black","white","black","white","white","black","white","white","black","black","black","white","black","black","black","white","white","white"],"dot_shape":"circle","background_color":"#AAA","RDK_type":3,"aperture_type":2,"reinsert_type":2,"frame_rate":16.793388429752067,"frame_rate_array":[7,17,17,17,17,17,17,17,17,17,17,17,17,16,17,17,16,17,17,17,17,17,17,17,17,17,17,17,17,17,17,16,17,17,17,17,17,17,16,17,17,17,17,16,17,17,17,17,16,17,17,17,17,17,17,16,17,17,17,16,17,17,16,17,17,16,17,16,17,17,17,17,17,17,17,17,17,17,17,17,17,16,17,17,17,17,17,17,17,17,17,17,17,17,17,16,17,17,17,17,17,17,17,17,17,17,17,17,17,17,17,17,17,17,17,16,16,17,17,17,17],"number_of_frames":121,"aperture_center_x":960,"aperture_center_y":540,"fixation_cross":true,"fixation_cross_width":15,"fixation_cross_height":15,"fixation_cross_color":"#111","fixation_cross_thickness":1,"border":true,"border_thickness":2,"border_color":"transparent","canvas_width":1920,"canvas_height":1080,"trial_type":"rdk","trial_index":72,"plugin_version":"2.0.0","time_elapsed":749858},{"rt":2663,"stimulus":"\n        <div class=\"response-container\">\n          <div class=\"response-instruction\">\n            <p>rotate the bar by using the left and right arrow keys.</p>\n            <p>when you are determined, press the Enter key.</p>\n          </div>\n          <div class=\"response-circle\">\n            <div class=\"response-fixation\"></div>\n            <div id=\"bar\" class=\"rotating-bar\"></div>\n          </div>\n        </div>\n      ","response":"Enter","trial_type":"html-keyboard-response","trial_index":73,"plugin_version":"2.1.0","time_elapsed":752522,"response_angle_css":-59,"response_angle_rdk":149,"angular_error_target":-108,"angular_error_distractor":6,"target_direction":257,"target_group":"white","reward_points":0},{"rt":null,"stimulus":"\n          <p style=\"color: #FF3333;\">Your reward: 0 points</p>\n        ","response":null,"trial_type":"html-keyboard-response","trial_index":74,"plugin_version":"2.1.0","time_elapsed":754530},{"rt":null,"stimulus":"<div class=\"fixation\" style=\"font-size: 60px;\">+</div>","response":null,"trial_type":"html-keyboard-response","trial_index":75,"plugin_version":"2.1.0","time_elapsed":755535},{"target_group":"white","condition_label":"W_H_vs_B_L_rep4","target_direction":231,"distractor_direction":136,"session_rotation":213,"rt":-1,"response":"","correct":false,"choices":"ALL_KEYS","correct_choice":["a"],"trial_duration":2000,"flip_timestamps":[],"response_ends_trial":false,"number_of_apertures":200,"number_of_dots":[1,1,1,1,1,1,1,1,1,1,1,1,1,1,1,1,1,1,1,1,1,1,1,1,1,1,1,1,1,1,1,1,1,1,1,1,1,1,1,1,1,1,1,1,1,1,1,1,1,1,1,1,1,1,1,1,1,1,1,1,1,1,1,1,1,1,1,1,1,1,1,1,1,1,1,1,1,1,1,1,1,1,1,1,1,1,1,1,1,1,1,1,1,1,1,1,1,1,1,1,1,1,1,1,1,1,1,1,1,1,1,1,1,1,1,1,1,1,1,1,1,1,1,1,1,1,1,1,1,1,1,1,1,1,1,1,1,1,1,1,1,1,1,1,1,1,1,1,1,1,1,1,1,1,1,1,1,1,1,1,1,1,1,1,1,1,1,1,1,1,1,1,1,1,1,1,1,1,1,1,1,1,1,1,1,1,1,1,1,1,1,1,1,1,1,1,1,1,1,1],"number_of_sets":1,"coherent_direction":[231,136,231,231,231,136,136,231,231,231,136,231,136,136,136,231,231,231,136,231,231,231,231,231,231,231,231,231,231,231,136,136,136,231,136,231,136,231,231,136,231,231,231,136,231,136,136,231,231,231,231,231,136,136,231,136,231,136,231,231,231,231,136,136,231,136,231,136,136,136,231,231,231,231,231,136,136,136,136,231,231,231,231,136,136,136,231,231,136,136,231,231,231,136,231,231,136,136,231,136,136,136,231,136,136,136,136,136,136,231,136,231,231,136,136,231,136,231,136,231,136,231,136,231,231,136,231,231,136,231,136,231,136,136,136,136,136,136,231,136,231,136,231,136,136,136,136,231,136,136,136,136,136,231,136,231,136,231,136,136,136,136,136,136,136,136,136,231,231,136,136,136,231,231,231,231,231,231,231,231,231,136,136,231,136,136,136,231,231,136,231,231,231,136,231,136,136,231,136,136],"coherence":1,"opposite_coherence":0,"dot_radius":2,"dot_side_length":1,"dot_life":-1,"move_distance":1,"aperture_width":300,"aperture_height":300,"dot_color":["white","black","white","white","white","black","black","white","white","white","black","white","black","black","black","white","white","white","black","white","white","white","white","white","white","white","white","white","white","white","black","black","black","white","black","white","black","white","white","black","white","white","white","black","white","black","black","white","white","white","white","white","black","black","white","black","white","black","white","white","white","white","black","black","white","black","white","black","black","black","white","white","white","white","white","black","black","black","black","white","white","white","white","black","black","black","white","white","black","black","white","white","white","black","white","white","black","black","white","black","black","black","white","black","black","black","black","black","black","white","black","white","white","black","black","white","black","white","black","white","black","white","black","white","white","black","white","white","black","white","black","white","black","black","black","black","black","black","white","black","white","black","white","black","black","black","black","white","black","black","black","black","black","white","black","white","black","white","black","black","black","black","black","black","black","black","black","white","white","black","black","black","white","white","white","white","white","white","white","white","white","black","black","white","black","black","black","white","white","black","white","white","white","black","white","black","black","white","black","black"],"dot_shape":"circle","background_color":"#AAA","RDK_type":3,"aperture_type":2,"reinsert_type":2,"frame_rate":16.866666666666667,"frame_rate_array":[14,15,17,17,17,17,16,17,17,17,17,17,17,17,17,17,17,17,17,17,17,17,16,17,17,17,17,16,17,17,17,17,17,17,17,17,16,17,17,17,17,17,17,17,17,17,17,17,17,17,17,17,17,16,17,17,17,17,17,17,17,16,17,17,17,17,17,17,17,17,17,17,16,17,17,17,16,17,17,17,17,17,17,17,17,17,17,17,17,17,17,17,16,17,17,17,17,17,17,17,17,17,17,17,16,17,17,17,17,17,16,17,17,17,17,17,17,17,17,17],"number_of_frames":120,"aperture_center_x":960,"aperture_center_y":540,"fixation_cross":true,"fixation_cross_width":15,"fixation_cross_height":15,"fixation_cross_color":"#111","fixation_cross_thickness":1,"border":true,"border_thickness":2,"border_color":"transparent","canvas_width":1920,"canvas_height":1080,"trial_type":"rdk","trial_index":76,"plugin_version":"2.0.0","time_elapsed":757539},{"rt":4133,"stimulus":"\n        <div class=\"response-container\">\n          <div class=\"response-instruction\">\n            <p>rotate the bar by using the left and right arrow keys.</p>\n            <p>when you are determined, press the Enter key.</p>\n          </div>\n          <div class=\"response-circle\">\n            <div class=\"response-fixation\"></div>\n            <div id=\"bar\" class=\"rotating-bar\"></div>\n          </div>\n        </div>\n      ","response":"Enter","trial_type":"html-keyboard-response","trial_index":77,"plugin_version":"2.1.0","time_elapsed":761674,"response_angle_css":157,"response_angle_rdk":293,"angular_error_target":62,"angular_error_distractor":157,"target_direction":231,"target_group":"white","reward_points":0},{"rt":null,"stimulus":"\n          <p style=\"color: #FF3333;\">Your reward: 0 points</p>\n        ","response":null,"trial_type":"html-keyboard-response","trial_index":78,"plugin_version":"2.1.0","time_elapsed":763676},{"rt":null,"stimulus":"<div class=\"fixation\" style=\"font-size: 60px;\">+</div>","response":null,"trial_type":"html-keyboard-response","trial_index":79,"plugin_version":"2.1.0","time_elapsed":764683},{"target_group":"white","condition_label":"W_H_vs_B_L_rep22","target_direction":219,"distractor_direction":123,"session_rotation":213,"rt":-1,"response":"","correct":false,"choices":"ALL_KEYS","correct_choice":["a"],"trial_duration":2000,"flip_timestamps":[],"response_ends_trial":false,"number_of_apertures":200,"number_of_dots":[1,1,1,1,1,1,1,1,1,1,1,1,1,1,1,1,1,1,1,1,1,1,1,1,1,1,1,1,1,1,1,1,1,1,1,1,1,1,1,1,1,1,1,1,1,1,1,1,1,1,1,1,1,1,1,1,1,1,1,1,1,1,1,1,1,1,1,1,1,1,1,1,1,1,1,1,1,1,1,1,1,1,1,1,1,1,1,1,1,1,1,1,1,1,1,1,1,1,1,1,1,1,1,1,1,1,1,1,1,1,1,1,1,1,1,1,1,1,1,1,1,1,1,1,1,1,1,1,1,1,1,1,1,1,1,1,1,1,1,1,1,1,1,1,1,1,1,1,1,1,1,1,1,1,1,1,1,1,1,1,1,1,1,1,1,1,1,1,1,1,1,1,1,1,1,1,1,1,1,1,1,1,1,1,1,1,1,1,1,1,1,1,1,1,1,1,1,1,1,1],"number_of_sets":1,"coherent_direction":[219,123,123,123,219,219,123,219,123,219,123,123,123,219,123,123,219,123,219,219,123,219,219,123,123,123,219,219,219,123,219,219,219,123,219,123,219,123,219,123,123,123,123,123,219,219,219,123,219,123,123,123,219,219,123,219,219,123,219,219,219,123,123,219,219,123,123,123,123,123,219,123,219,219,219,219,123,219,123,219,123,123,219,219,123,123,123,219,219,219,123,219,123,123,219,123,219,219,219,123,219,219,123,123,219,123,219,219,123,123,219,123,219,219,123,219,123,123,219,123,219,123,123,123,219,123,219,219,219,123,219,219,123,219,219,123,123,123,123,123,219,219,219,123,219,219,123,123,123,219,123,219,123,219,219,219,123,219,123,123,219,123,123,123,123,123,123,219,219,219,123,123,219,219,123,123,219,219,219,219,123,219,219,219,219,123,123,123,123,219,123,123,219,219,219,123,219,219,123,123],"coherence":1,"opposite_coherence":0,"dot_radius":2,"dot_side_length":1,"dot_life":-1,"move_distance":1,"aperture_width":300,"aperture_height":300,"dot_color":["white","black","black","black","white","white","black","white","black","white","black","black","black","white","black","black","white","black","white","white","black","white","white","black","black","black","white","white","white","black","white","white","white","black","white","black","white","black","white","black","black","black","black","black","white","white","white","black","white","black","black","black","white","white","black","white","white","black","white","white","white","black","black","white","white","black","black","black","black","black","white","black","white","white","white","white","black","white","black","white","black","black","white","white","black","black","black","white","white","white","black","white","black","black","white","black","white","white","white","black","white","white","black","black","white","black","white","white","black","black","white","black","white","white","black","white","black","black","white","black","white","black","black","black","white","black","white","white","white","black","white","white","black","white","white","black","black","black","black","black","white","white","white","black","white","white","black","black","black","white","black","white","black","white","white","white","black","white","black","black","white","black","black","black","black","black","black","white","white","white","bla