[{"rt":21993,"stimulus":"Welcome to the experiment. Press any key to begin.","response":" ","trial_type":"html-keyboard-response","trial_index":0,"plugin_version":"2.1.0","time_elapsed":22000},{"rt":142159,"stimulus":"\n        <div class=\"instructions-container\">\n          <h2>Instructions</h2>\n\n          <p>\n          In this experiment, you will see <strong>two Random Dot Kinematograms (RDKs)</strong> displayed simultaneously.\n          </p>\n\n          <p>\n          An RDK is a visual stimulus consisting of many small dots that move coherently in a single direction. \n          In this experiment, the dots will be either <strong>white</strong> or <strong>black</strong> \n          (see the short demo below for an example of an RDK stimulus).\n          </p>\n\n          <p>\n          On each trial, the two RDKs will move in different directions. \n          Your task is to decide <strong>which RDK appears to contain more dots</strong>.\n          </p>\n\n          <p>\n          The RDK that you judge to have more dots is called the <strong>target RDK</strong>. \n          For example, if the white RDK appears to have more dots than the black RDK, \n          you should report the motion direction of the white RDK.\n          </p>\n\n          <p>\n          After viewing the RDKs, you will rotate a bar to indicate the perceived direction of the target RDK \n          using the <strong>left</strong> and <strong>right arrow keys</strong>. \n          Press <strong>Enter</strong> when you are satisfied with your response.\n          </p>\n\n          <p>\n          You will receive points based on the <strong>accuracy of your response</strong>, \n          and your final <strong>bonus reward</strong> may depend on your overall performance. \n          Please try to respond as accurately as possible.\n          </p>\n\n          <p>\n          You will first complete <strong>three practice trials</strong>. \n          Press the <strong>Enter</strong> key to start the practice phase.\n          </p>\n\n          <canvas id=\"instruction-demo-rdk\" width=\"300\" height=\"300\"style=\"display:block;margin:12px auto; border-radius: 50%;\"></canvas>\n        </div>\n      ","response":"Enter","trial_type":"html-keyboard-response","trial_index":1,"plugin_version":"2.1.0","time_elapsed":164165},{"rt":null,"stimulus":"<div class=\"fixation\" style=\"font-size: 60px;\">+</div>","response":null,"trial_type":"html-keyboard-response","trial_index":2,"plugin_version":"2.1.0","time_elapsed":165179},{"target_group":"black","target_index":1,"condition_label":"B_H_vs_W_L","rt":-1,"response":"","correct":false,"choices":"ALL_KEYS","correct_choice":["a"],"trial_duration":2000,"flip_timestamps":[],"response_ends_trial":false,"number_of_apertures":2,"number_of_dots":[50,100],"number_of_sets":1,"coherent_direction":[10,100],"coherence":1,"opposite_coherence":0,"dot_radius":2,"dot_side_length":1,"dot_life":-1,"move_distance":1,"aperture_width":300,"aperture_height":300,"dot_color":["white","black"],"dot_shape":"circle","background_color":"#AAA","RDK_type":3,"aperture_type":2,"reinsert_type":2,"frame_rate":16.638655462184875,"frame_rate_array":[5,7,39,9,17,19,15,17,16,17,17,17,16,17,16,17,17,16,16,17,16,17,16,17,17,17,17,17,16,17,16,17,17,17,17,17,17,17,16,17,17,17,16,17,17,17,17,16,17,17,16,17,17,16,17,16,17,17,17,16,17,16,17,17,17,17,16,17,17,16,17,16,17,16,17,17,17,16,17,17,17,16,16,17,17,17,16,17,17,16,17,17,17,17,17,16,18,16,17,16,17,17,17,16,17,17,16,17,16,17,17,17,16,17,18,15,16,17,16],"number_of_frames":119,"aperture_center_x":683,"aperture_center_y":384,"fixation_cross":true,"fixation_cross_width":15,"fixation_cross_height":15,"fixation_cross_color":"#111","fixation_cross_thickness":1,"border":true,"border_thickness":2,"border_color":"transparent","canvas_width":1366,"canvas_height":768,"trial_type":"rdk","trial_index":3,"plugin_version":"2.0.0","time_elapsed":167193,"target_direction":100,"distractor_direction":10},{"rt":18661,"stimulus":"\n        <div class=\"response-container\">\n          <div class=\"response-instruction\">\n            <p>rotate the bar by using the left and right arrow keys.</p>\n            <p>when you are determined, press the Enter key.</p>\n          </div>\n          <div class=\"response-circle\">\n            <div class=\"response-fixation\"></div>\n            <div id=\"bar\" class=\"rotating-bar\"></div>\n          </div>\n        </div>\n      ","response":"Enter","trial_type":"html-keyboard-response","trial_index":4,"plugin_version":"2.1.0","time_elapsed":185856,"response_angle_css":171,"response_angle_rdk":279,"angular_error_target":179,"angular_error_distractor":-91,"target_direction":100,"target_group":"black","reward_points":0},{"rt":null,"stimulus":"\n          <p style=\"color: #FF3333;\">Your reward: 0 points</p>\n        ","response":null,"trial_type":"html-keyboard-response","trial_index":5,"plugin_version":"2.1.0","time_elapsed":187860},{"rt":null,"stimulus":"<div class=\"fixation\" style=\"font-size: 60px;\">+</div>","response":null,"trial_type":"html-keyboard-response","trial_index":6,"plugin_version":"2.1.0","time_elapsed":188865},{"target_group":"white","target_index":0,"condition_label":"W_H_vs_B_L","rt":-1,"response":"","correct":false,"choices":"ALL_KEYS","correct_choice":["a"],"trial_duration":2000,"flip_timestamps":[],"response_ends_trial":false,"number_of_apertures":2,"number_of_dots":[100,50],"number_of_sets":1,"coherent_direction":[150,30],"coherence":1,"opposite_coherence":0,"dot_radius":2,"dot_side_length":1,"dot_life":-1,"move_distance":1,"aperture_width":300,"aperture_height":300,"dot_color":["white","black"],"dot_shape":"circle","background_color":"#AAA","RDK_type":3,"aperture_type":2,"reinsert_type":2,"frame_rate":16.65546218487395,"frame_rate_array":[5,15,17,16,17,17,17,16,17,16,17,17,17,16,17,17,17,17,17,16,16,17,17,17,17,16,17,17,17,17,17,17,16,17,17,17,17,17,17,17,18,16,16,17,17,17,17,16,17,16,17,17,17,17,17,16,17,17,17,17,17,17,16,16,17,17,16,17,16,17,17,16,17,17,17,16,17,17,17,17,17,16,17,17,17,17,17,17,17,17,17,16,17,17,17,17,17,17,16,17,17,18,15,17,16,17,16,17,16,17,17,16,17,17,16,17,17,17,17],"number_of_frames":119,"aperture_center_x":683,"aperture_center_y":384,"fixation_cross":true,"fixation_cross_width":15,"fixation_cross_height":15,"fixation_cross_color":"#111","fixation_cross_thickness":1,"border":true,"border_thickness":2,"border_color":"transparent","canvas_width":1366,"canvas_height":768,"trial_type":"rdk","trial_index":7,"plugin_version":"2.0.0","time_elapsed":190872,"target_direction":150,"distractor_direction":30},{"rt":2952,"stimulus":"\n        <div class=\"response-container\">\n          <div class=\"response-instruction\">\n            <p>rotate the bar by using the left and right arrow keys.</p>\n            <p>when you are determined, press the Enter key.</p>\n          </div>\n          <div class=\"response-circle\">\n            <div class=\"response-fixation\"></div>\n            <div id=\"bar\" class=\"rotating-bar\"></div>\n          </div>\n        </div>\n      ","response":"Enter","trial_type":"html-keyboard-response","trial_index":8,"plugin_version":"2.1.0","time_elapsed":193827,"response_angle_css":327,"response_angle_rdk":123,"angular_error_target":-27,"angular_error_distractor":93,"target_direction":150,"target_group":"white","reward_points":4},{"rt":null,"stimulus":"\n          <p style=\"color: #00FF00;\">Your reward: 4 points</p>\n        ","response":null,"trial_type":"html-keyboard-response","trial_index":9,"plugin_version":"2.1.0","time_elapsed":195837},{"rt":null,"stimulus":"<div class=\"fixation\" style=\"font-size: 60px;\">+</div>","response":null,"trial_type":"html-keyboard-response","trial_index":10,"plugin_version":"2.1.0","time_elapsed":196844},{"target_group":"black","target_index":1,"condition_label":"B_H_vs_W_L","rt":-1,"response":"","correct":false,"choices":"ALL_KEYS","correct_choice":["a"],"trial_duration":2000,"flip_timestamps":[],"response_ends_trial":false,"number_of_apertures":2,"number_of_dots":[50,100],"number_of_sets":1,"coherent_direction":[270,180],"coherence":1,"opposite_coherence":0,"dot_radius":2,"dot_side_length":1,"dot_life":-1,"move_distance":1,"aperture_width":300,"aperture_height":300,"dot_color":["white","black"],"dot_shape":"circle","background_color":"#AAA","RDK_type":3,"aperture_type":2,"reinsert_type":2,"frame_rate":16.708333333333332,"frame_rate_array":[8,17,17,17,17,16,17,17,16,17,17,17,17,17,17,17,16,17,17,16,17,17,17,17,17,17,17,17,17,17,17,16,17,17,17,17,17,17,17,17,16,16,17,17,16,17,16,17,16,16,17,17,17,17,17,17,17,17,17,17,17,17,17,16,17,17,16,17,17,17,16,17,17,17,17,17,16,17,17,17,17,16,17,16,17,17,17,16,17,17,17,17,16,17,17,17,16,17,16,17,17,17,17,17,17,16,17,17,16,17,16,17,16,17,17,17,16,17,17,17],"number_of_frames":120,"aperture_center_x":683,"aperture_center_y":384,"fixation_cross":true,"fixation_cross_width":15,"fixation_cross_height":15,"fixation_cross_color":"#111","fixation_cross_thickness":1,"border":true,"border_thickness":2,"border_color":"transparent","canvas_width":1366,"canvas_height":768,"trial_type":"rdk","trial_index":11,"plugin_version":"2.0.0","time_elapsed":198853,"target_direction":180,"distractor_direction":270},{"rt":8112,"stimulus":"\n        <div class=\"response-container\">\n          <div class=\"response-instruction\">\n            <p>rotate the bar by using the left and right arrow keys.</p>\n            <p>when you are determined, press the Enter key.</p>\n          </div>\n          <div class=\"response-circle\">\n            <div class=\"response-fixation\"></div>\n            <div id=\"bar\" class=\"rotating-bar\"></div>\n          </div>\n        </div>\n      ","response":"Enter","trial_type":"html-keyboard-response","trial_index":12,"plugin_version":"2.1.0","time_elapsed":206967,"response_angle_css":-58,"response_angle_rdk":148,"angular_error_target":-32,"angular_error_distractor":-122,"target_direction":180,"target_group":"black","reward_points":3},{"rt":null,"stimulus":"\n          <p style=\"color: #00FF00;\">Your reward: 3 points</p>\n        ","response":null,"trial_type":"html-keyboard-response","trial_index":13,"plugin_version":"2.1.0","time_elapsed":208982},{"rt":8201,"stimulus":"\n        <div class=\"instructions-container\">\n          <h2>End of Practice</h2>\n          <p>You have completed the practice trials.</p>\n          <p>Press <strong>Enter</strong> key to begin the main experiment.</p>\n        </div>\n      ","response":"Enter","trial_type":"html-keyboard-response","trial_index":14,"plugin_version":"2.1.0","time_elapsed":217184},{"rt":null,"stimulus":"<div class=\"fixation\" style=\"font-size: 60px;\">+</div>","response":null,"trial_type":"html-keyboard-response","trial_index":15,"plugin_version":"2.1.0","time_elapsed":218190},{"target_group":"white","condition_label":"W_H_vs_B_L_rep21","target_direction":139,"distractor_direction":17,"session_rotation":98,"rt":-1,"response":"","correct":false,"choices":"ALL_KEYS","correct_choice":["a"],"trial_duration":2000,"flip_timestamps":[],"response_ends_trial":false,"number_of_apertures":200,"number_of_dots":[1,1,1,1,1,1,1,1,1,1,1,1,1,1,1,1,1,1,1,1,1,1,1,1,1,1,1,1,1,1,1,1,1,1,1,1,1,1,1,1,1,1,1,1,1,1,1,1,1,1,1,1,1,1,1,1,1,1,1,1,1,1,1,1,1,1,1,1,1,1,1,1,1,1,1,1,1,1,1,1,1,1,1,1,1,1,1,1,1,1,1,1,1,1,1,1,1,1,1,1,1,1,1,1,1,1,1,1,1,1,1,1,1,1,1,1,1,1,1,1,1,1,1,1,1,1,1,1,1,1,1,1,1,1,1,1,1,1,1,1,1,1,1,1,1,1,1,1,1,1,1,1,1,1,1,1,1,1,1,1,1,1,1,1,1,1,1,1,1,1,1,1,1,1,1,1,1,1,1,1,1,1,1,1,1,1,1,1,1,1,1,1,1,1,1,1,1,1,1,1],"number_of_sets":1,"coherent_direction":[139,17,139,17,17,17,17,17,17,17,17,17,17,17,17,139,17,139,17,139,139,139,139,139,139,139,17,139,139,17,139,17,139,139,17,17,139,17,139,17,17,139,17,17,139,139,17,17,139,139,17,17,139,139,139,17,139,139,17,139,139,139,139,17,139,139,17,139,139,139,17,139,17,139,17,17,17,17,139,17,139,17,139,17,139,17,17,139,17,139,139,139,17,139,139,17,139,139,139,17,139,17,17,139,139,17,17,139,139,139,139,139,139,139,139,139,17,17,17,139,17,17,17,17,139,139,17,139,17,17,139,17,17,17,139,17,139,139,139,139,139,139,139,17,139,17,139,139,139,17,17,17,17,139,17,17,17,17,139,139,17,17,139,17,17,17,17,139,139,17,17,17,139,17,17,17,17,139,139,17,139,139,139,139,139,17,17,139,17,139,17,139,139,17,17,17,139,17,17,17],"coherence":1,"opposite_coherence":0,"dot_radius":2,"dot_side_length":1,"dot_life":-1,"move_distance":1,"aperture_width":300,"aperture_height":300,"dot_color":["white","black","white","black","black","black","black","black","black","black","black","black","black","black","black","white","black","white","black","white","white","white","white","white","white","white","black","white","white","black","white","black","white","white","black","black","white","black","white","black","black","white","black","black","white","white","black","black","white","white","black","black","white","white","white","black","white","white","black","white","white","white","white","black","white","white","black","white","white","white","black","white","black","white","black","black","black","black","white","black","white","black","white","black","white","black","black","white","black","white","white","white","black","white","white","black","white","white","white","black","white","black","black","white","white","black","black","white","white","white","white","white","white","white","white","white","black","black","black","white","black","black","black","black","white","white","black","white","black","black","white","black","black","black","white","black","white","white","white","white","white","white","white","black","white","black","white","white","white","black","black","black","black","white","black","black","black","black","white","white","black","black","white","black","black","black","black","white","white","black","black","black","white","black","black","black","black","white","white","black","white","white","white","white","white","black","black","white","black","white","black","white","white","black","black","black","white","black","black","black"],"dot_shape":"circle","background_color":"#AAA","RDK_type":3,"aperture_type":2,"reinsert_type":2,"frame_rate":16.666666666666668,"frame_rate_array":[14,16,14,36,7,14,16,17,17,15,18,16,16,16,17,19,16,15,17,18,16,16,17,17,17,16,18,17,16,16,16,17,16,18,16,16,16,17,16,17,17,16,17,18,15,17,17,17,18,15,17,17,15,17,17,17,17,18,15,17,17,16,18,16,18,16,16,17,17,16,17,16,17,16,17,17,17,18,16,16,17,17,18,16,18,15,18,17,15,18,16,17,16,17,18,15,17,17,17,16,16,17,17,16,16,18,17,17,15,17,17,16,17,17,17,15,16,17,18,16],"number_of_frames":120,"aperture_center_x":683,"aperture_center_y":384,"fixation_cross":true,"fixation_cross_width":15,"fixation_cross_height":15,"fixation_cross_color":"#111","fixation_cross_thickness":1,"border":true,"border_thickness":2,"border_color":"transparent","canvas_width":1366,"canvas_height":768,"trial_type":"rdk","trial_index":16,"plugin_version":"2.0.0","time_elapsed":220203},{"rt":2367,"stimulus":"\n        <div class=\"response-container\">\n          <div class=\"response-instruction\">\n            <p>rotate the bar by using the left and right arrow keys.</p>\n            <p>when you are determined, press the Enter key.</p>\n          </div>\n          <div class=\"response-circle\">\n            <div class=\"response-fixation\"></div>\n            <div id=\"bar\" class=\"rotating-bar\"></div>\n          </div>\n        </div>\n      ","response":"Enter","trial_type":"html-keyboard-response","trial_index":17,"plugin_version":"2.1.0","time_elapsed":222573,"response_angle_css":46,"response_angle_rdk":44,"angular_error_target":-95,"angular_error_distractor":27,"target_direction":139,"target_group":"white","reward_points":0},{"rt":null,"stimulus":"\n          <p style=\"color: #FF3333;\">Your reward: 0 points</p>\n        ","response":null,"trial_type":"html-keyboard-response","trial_index":18,"plugin_version":"2.1.0","time_elapsed":224578},{"rt":null,"stimulus":"<div class=\"fixation\" style=\"font-size: 60px;\">+</div>","response":null,"trial_type":"html-keyboard-response","trial_index":19,"plugin_version":"2.1.0","time_elapsed":225588},{"target_group":"black","condition_label":"B_H_vs_W_L_rep14","target_direction":199,"distractor_direction":320,"session_rotation":98,"rt":-1,"response":"","correct":false,"choices":"ALL_KEYS","correct_choice":["a"],"trial_duration":2000,"flip_timestamps":[],"response_ends_trial":false,"number_of_apertures":200,"number_of_dots":[1,1,1,1,1,1,1,1,1,1,1,1,1,1,1,1,1,1,1,1,1,1,1,1,1,1,1,1,1,1,1,1,1,1,1,1,1,1,1,1,1,1,1,1,1,1,1,1,1,1,1,1,1,1,1,1,1,1,1,1,1,1,1,1,1,1,1,1,1,1,1,1,1,1,1,1,1,1,1,1,1,1,1,1,1,1,1,1,1,1,1,1,1,1,1,1,1,1,1,1,1,1,1,1,1,1,1,1,1,1,1,1,1,1,1,1,1,1,1,1,1,1,1,1,1,1,1,1,1,1,1,1,1,1,1,1,1,1,1,1,1,1,1,1,1,1,1,1,1,1,1,1,1,1,1,1,1,1,1,1,1,1,1,1,1,1,1,1,1,1,1,1,1,1,1,1,1,1,1,1,1,1,1,1,1,1,1,1,1,1,1,1,1,1,1,1,1,1,1,1],"number_of_sets":1,"coherent_direction":[320,320,199,199,320,199,199,320,320,320,320,199,199,199,320,199,199,320,199,320,199,320,320,320,320,199,199,199,199,320,320,199,199,320,320,320,199,199,199,199,199,199,199,199,199,320,199,199,320,320,199,320,199,320,199,320,199,320,199,320,199,320,199,320,320,199,320,320,320,199,199,199,320,320,199,320,320,199,199,320,199,320,199,199,320,320,199,199,320,199,320,320,320,199,320,199,320,320,320,320,199,320,320,199,320,320,320,320,199,320,320,320,199,320,199,320,320,320,320,320,199,199,320,320,199,199,199,199,320,199,199,320,320,320,199,320,320,199,320,199,320,199,199,320,199,320,320,320,320,320,320,199,320,320,320,320,199,199,199,199,199,199,199,199,199,199,199,320,320,199,199,199,199,320,199,199,320,199,320,199,199,199,320,199,320,199,199,320,199,199,199,320,199,320,320,199,320,320,320,199],"coherence":1,"opposite_coherence":0,"dot_radius":2,"dot_side_length":1,"dot_life":-1,"move_distance":1,"aperture_width":300,"aperture_height":300,"dot_color":["white","white","black","black","white","black","black","white","white","white","white","black","black","black","white","black","black","white","black","white","black","white","white","white","white","black","black","black","black","white","white","black","black","white","white","white","black","black","black","black","black","black","black","black","black","white","black","black","white","white","black","white","black","white","black","white","black","white","black","white","black","white","black","white","white","black","white","white","white","black","black","black","white","white","black","white","white","black","black","white","black","white","black","black","white","white","black","black","white","black","white","white","white","black","white","black","white","white","white","white","black","white","white","black","white","white","white","white","black","white","white","white","black","white","black","white","white","white","white","white","black","black","white","white","black","black","black","black","white","black","black","white","white","white","black","white","white","black","white","black","white","black","black","white","black","white","white","white","white","white","white","black","white","white","white","white","black","black","black","black","black","black","black","black","black","black","black","white","white","black","black","black","black","white","black","black","white","black","white","black","black","black","white","black","white","black","black","white","black","black","black","white","black","white","white","black","white","white","white","black"],"dot_shape":"circle","background_color":"#AAA","RDK_type":3,"aperture_type":2,"reinsert_type":2,"frame_rate":16.56198347107438,"frame_rate_array":[13,11,11,14,18,16,16,15,16,16,17,17,17,17,16,17,17,16,17,17,16,17,17,17,16,20,15,18,15,18,15,17,17,18,16,16,17,16,18,15,17,17,16,18,16,17,17,17,16,18,16,17,16,16,17,17,16,17,18,16,18,16,16,17,16,16,17,19,15,18,16,16,17,17,17,17,16,17,17,18,17,16,15,17,16,17,17,18,17,17,15,17,17,17,16,17,16,17,19,15,17,16,18,16,17,18,17,18,15,18,15,17,16,17,16,18,17,16,16,16,18],"number_of_frames":121,"aperture_center_x":683,"aperture_center_y":384,"fixation_cross":true,"fixation_cross_width":15,"fixation_cross_height":15,"fixation_cross_color":"#111","fixation_cross_thickness":1,"border":true,"border_thickness":2,"border_color":"transparent","canvas_width":1366,"canvas_height":768,"trial_type":"rdk","trial_index":20,"plugin_version":"2.0.0","time_elapsed":227602},{"rt":1651,"stimulus":"\n        <div class=\"response-container\">\n          <div class=\"response-instruction\">\n            <p>rotate the bar by using the left and right arrow keys.</p>\n            <p>when you are determined, press the Enter key.</p>\n          </div>\n          <div class=\"response-circle\">\n            <div class=\"response-fixation\"></div>\n            <div id=\"bar\" class=\"rotating-bar\"></div>\n          </div>\n        </div>\n      ","response":"Enter","trial_type":"html-keyboard-response","trial_index":21,"plugin_version":"2.1.0","time_elapsed":229256,"response_angle_css":238,"response_angle_rdk":212,"angular_error_target":13,"angular_error_distractor":-108,"target_direction":199,"target_group":"black","reward_points":7},{"rt":null,"stimulus":"\n          <p style=\"color: #00FF00;\">Your reward: 7 points</p>\n        ","response":null,"trial_type":"html-keyboard-response","trial_index":22,"plugin_version":"2.1.0","time_elapsed":231259},{"rt":null,"stimulus":"<div class=\"fixation\" style=\"font-size: 60px;\">+</div>","response":null,"trial_type":"html-keyboard-response","trial_index":23,"plugin_version":"2.1.0","time_elapsed":232270},{"target_group":"black","condition_label":"B_H_vs_W_L_rep22","target_direction":200,"distractor_direction":292,"session_rotation":98,"rt":-1,"response":"","correct":false,"choices":"ALL_KEYS","correct_choice":["a"],"trial_duration":2000,"flip_timestamps":[],"response_ends_trial":false,"number_of_apertures":200,"number_of_dots":[1,1,1,1,1,1,1,1,1,1,1,1,1,1,1,1,1,1,1,1,1,1,1,1,1,1,1,1,1,1,1,1,1,1,1,1,1,1,1,1,1,1,1,1,1,1,1,1,1,1,1,1,1,1,1,1,1,1,1,1,1,1,1,1,1,1,1,1,1,1,1,1,1,1,1,1,1,1,1,1,1,1,1,1,1,1,1,1,1,1,1,1,1,1,1,1,1,1,1,1,1,1,1,1,1,1,1,1,1,1,1,1,1,1,1,1,1,1,1,1,1,1,1,1,1,1,1,1,1,1,1,1,1,1,1,1,1,1,1,1,1,1,1,1,1,1,1,1,1,1,1,1,1,1,1,1,1,1,1,1,1,1,1,1,1,1,1,1,1,1,1,1,1,1,1,1,1,1,1,1,1,1,1,1,1,1,1,1,1,1,1,1,1,1,1,1,1,1,1,1],"number_of_sets":1,"coherent_direction":[200,200,200,200,200,292,200,200,292,292,292,292,200,200,292,292,292,292,200,292,200,292,200,292,200,200,200,292,200,200,200,200,292,200,292,292,292,292,200,200,200,292,292,200,200,200,200,200,200,200,200,200,292,200,200,200,292,292,292,292,200,292,292,292,292,200,200,292,200,292,292,200,200,292,292,200,292,200,292,292,292,200,292,200,200,200,292,292,200,292,292,200,200,200,200,292,292,200,292,292,200,200,200,200,200,200,200,292,200,292,292,292,292,292,292,200,292,200,200,292,200,200,200,200,292,292,292,200,200,200,292,292,292,200,292,292,292,292,292,292,292,200,292,200,200,292,200,292,200,292,200,200,292,292,292,200,200,200,200,292,292,292,292,200,200,200,200,200,292,292,292,200,292,292,200,292,200,292,292,292,200,292,200,292,292,292,292,292,292,292,200,292,200,200,292,200,200,200,292,200],"coherence":1,"opposite_coherence":0,"dot_radius":2,"dot_side_length":1,"dot_life":-1,"move_distance":1,"aperture_width":300,"aperture_height":300,"dot_color":["black","black","black","black","black","white","black","black","white","white","white","white","black","black","white","white","white","white","black","white","black","white","black","white","black","black","black","white","black","black","black","black","white","black","white","white","white","white","black","black","black","white","white","black","black","black","black","black","black","black","black","black","white","black","black","black","white","white","white","white","black","white","white","white","white","black","black","white","black","white","white","black","black","white","white","black","white","black","white","white","white","black","white","black","black","black","white","white","black","white","white","black","black","black","black","white","white","black","white","white","black","black","black","black","black","black","black","white","black","white","white","white","white","white","white","black","white","black","black","white","black","black","black","black","white","white","white","black","black","black","white","white","white","black","white","white","white","white","white","white","white","black","white","black","black","white","black","white","black","white","black","black","white","white","white","black","black","black","black","white","white","white","white","black","black","black","black","black","white","white","white","black","white","white","black","white","black","white","white","white","black","white","black","white","white","white","white","white","white","white","black","white","black","black","white","black","black","black","white","black"],"dot_shape":"circle","background_color":"#AAA","RDK_type":3,"aperture_type":2,"reinsert_type":2,"frame_rate":16.636363636363637,"frame_rate_array":[10,13,18,16,17,16,18,17,16,17,18,16,17,16,18,16,16,17,16,17,17,17,16,18,16,17,17,17,16,17,17,17,17,17,16,15,19,16,17,15,17,17,16,18,17,17,16,17,17,16,16,17,16,16,17,17,16,16,17,17,18,15,18,16,17,17,15,18,16,18,16,18,17,15,18,17,17,15,18,16,17,17,17,17,17,19,14,17,17,16,18,16,17,16,17,18,15,17,16,17,17,17,16,17,17,18,17,16,17,17,16,16,17,16,17,17,17,15,17,17,17],"number_of_frames":121,"aperture_center_x":683,"aperture_center_y":384,"fixation_cross":true,"fixation_cross_width":15,"fixation_cross_height":15,"fixation_cross_color":"#111","fixation_cross_thickness":1,"border":true,"border_thickness":2,"border_color":"transparent","canvas_width":1366,"canvas_height":768,"trial_type":"rdk","trial_index":24,"plugin_version":"2.0.0","time_elapsed":234282},{"rt":6764,"stimulus":"\n        <div class=\"response-container\">\n          <div class=\"response-instruction\">\n            <p>rotate the bar by using the left and right arrow keys.</p>\n            <p>when you are determined, press the Enter key.</p>\n          </div>\n          <div class=\"response-circle\">\n            <div class=\"response-fixation\"></div>\n            <div id=\"bar\" class=\"rotating-bar\"></div>\n          </div>\n        </div>\n      ","response":"Enter","trial_type":"html-keyboard-response","trial_index":25,"plugin_version":"2.1.0","time_elapsed":241048,"response_angle_css":320,"response_angle_rdk":130,"angular_error_target":-70,"angular_error_distractor":-162,"target_direction":200,"target_group":"black","reward_points":0},{"rt":null,"stimulus":"\n          <p style=\"color: #FF3333;\">Your reward: 0 points</p>\n        ","response":null,"trial_type":"html-keyboard-response","trial_index":26,"plugin_version":"2.1.0","time_elapsed":243058},{"rt":null,"stimulus":"<div class=\"fixation\" style=\"font-size: 60px;\">+</div>","response":null,"trial_type":"html-keyboard-response","trial_index":27,"plugin_version":"2.1.0","time_elapsed":244061},{"target_group":"black","condition_label":"B_H_vs_W_L_rep1","target_direction":208,"distractor_direction":302,"session_rotation":98,"rt":-1,"response":"","correct":false,"choices":"ALL_KEYS","correct_choice":["a"],"trial_duration":2000,"flip_timestamps":[],"response_ends_trial":false,"number_of_apertures":200,"number_of_dots":[1,1,1,1,1,1,1,1,1,1,1,1,1,1,1,1,1,1,1,1,1,1,1,1,1,1,1,1,1,1,1,1,1,1,1,1,1,1,1,1,1,1,1,1,1,1,1,1,1,1,1,1,1,1,1,1,1,1,1,1,1,1,1,1,1,1,1,1,1,1,1,1,1,1,1,1,1,1,1,1,1,1,1,1,1,1,1,1,1,1,1,1,1,1,1,1,1,1,1,1,1,1,1,1,1,1,1,1,1,1,1,1,1,1,1,1,1,1,1,1,1,1,1,1,1,1,1,1,1,1,1,1,1,1,1,1,1,1,1,1,1,1,1,1,1,1,1,1,1,1,1,1,1,1,1,1,1,1,1,1,1,1,1,1,1,1,1,1,1,1,1,1,1,1,1,1,1,1,1,1,1,1,1,1,1,1,1,1,1,1,1,1,1,1,1,1,1,1,1,1],"number_of_sets":1,"coherent_direction":[302,208,302,208,208,208,208,302,208,302,302,302,302,302,302,302,208,302,208,208,302,208,302,302,208,302,302,208,208,208,302,208,302,208,208,208,208,208,302,302,208,302,302,302,208,302,208,302,302,208,302,302,208,208,208,302,208,208,302,208,302,302,208,302,208,302,208,302,302,208,302,208,208,208,302,302,208,208,302,208,302,302,302,302,208,208,302,302,208,302,208,302,302,208,208,302,208,302,302,302,208,208,302,302,208,208,208,302,208,208,302,208,302,208,208,302,208,208,208,208,208,208,302,208,302,302,208,302,302,208,302,208,208,208,302,302,302,302,302,302,208,302,302,208,208,208,208,208,208,208,302,208,302,302,302,302,208,302,302,208,208,302,302,208,302,208,302,208,302,208,208,302,302,302,208,208,302,208,302,208,302,302,302,302,302,302,302,302,208,302,208,208,302,208,208,208,208,208,208,208],"coherence":1,"opposite_coherence":0,"dot_radius":2,"dot_side_length":1,"dot_life":-1,"move_distance":1,"aperture_width":300,"aperture_height":300,"dot_color":["white","black","white","black","black","black","black","white","black","white","white","white","white","white","white","white","black","white","black","black","white","black","white","white","black","white","white","black","black","black","white","black","white","black","black","black","black","black","white","white","black","white","white","white","black","white","black","white","white","black","white","white","black","black","black","white","black","black","white","black","white","white","black","white","black","white","black","white","white","black","white","black","black","black","white","white","black","black","white","black","white","white","white","white","black","black","white","white","black","white","black","white","white","black","black","white","black","white","white","white","black","black","white","white","black","black","black","white","black","black","white","black","white","black","black","white","black","black","black","black","black","black","white","black","white","white","black","white","white","black","white","black","black","black","white","white","white","white","white","white","black","white","white","black","black","black","black","black","black","black","white","black","white","white","white","white","black","white","white","black","black","white","white","black","white","black","white","black","white","black","black","white","white","white","black","black","white","black","white","black","white","white","white","white","white","white","white","white","black","white","black","black","white","black","black","black","black","black","black","black"],"dot_shape":"circle","background_color":"#AAA","RDK_type":3,"aperture_type":2,"reinsert_type":2,"frame_rate":16.578512396694215,"frame_rate_array":[7,10,18,15,17,17,17,17,16,17,17,16,16,17,17,17,18,16,17,16,17,18,15,19,14,17,17,17,17,17,16,17,18,17,16,17,17,18,15,16,16,15,19,16,18,16,17,17,17,16,18,15,17,16,17,17,16,17,17,17,16,16,17,17,16,17,17,16,17,17,17,16,17,17,16,17,18,15,16,16,17,18,18,15,17,17,15,17,16,17,18,16,16,17,17,17,18,16,18,17,16,19,16,17,15,17,17,16,17,16,17,17,17,17,18,16,17,17,16,17,16],"number_of_frames":121,"aperture_center_x":683,"aperture_center_y":384,"fixation_cross":true,"fixation_cross_width":15,"fixation_cross_height":15,"fixation_cross_color":"#111","fixation_cross_thickness":1,"border":true,"border_thickness":2,"border_color":"transparent","canvas_width":1366,"canvas_height":768,"trial_type":"rdk","trial_index":28,"plugin_version":"2.0.0","time_elapsed":246068},{"rt":5943,"stimulus":"\n        <div class=\"response-container\">\n          <div class=\"response-instruction\">\n            <p>rotate the bar by using the left and right arrow keys.</p>\n            <p>when you are determined, press the Enter key.</p>\n          </div>\n          <div class=\"response-circle\">\n            <div class=\"response-fixation\"></div>\n            <div id=\"bar\" class=\"rotating-bar\"></div>\n          </div>\n        </div>\n      ","response":"Enter","trial_type":"html-keyboard-response","trial_index":29,"plugin_version":"2.1.0","time_elapsed":252013,"response_angle_css":247,"response_angle_rdk":203,"angular_error_target":-5,"angular_error_distractor":-99,"target_direction":208,"target_group":"black","reward_points":9},{"rt":null,"stimulus":"\n          <p style=\"color: #00FF00;\">Your reward: 9 points</p>\n        ","response":null,"trial_type":"html-keyboard-response","trial_index":30,"plugin_version":"2.1.0","time_elapsed":254029},{"rt":null,"stimulus":"<div class=\"fixation\" style=\"font-size: 60px;\">+</div>","response":null,"trial_type":"html-keyboard-response","trial_index":31,"plugin_version":"2.1.0","time_elapsed":255032},{"target_group":"black","condition_label":"B_H_vs_W_L_rep21","target_direction":219,"distractor_direction":310,"session_rotation":98,"rt":-1,"response":"","correct":false,"choices":"ALL_KEYS","correct_choice":["a"],"trial_duration":2000,"flip_timestamps":[],"response_ends_trial":false,"number_of_apertures":200,"number_of_dots":[1,1,1,1,1,1,1,1,1,1,1,1,1,1,1,1,1,1,1,1,1,1,1,1,1,1,1,1,1,1,1,1,1,1,1,1,1,1,1,1,1,1,1,1,1,1,1,1,1,1,1,1,1,1,1,1,1,1,1,1,1,1,1,1,1,1,1,1,1,1,1,1,1,1,1,1,1,1,1,1,1,1,1,1,1,1,1,1,1,1,1,1,1,1,1,1,1,1,1,1,1,1,1,1,1,1,1,1,1,1,1,1,1,1,1,1,1,1,1,1,1,1,1,1,1,1,1,1,1,1,1,1,1,1,1,1,1,1,1,1,1,1,1,1,1,1,1,1,1,1,1,1,1,1,1,1,1,1,1,1,1,1,1,1,1,1,1,1,1,1,1,1,1,1,1,1,1,1,1,1,1,1,1,1,1,1,1,1,1,1,1,1,1,1,1,1,1,1,1,1],"number_of_sets":1,"coherent_direction":[219,219,310,310,219,310,219,219,310,310,219,219,310,219,310,219,310,219,219,310,219,219,219,219,310,219,310,310,310,219,310,219,219,310,219,310,219,219,219,310,310,219,219,219,310,219,310,219,310,310,310,310,219,219,310,219,310,219,219,310,310,310,219,219,219,219,219,219,219,310,219,310,310,219,219,219,310,219,219,310,310,219,310,219,219,310,219,310,310,219,310,219,310,219,219,310,310,310,310,310,310,219,310,310,310,219,310,310,219,310,310,219,219,219,310,219,219,310,219,310,310,219,310,219,219,310,219,219,310,310,219,310,219,219,310,310,219,219,310,219,310,219,219,310,219,310,219,219,219,219,219,310,310,310,310,219,310,310,219,310,310,219,219,219,310,310,219,310,310,310,219,219,219,310,310,219,219,310,310,219,219,310,310,310,310,219,310,310,310,310,219,219,310,310,310,310,310,219,219,310],"coherence":1,"opposite_coherence":0,"dot_radius":2,"dot_side_length":1,"dot_life":-1,"move_distance":1,"aperture_width":300,"aperture_height":300,"dot_color":["black","black","white","white","black","white","black","black","white","white","black","black","white","black","white","black","white","black","black","white","black","black","black","black","white","black","white","white","white","black","white","black","black","white","black","white","black","black","black","white","white","black","black","black","white","black","white","black","white","white","white","white","black","black","white","black","white","black","black","white","white","white","black","black","black","black","black","black","black","white","black","white","white","black","black","black","white","black","black","white","white","black","white","black","black","white","black","white","white","black","white","black","white","black","black","white","white","white","white","white","white","black","white","white","white","black","white","white","black","white","white","black","black","black","white","black","black","white","black","white","white","black","white","black","black","white","black","black","white","white","black","white","black","black","white","white","black","black","white","black","white","black","black","white","black","white","black","black","black","black","black","white","white","white","white","black","white","white","black","white","white","black","black","black","white","white","black","white","white","white","black","black","black","white","white","black","black","white","white","black","black","white","white","white","white","black","white","white","white","white","black","black","white","white","white","white","white","black","black","white"],"dot_shape":"circle","background_color":"#AAA","RDK_type":3,"aperture_type":2,"reinsert_type":2,"frame_rate":16.578512396694215,"frame_rate_array":[6,12,18,15,18,16,17,17,19,15,17,16,18,14,17,17,18,17,15,17,17,18,16,18,16,16,16,16,17,16,19,15,17,17,17,17,17,16,17,15,17,17,18,15,17,16,18,16,18,18,16,16,17,16,17,18,16,17,19,14,17,15,14,16,17,19,15,16,19,15,18,17,17,16,17,16,17,16,17,17,16,17,19,17,18,15,16,18,15,17,16,17,17,16,18,17,16,17,17,17,17,18,16,17,15,17,18,16,16,16,18,15,17,18,15,18,15,17,17,17,18],"number_of_frames":121,"aperture_center_x":683,"aperture_center_y":384,"fixation_cross":true,"fixation_cross_width":15,"fixation_cross_height":15,"fixation_cross_color":"#111","fixation_cross_thickness":1,"border":true,"border_thickness":2,"border_color":"transparent","canvas_width":1366,"canvas_height":768,"trial_type":"rdk","trial_index":32,"plugin_version":"2.0.0","time_elapsed":257041},{"rt":5797,"stimulus":"\n        <div class=\"response-container\">\n          <div class=\"response-instruction\">\n            <p>rotate the bar by using the left and right arrow keys.</p>\n            <p>when you are determined, press the Enter key.</p>\n          </div>\n          <div class=\"response-circle\">\n            <div class=\"response-fixation\"></div>\n            <div id=\"bar\" class=\"rotating-bar\"></div>\n          </div>\n        </div>\n      ","response":"Enter","trial_type":"html-keyboard-response","trial_index":33,"plugin_version":"2.1.0","time_elapsed":262839,"response_angle_css":473,"response_angle_rdk":337,"angular_error_target":118,"angular_error_distractor":27,"target_direction":219,"target_group":"black","reward_points":0},{"rt":null,"stimulus":"\n          <p style=\"color: #FF3333;\">Your reward: 0 points</p>\n        ","response":null,"trial_type":"html-keyboard-response","trial_index":34,"plugin_version":"2.1.0","time_elapsed":264853},{"rt":null,"stimulus":"<div class=\"fixation\" style=\"font-size: 60px;\">+</div>","response":null,"trial_type":"html-keyboard-response","trial_index":35,"plugin_version":"2.1.0","time_elapsed":265858},{"target_group":"white","condition_label":"W_H_vs_B_L_rep19","target_direction":128,"distractor_direction":9,"session_rotation":98,"rt":-1,"response":"","correct":false,"choices":"ALL_KEYS","correct_choice":["a"],"trial_duration":2000,"flip_timestamps":[],"response_ends_trial":false,"number_of_apertures":200,"number_of_dots":[1,1,1,1,1,1,1,1,1,1,1,1,1,1,1,1,1,1,1,1,1,1,1,1,1,1,1,1,1,1,1,1,1,1,1,1,1,1,1,1,1,1,1,1,1,1,1,1,1,1,1,1,1,1,1,1,1,1,1,1,1,1,1,1,1,1,1,1,1,1,1,1,1,1,1,1,1,1,1,1,1,1,1,1,1,1,1,1,1,1,1,1,1,1,1,1,1,1,1,1,1,1,1,1,1,1,1,1,1,1,1,1,1,1,1,1,1,1,1,1,1,1,1,1,1,1,1,1,1,1,1,1,1,1,1,1,1,1,1,1,1,1,1,1,1,1,1,1,1,1,1,1,1,1,1,1,1,1,1,1,1,1,1,1,1,1,1,1,1,1,1,1,1,1,1,1,1,1,1,1,1,1,1,1,1,1,1,1,1,1,1,1,1,1,1,1,1,1,1,1],"number_of_sets":1,"coherent_direction":[9,128,9,9,128,128,128,128,128,9,9,9,128,9,128,9,9,128,128,128,9,128,128,9,9,128,128,128,128,128,9,128,9,128,128,128,9,128,9,128,128,9,128,128,128,9,128,9,9,9,128,128,9,128,128,128,128,128,128,128,9,128,9,128,9,128,128,9,128,128,9,9,128,9,9,9,9,128,128,128,9,128,128,9,128,9,128,9,9,9,9,128,128,128,9,9,128,9,128,128,9,128,128,128,128,128,9,9,128,9,128,9,9,128,128,128,9,9,128,9,9,128,128,9,9,9,9,128,128,9,9,128,9,9,128,128,128,9,128,9,9,9,9,9,128,9,9,9,9,9,128,128,128,128,9,128,128,9,9,9,9,9,9,9,9,9,9,9,128,128,128,128,128,9,9,9,9,9,9,9,128,9,9,9,128,9,9,128,128,9,128,9,128,9,9,128,128,9,128,128],"coherence":1,"opposite_coherence":0,"dot_radius":2,"dot_side_length":1,"dot_life":-1,"move_distance":1,"aperture_width":300,"aperture_height":300,"dot_color":["black","white","black","black","white","white","white","white","white","black","black","black","white","black","white","black","black","white","white","white","black","white","white","black","black","white","white","white","white","white","black","white","black","white","white","white","black","white","black","white","white","black","white","white","white","black","white","black","black","black","white","white","black","white","white","white","white","white","white","white","black","white","black","white","black","white","white","black","white","white","black","black","white","black","black","black","black","white","white","white","black","white","white","black","white","black","white","black","black","black","black","white","white","white","black","black","white","black","white","white","black","white","white","white","white","white","black","black","white","black","white","black","black","white","white","white","black","black","white","black","black","white","white","black","black","black","black","white","white","black","black","white","black","black","white","white","white","black","white","black","black","black","black","black","white","black","black","black","black","black","white","white","white","white","black","white","white","black","black","black","black","black","black","black","black","black","black","black","white","white","white","white","white","black","black","black","black","black","black","black","white","black","black","black","white","black","black","white","white","black","white","black","white","black","black","white","white","black","white","white"],"dot_shape":"circle","background_color":"#AAA","RDK_type":3,"aperture_type":2,"reinsert_type":2,"frame_rate":16.691666666666666,"frame_rate_array":[13,17,16,16,17,16,15,17,17,17,17,17,17,16,17,16,17,17,17,17,17,17,17,17,16,17,17,16,17,17,16,17,17,17,17,17,17,16,17,16,17,17,17,16,17,16,17,17,17,17,16,16,17,17,17,16,17,17,18,17,15,17,18,15,17,17,17,17,16,17,16,17,17,17,16,16,17,17,17,17,16,17,17,16,17,17,16,17,16,17,17,16,17,18,16,16,18,17,17,16,17,17,17,17,16,17,17,16,17,17,17,17,17,16,17,17,16,17,17,17],"number_of_frames":120,"aperture_center_x":683,"aperture_center_y":384,"fixation_cross":true,"fixation_cross_width":15,"fixation_cross_height":15,"fixation_cross_color":"#111","fixation_cross_thickness":1,"border":true,"border_thickness":2,"border_color":"transparent","canvas_width":1366,"canvas_height":768,"trial_type":"rdk","trial_index":36,"plugin_version":"2.0.0","time_elapsed":267869},{"rt":6201,"stimulus":"\n        <div class=\"response-container\">\n          <div class=\"response-instruction\">\n            <p>rotate the bar by using the left and right arrow keys.</p>\n            <p>when you are determined, press the Enter key.</p>\n          </div>\n          <div class=\"response-circle\">\n            <div class=\"response-fixation\"></div>\n            <div id=\"bar\" class=\"rotating-bar\"></div>\n          </div>\n        </div>\n      ","response":"Enter","trial_type":"html-keyboard-response","trial_index":37,"plugin_version":"2.1.0","time_elapsed":274072,"response_angle_css":414,"response_angle_rdk":36,"angular_error_target":-92,"angular_error_distractor":27,"target_direction":128,"target_group":"white","reward_points":0},{"rt":null,"stimulus":"\n          <p style=\"color: #FF3333;\">Your reward: 0 points</p>\n        ","response":null,"trial_type":"html-keyboard-response","trial_index":38,"plugin_version":"2.1.0","time_elapsed":276077},{"rt":null,"stimulus":"<div class=\"fixation\" style=\"font-size: 60px;\">+</div>","response":null,"trial_type":"html-keyboard-response","trial_index":39,"plugin_version":"2.1.0","time_elapsed":277090},{"target_group":"white","condition_label":"W_H_vs_B_L_rep11","target_direction":124,"distractor_direction":26,"session_rotation":98,"rt":-1,"response":"","correct":false,"choices":"ALL_KEYS","correct_choice":["a"],"trial_duration":2000,"flip_timestamps":[],"response_ends_trial":false,"number_of_apertures":200,"number_of_dots":[1,1,1,1,1,1,1,1,1,1,1,1,1,1,1,1,1,1,1,1,1,1,1,1,1,1,1,1,1,1,1,1,1,1,1,1,1,1,1,1,1,1,1,1,1,1,1,1,1,1,1,1,1,1,1,1,1,1,1,1,1,1,1,1,1,1,1,1,1,1,1,1,1,1,1,1,1,1,1,1,1,1,1,1,1,1,1,1,1,1,1,1,1,1,1,1,1,1,1,1,1,1,1,1,1,1,1,1,1,1,1,1,1,1,1,1,1,1,1,1,1,1,1,1,1,1,1,1,1,1,1,1,1,1,1,1,1,1,1,1,1,1,1,1,1,1,1,1,1,1,1,1,1,1,1,1,1,1,1,1,1,1,1,1,1,1,1,1,1,1,1,1,1,1,1,1,1,1,1,1,1,1,1,1,1,1,1,1,1,1,1,1,1,1,1,1,1,1,1,1],"number_of_sets":1,"coherent_direction":[124,124,26,124,124,26,26,124,124,124,124,124,26,124,124,124,26,26,124,26,124,124,26,26,124,26,26,124,124,124,124,26,26,124,26,124,26,124,26,26,26,26,124,124,124,124,26,124,124,124,124,26,26,124,26,124,26,124,26,124,26,26,26,124,26,124,124,26,26,26,26,124,124,124,124,124,124,124,124,26,26,124,124,124,26,26,26,124,26,26,26,26,26,124,124,26,26,26,26,124,124,124,124,124,26,26,124,124,26,124,124,124,26,26,26,26,124,26,124,26,26,26,124,26,124,26,26,124,124,26,124,26,124,26,26,124,26,26,26,26,26,26,124,26,124,26,26,124,124,124,26,124,124,26,26,124,26,26,124,26,124,124,26,124,124,26,124,124,26,26,124,26,124,26,124,26,124,26,26,26,26,124,26,26,124,124,26,124,124,124,124,26,26,26,26,26,124,124,26,124],"coherence":1,"opposite_coherence":0,"dot_radius":2,"dot_side_length":1,"dot_life":-1,"move_distance":1,"aperture_width":300,"aperture_height":300,"dot_color":["white","white","black","white","white","black","black","white","white","white","white","white","black","white","white","white","black","black","white","black","white","white","black","black","white","black","black","white","white","white","white","black","black","white","black","white","black","white","black","black","black","black","white","white","white","white","black","white","white","white","white","black","black","white","black","white","black","white","black","white","black","black","black","white","black","white","white","black","black","black","black","white","white","white","white","white","white","white","white","black","black","white","white","white","black","black","black","white","black","black","black","black","black","white","white","black","black","black","black","white","white","white","white","white","black","black","white","white","black","white","white","white","black","black","black","black","white","black","white","black","black","black","white","black","white","black","black","white","white","black","white","black","white","black","black","white","black","black","black","black","black","black","white","black","white","black","black","white","white","white","black","white","white","black","black","white","black","black","white","black","white","white","black","white","white","black","white","white","black","black","white","black","white","black","white","black","white","black","black","black","black","white","black","black","white","white","black","white","white","white","white","black","black","black","black","black","white","white","black","white"],"dot_shape":"circle","background_color":"#AAA","RDK_type":3,"aperture_type":2,"reinsert_type":2,"frame_rate":16.691666666666666,"frame_rate_array":[22,10,16,17,17,16,16,18,16,16,17,17,17,16,18,15,17,17,17,17,16,18,16,17,16,17,17,17,17,19,16,15,18,17,15,16,17,16,16,17,18,16,17,16,17,18,16,17,17,18,15,17,17,17,17,17,19,15,16,17,18,16,18,17,15,18,15,18,15,16,18,16,18,15,17,18,16,18,19,14,16,18,15,17,14,18,16,17,16,17,17,17,16,17,17,17,17,16,15,17,17,16,17,17,16,17,17,17,17,17,16,17,17,16,17,17,16,16,19,17],"number_of_frames":120,"aperture_center_x":683,"aperture_center_y":384,"fixation_cross":true,"fixation_cross_width":15,"fixation_cross_height":15,"fixation_cross_color":"#111","fixation_cross_thickness":1,"border":true,"border_thickness":2,"border_color":"transparent","canvas_width":1366,"canvas_height":768,"trial_type":"rdk","trial_index":40,"plugin_version":"2.0.0","time_elapsed":279098},{"rt":6459,"stimulus":"\n        <div class=\"response-container\">\n          <div class=\"response-instruction\">\n            <p>rotate the bar by using the left and right arrow keys.</p>\n            <p>when you are determined, press the Enter key.</p>\n          </div>\n          <div class=\"response-circle\">\n            <div class=\"response-fixation\"></div>\n            <div id=\"bar\" class=\"rotating-bar\"></div>\n          </div>\n        </div>\n      ","response":"Enter","trial_type":"html-keyboard-response","trial_index":41,"plugin_version":"2.1.0","time_elapsed":285559,"response_angle_css":69,"response_angle_rdk":21,"angular_error_target":-103,"angular_error_distractor":-5,"target_direction":124,"target_group":"white","reward_points":0},{"rt":null,"stimulus":"\n          <p style=\"color: #FF3333;\">Your reward: 0 points</p>\n        ","response":null,"trial_type":"html-keyboard-response","trial_index":42,"plugin_version":"2.1.0","time_elapsed":287563},{"rt":null,"stimulus":"<div class=\"fixation\" style=\"font-size: 60px;\">+</div>","response":null,"trial_type":"html-keyboard-response","trial_index":43,"plugin_version":"2.1.0","time_elapsed":288574},{"target_group":"black","condition_label":"B_H_vs_W_L_rep16","target_direction":204,"distractor_direction":321,"session_rotation":98,"rt":-1,"response":"","correct":false,"choices":"ALL_KEYS","correct_choice":["a"],"trial_duration":2000,"flip_timestamps":[],"response_ends_trial":false,"number_of_apertures":200,"number_of_dots":[1,1,1,1,1,1,1,1,1,1,1,1,1,1,1,1,1,1,1,1,1,1,1,1,1,1,1,1,1,1,1,1,1,1,1,1,1,1,1,1,1,1,1,1,1,1,1,1,1,1,1,1,1,1,1,1,1,1,1,1,1,1,1,1,1,1,1,1,1,1,1,1,1,1,1,1,1,1,1,1,1,1,1,1,1,1,1,1,1,1,1,1,1,1,1,1,1,1,1,1,1,1,1,1,1,1,1,1,1,1,1,1,1,1,1,1,1,1,1,1,1,1,1,1,1,1,1,1,1,1,1,1,1,1,1,1,1,1,1,1,1,1,1,1,1,1,1,1,1,1,1,1,1,1,1,1,1,1,1,1,1,1,1,1,1,1,1,1,1,1,1,1,1,1,1,1,1,1,1,1,1,1,1,1,1,1,1,1,1,1,1,1,1,1,1,1,1,1,1,1],"number_of_sets":1,"coherent_direction":[321,321,321,204,321,204,204,321,204,204,204,204,204,321,321,321,204,321,204,321,204,321,204,204,321,204,204,321,321,321,321,321,321,321,321,321,204,204,204,321,204,321,321,204,204,321,321,321,204,321,204,204,204,204,204,321,204,204,204,321,321,204,204,204,321,204,204,321,204,204,321,204,321,321,204,204,204,321,204,321,204,204,321,204,204,204,204,204,321,321,204,204,204,321,204,321,321,321,204,321,204,321,321,321,321,204,321,204,321,321,204,204,321,204,204,321,321,321,204,321,204,321,204,321,321,204,321,321,321,204,321,204,321,204,204,321,321,321,321,204,321,204,321,321,321,204,321,204,204,321,204,321,204,321,204,204,204,321,204,204,204,321,321,321,204,204,321,321,321,204,321,204,204,321,321,321,204,204,321,204,204,204,321,321,321,321,204,204,321,321,204,321,204,204,204,321,204,321,204,321],"coherence":1,"opposite_coherence":0,"dot_radius":2,"dot_side_length":1,"dot_life":-1,"move_distance":1,"aperture_width":300,"aperture_height":300,"dot_color":["white","white","white","black","white","black","black","white","black","black","black","black","black","white","white","white","black","white","black","white","black","white","black","black","white","black","black","white","white","white","white","white","white","white","white","white","black","black","black","white","black","white","white","black","black","white","white","white","black","white","black","black","black","black","black","white","black","black","black","white","white","black","black","black","white","black","black","white","black","black","white","black","white","white","black","black","black","white","black","white","black","black","white","black","black","black","black","black","white","white","black","black","black","white","black","white","white","white","black","white","black","white","white","white","white","black","white","black","white","white","black","black","white","black","black","white","white","white","black","white","black","white","black","white","white","black","white","white","white","black","white","black","white","black","black","white","white","white","white","black","white","black","white","white","white","black","white","black","black","white","black","white","black","white","black","black","black","white","black","black","black","white","white","white","black","black","white","white","white","black","white","black","black","white","white","white","black","black","white","black","black","black","white","white","white","white","black","black","white","white","black","white","black","black","black","white","black","white","black","white"],"dot_shape":"circle","background_color":"#AAA","RDK_type":3,"aperture_type":2,"reinsert_type":2,"frame_rate":16.60330578512397,"frame_rate_array":[7,13,16,16,18,16,17,17,17,16,17,16,17,17,16,17,17,16,16,17,17,18,16,16,17,16,17,17,17,17,18,15,17,16,17,17,17,16,17,17,18,15,16,18,16,17,16,16,17,18,17,17,16,18,15,17,17,16,17,18,15,18,16,16,17,17,18,16,17,18,16,16,18,16,16,17,17,18,15,17,17,16,18,16,16,16,17,16,17,18,15,17,18,17,19,15,17,16,17,18,15,17,16,18,16,16,17,17,18,17,16,17,16,16,18,17,17,16,16,19,15],"number_of_frames":121,"aperture_center_x":683,"aperture_center_y":384,"fixation_cross":true,"fixation_cross_width":15,"fixation_cross_height":15,"fixation_cross_color":"#111","fixation_cross_thickness":1,"border":true,"border_thickness":2,"border_color":"transparent","canvas_width":1366,"canvas_height":768,"trial_type":"rdk","trial_index":44,"plugin_version":"2.0.0","time_elapsed":290584},{"rt":5433,"stimulus":"\n        <div class=\"response-container\">\n          <div class=\"response-instruction\">\n            <p>rotate the bar by using the left and right arrow keys.</p>\n            <p>when you are determined, press the Enter key.</p>\n          </div>\n          <div class=\"response-circle\">\n            <div class=\"response-fixation\"></div>\n            <div id=\"bar\" class=\"rotating-bar\"></div>\n          </div>\n        </div>\n      ","response":"Enter","trial_type":"html-keyboard-response","trial_index":45,"plugin_version":"2.1.0","time_elapsed":296018,"response_angle_css":254,"response_angle_rdk":196,"angular_error_target":-8,"angular_error_distractor":-125,"target_direction":204,"target_group":"black","reward_points":8},{"rt":null,"stimulus":"\n          <p style=\"color: #00FF00;\">Your reward: 8 points</p>\n        ","response":null,"trial_type":"html-keyboard-response","trial_index":46,"plugin_version":"2.1.0","time_elapsed":298023},{"rt":null,"stimulus":"<div class=\"fixation\" style=\"font-size: 60px;\">+</div>","response":null,"trial_type":"html-keyboard-response","trial_index":47,"plugin_version":"2.1.0","time_elapsed":299038},{"target_group":"black","condition_label":"B_H_vs_W_L_rep15","target_direction":224,"distractor_direction":315,"session_rotation":98,"rt":-1,"response":"","correct":false,"choices":"ALL_KEYS","correct_choice":["a"],"trial_duration":2000,"flip_timestamps":[],"response_ends_trial":false,"number_of_apertures":200,"number_of_dots":[1,1,1,1,1,1,1,1,1,1,1,1,1,1,1,1,1,1,1,1,1,1,1,1,1,1,1,1,1,1,1,1,1,1,1,1,1,1,1,1,1,1,1,1,1,1,1,1,1,1,1,1,1,1,1,1,1,1,1,1,1,1,1,1,1,1,1,1,1,1,1,1,1,1,1,1,1,1,1,1,1,1,1,1,1,1,1,1,1,1,1,1,1,1,1,1,1,1,1,1,1,1,1,1,1,1,1,1,1,1,1,1,1,1,1,1,1,1,1,1,1,1,1,1,1,1,1,1,1,1,1,1,1,1,1,1,1,1,1,1,1,1,1,1,1,1,1,1,1,1,1,1,1,1,1,1,1,1,1,1,1,1,1,1,1,1,1,1,1,1,1,1,1,1,1,1,1,1,1,1,1,1,1,1,1,1,1,1,1,1,1,1,1,1,1,1,1,1,1,1],"number_of_sets":1,"coherent_direction":[224,224,315,315,224,224,224,315,224,315,224,315,315,315,224,224,224,315,315,224,224,224,315,315,224,224,224,315,224,224,315,315,315,224,315,315,224,315,315,315,315,315,315,224,315,315,224,224,224,315,315,315,224,224,224,315,224,315,224,315,315,224,315,224,224,224,224,315,315,315,224,224,315,224,224,224,315,224,315,224,315,224,224,315,224,315,224,315,224,224,224,224,315,315,315,315,315,315,224,315,315,315,224,315,315,224,224,224,315,315,315,315,315,224,315,315,315,224,315,224,224,315,224,315,224,224,224,224,315,315,315,224,224,315,224,224,224,224,224,315,315,224,224,315,224,224,224,224,224,315,315,315,315,315,315,224,315,315,315,224,315,224,224,224,224,224,224,224,315,224,315,224,315,315,224,315,315,224,315,224,315,224,315,224,315,315,224,315,315,224,315,315,224,315,315,224,315,224,224,224],"coherence":1,"opposite_coherence":0,"dot_radius":2,"dot_side_length":1,"dot_life":-1,"move_distance":1,"aperture_width":300,"aperture_height":300,"dot_color":["black","black","white","white","black","black","black","white","black","white","black","white","white","white","black","black","black","white","white","black","black","black","white","white","black","black","black","white","black","black","white","white","white","black","white","white","black","white","white","white","white","white","white","black","white","white","black","black","black","white","white","white","black","black","black","white","black","white","black","white","white","black","white","black","black","black","black","white","white","white","black","black","white","black","black","black","white","black","white","black","white","black","black","white","black","white","black","white","black","black","black","black","white","white","white","white","white","white","black","white","white","white","black","white","white","black","black","black","white","white","white","white","white","black","white","white","white","black","white","black","black","white","black","white","black","black","black","black","white","white","white","black","black","white","black","black","black","black","black","white","white","black","black","white","black","black","black","black","black","white","white","white","white","white","white","black","white","white","white","black","white","black","black","black","black","black","black","black","white","black","white","black","white","white","black","white","white","black","white","black","white","black","white","black","white","white","black","white","white","black","white","white","black","white","white","black","white","black","black","black"],"dot_shape":"circle","background_color":"#AAA","RDK_type":3,"aperture_type":2,"reinsert_type":2,"frame_rate":16.608333333333334,"frame_rate_array":[12,17,17,17,16,16,16,17,16,17,17,17,16,18,16,17,16,16,17,17,16,18,17,16,16,16,17,17,16,17,17,16,17,17,17,17,16,17,16,17,16,17,16,17,17,16,17,16,16,18,16,17,16,17,17,17,16,17,16,17,16,17,17,17,17,17,16,17,17,16,17,16,16,17,17,16,17,17,17,17,17,16,16,17,17,15,17,17,17,17,16,17,17,16,17,17,17,16,17,17,16,17,17,17,17,17,17,17,16,16,17,17,16,17,16,17,16,17,16,17],"number_of_frames":120,"aperture_center_x":683,"aperture_center_y":384,"fixation_cross":true,"fixation_cross_width":15,"fixation_cross_height":15,"fixation_cross_color":"#111","fixation_cross_thickness":1,"border":true,"border_thickness":2,"border_color":"transparent","canvas_width":1366,"canvas_height":768,"trial_type":"rdk","trial_index":48,"plugin_version":"2.0.0","time_elapsed":301048},{"rt":3645,"stimulus":"\n        <div class=\"response-container\">\n          <div class=\"response-instruction\">\n            <p>rotate the bar by using the left and right arrow keys.</p>\n            <p>when you are determined, press the Enter key.</p>\n          </div>\n          <div class=\"response-circle\">\n            <div class=\"response-fixation\"></div>\n            <div id=\"bar\" class=\"rotating-bar\"></div>\n          </div>\n        </div>\n      ","response":"Enter","trial_type":"html-keyboard-response","trial_index":49,"plugin_version":"2.1.0","time_elapsed":304695,"response_angle_css":86,"response_angle_rdk":4,"angular_error_target":140,"angular_error_distractor":49,"target_direction":224,"target_group":"black","reward_points":0},{"rt":null,"stimulus":"\n          <p style=\"color: #FF3333;\">Your reward: 0 points</p>\n        ","response":null,"trial_type":"html-keyboard-response","trial_index":50,"plugin_version":"2.1.0","time_elapsed":306699},{"rt":null,"stimulus":"<div class=\"fixation\" style=\"font-size: 60px;\">+</div>","response":null,"trial_type":"html-keyboard-response","trial_index":51,"plugin_version":"2.1.0","time_elapsed":307708},{"target_group":"white","condition_label":"W_H_vs_B_L_rep20","target_direction":137,"distractor_direction":25,"session_rotation":98,"rt":-1,"response":"","correct":false,"choices":"ALL_KEYS","correct_choice":["a"],"trial_duration":2000,"flip_timestamps":[],"response_ends_trial":false,"number_of_apertures":200,"number_of_dots":[1,1,1,1,1,1,1,1,1,1,1,1,1,1,1,1,1,1,1,1,1,1,1,1,1,1,1,1,1,1,1,1,1,1,1,1,1,1,1,1,1,1,1,1,1,1,1,1,1,1,1,1,1,1,1,1,1,1,1,1,1,1,1,1,1,1,1,1,1,1,1,1,1,1,1,1,1,1,1,1,1,1,1,1,1,1,1,1,1,1,1,1,1,1,1,1,1,1,1,1,1,1,1,1,1,1,1,1,1,1,1,1,1,1,1,1,1,1,1,1,1,1,1,1,1,1,1,1,1,1,1,1,1,1,1,1,1,1,1,1,1,1,1,1,1,1,1,1,1,1,1,1,1,1,1,1,1,1,1,1,1,1,1,1,1,1,1,1,1,1,1,1,1,1,1,1,1,1,1,1,1,1,1,1,1,1,1,1,1,1,1,1,1,1,1,1,1,1,1,1],"number_of_sets":1,"coherent_direction":[137,25,137,137,25,137,137,25,25,137,137,25,25,137,25,137,137,137,25,25,25,25,25,137,25,25,137,137,25,25,25,25,137,137,25,25,137,25,137,25,137,25,25,25,25,137,25,25,25,137,25,137,137,137,137,137,137,25,25,25,137,137,137,25,137,137,25,25,25,25,137,25,25,137,137,137,137,25,25,137,137,25,25,25,25,25,137,25,137,25,25,25,137,137,25,25,25,137,137,25,137,137,25,137,137,137,25,137,25,137,137,25,25,25,137,25,25,137,25,25,25,25,25,137,137,25,137,25,25,137,137,25,25,25,137,137,137,25,25,25,137,25,137,25,25,25,137,137,25,25,137,137,137,137,137,25,25,137,137,137,25,137,25,137,25,25,137,137,137,137,137,137,137,137,25,137,137,25,25,137,25,137,25,25,25,137,137,25,137,137,137,137,25,137,25,25,137,137,137,137],"coherence":1,"opposite_coherence":0,"dot_radius":2,"dot_side_length":1,"dot_life":-1,"move_distance":1,"aperture_width":300,"aperture_height":300,"dot_color":["white","black","white","white","black","white","white","black","black","white","white","black","black","white","black","white","white","white","black","black","black","black","black","white","black","black","white","white","black","black","black","black","white","white","black","black","white","black","white","black","white","black","black","black","black","white","black","black","black","white","black","white","white","white","white","white","white","black","black","black","white","white","white","black","white","white","black","black","black","black","white","black","black","white","white","white","white","black","black","white","white","black","black","black","black","black","white","black","white","black","black","black","white","white","black","black","black","white","white","black","white","white","black","white","white","white","black","white","black","white","white","black","black","black","white","black","black","white","black","black","black","black","black","white","white","black","white","black","black","white","white","black","black","black","white","white","white","black","black","black","white","black","white","black","black","black","white","white","black","black","white","white","white","white","white","black","black","white","white","white","black","white","black","white","black","black","white","white","white","white","white","white","white","white","black","white","white","black","black","white","black","white","black","black","black","white","white","black","white","white","white","white","black","white","black","black","white","white","white","white"],"dot_shape":"circle","background_color":"#AAA","RDK_type":3,"aperture_type":2,"reinsert_type":2,"frame_rate":16.644628099173552,"frame_rate_array":[7,12,17,16,17,16,17,17,17,18,15,18,16,17,17,17,17,17,17,16,18,16,18,16,16,18,17,16,16,18,15,17,16,17,17,17,17,17,16,18,16,17,17,18,17,16,16,16,16,17,17,16,18,16,16,17,16,17,17,18,17,16,17,16,18,15,17,17,17,17,17,17,18,15,17,17,16,16,18,16,18,16,17,17,18,16,16,17,17,17,17,18,17,17,18,14,16,17,16,17,18,16,16,18,15,17,17,18,16,17,16,17,17,17,16,18,16,17,17,16,18],"number_of_frames":121,"aperture_center_x":683,"aperture_center_y":384,"fixation_cross":true,"fixation_cross_width":15,"fixation_cross_height":15,"fixation_cross_color":"#111","fixation_cross_thickness":1,"border":true,"border_thickness":2,"border_color":"transparent","canvas_width":1366,"canvas_height":768,"trial_type":"rdk","trial_index":52,"plugin_version":"2.0.0","time_elapsed":309717},{"rt":3069,"stimulus":"\n        <div class=\"response-container\">\n          <div class=\"response-instruction\">\n            <p>rotate the bar by using the left and right arrow keys.</p>\n            <p>when you are determined, press the Enter key.</p>\n          </div>\n          <div class=\"response-circle\">\n            <div class=\"response-fixation\"></div>\n            <div id=\"bar\" class=\"rotating-bar\"></div>\n          </div>\n        </div>\n      ","response":"Enter","trial_type":"html-keyboard-response","trial_index":53,"plugin_version":"2.1.0","time_elapsed":312788,"response_angle_css":53,"response_angle_rdk":37,"angular_error_target":-100,"angular_error_distractor":12,"target_direction":137,"target_group":"white","reward_points":0},{"rt":null,"stimulus":"\n          <p style=\"color: #FF3333;\">Your reward: 0 points</p>\n        ","response":null,"trial_type":"html-keyboard-response","trial_index":54,"plugin_version":"2.1.0","time_elapsed":314796},{"rt":null,"stimulus":"<div class=\"fixation\" style=\"font-size: 60px;\">+</div>","response":null,"trial_type":"html-keyboard-response","trial_index":55,"plugin_version":"2.1.0","time_elapsed":315801},{"target_group":"white","condition_label":"W_H_vs_B_L_rep10","target_direction":136,"distractor_direction":44,"session_rotation":98,"rt":-1,"response":"","correct":false,"choices":"ALL_KEYS","correct_choice":["a"],"trial_duration":2000,"flip_timestamps":[],"response_ends_trial":false,"number_of_apertures":200,"number_of_dots":[1,1,1,1,1,1,1,1,1,1,1,1,1,1,1,1,1,1,1,1,1,1,1,1,1,1,1,1,1,1,1,1,1,1,1,1,1,1,1,1,1,1,1,1,1,1,1,1,1,1,1,1,1,1,1,1,1,1,1,1,1,1,1,1,1,1,1,1,1,1,1,1,1,1,1,1,1,1,1,1,1,1,1,1,1,1,1,1,1,1,1,1,1,1,1,1,1,1,1,1,1,1,1,1,1,1,1,1,1,1,1,1,1,1,1,1,1,1,1,1,1,1,1,1,1,1,1,1,1,1,1,1,1,1,1,1,1,1,1,1,1,1,1,1,1,1,1,1,1,1,1,1,1,1,1,1,1,1,1,1,1,1,1,1,1,1,1,1,1,1,1,1,1,1,1,1,1,1,1,1,1,1,1,1,1,1,1,1,1,1,1,1,1,1,1,1,1,1,1,1],"number_of_sets":1,"coherent_direction":[44,44,136,136,136,44,44,136,136,44,136,136,136,136,44,44,136,44,44,136,136,136,136,136,44,136,136,136,136,136,136,44,44,44,136,136,44,136,136,136,136,44,136,44,136,136,136,136,44,44,136,136,44,44,44,44,44,44,44,136,44,136,136,136,136,136,44,136,136,136,136,44,136,44,44,44,44,44,136,44,44,44,44,44,136,44,44,136,44,136,136,44,136,44,44,136,44,136,136,136,44,44,136,136,44,44,136,44,44,44,44,44,136,44,44,136,44,136,136,44,136,44,136,136,136,136,136,44,44,136,44,44,44,44,136,136,136,44,44,44,136,44,136,136,44,44,44,44,44,44,44,44,136,44,44,44,44,136,136,136,44,136,44,136,136,44,136,136,136,44,136,136,136,136,136,44,136,44,44,44,44,44,44,44,44,44,44,44,136,136,136,136,136,136,44,44,136,44,136,136],"coherence":1,"opposite_coherence":0,"dot_radius":2,"dot_side_length":1,"dot_life":-1,"move_distance":1,"aperture_width":300,"aperture_height":300,"dot_color":["black","black","white","white","white","black","black","white","white","black","white","white","white","white","black","black","white","black","black","white","white","white","white","white","black","white","white","white","white","white","white","black","black","black","white","white","black","white","white","white","white","black","white","black","white","white","white","white","black","black","white","white","black","black","black","black","black","black","black","white","black","white","white","white","white","white","black","white","white","white","white","black","white","black","black","black","black","black","white","black","black","black","black","black","white","black","black","white","black","white","white","black","white","black","black","white","black","white","white","white","black","black","white","white","black","black","white","black","black","black","black","black","white","black","black","white","black","white","white","black","white","black","white","white","white","white","white","black","black","white","black","black","black","black","white","white","white","black","black","black","white","black","white","white","black","black","black","black","black","black","black","black","white","black","black","black","black","white","white","white","black","white","black","white","white","black","white","white","white","black","white","white","white","white","white","black","white","black","black","black","black","black","black","black","black","black","black","black","white","white","white","white","white","white","black","black","white","black","white","white"],"dot_shape":"circle","background_color":"#AAA","RDK_type":3,"aperture_type":2,"reinsert_type":2,"frame_rate":16.636363636363637,"frame_rate_array":[7,12,16,17,17,16,17,16,17,17,17,17,16,18,16,17,18,17,16,17,18,16,17,18,17,16,16,17,18,15,16,17,17,17,17,17,17,19,16,15,16,17,18,16,18,16,16,17,17,19,15,16,16,17,17,17,17,17,17,18,16,15,16,18,17,16,18,16,19,15,17,15,15,16,16,18,17,17,17,16,17,16,17,16,18,17,16,16,17,16,17,17,16,17,20,16,18,18,17,16,16,17,17,16,13,18,17,18,17,18,16,17,17,17,15,17,16,17,17,17,18],"number_of_frames":121,"aperture_center_x":683,"aperture_center_y":384,"fixation_cross":true,"fixation_cross_width":15,"fixation_cross_height":15,"fixation_cross_color":"#111","fixation_cross_thickness":1,"border":true,"border_thickness":2,"border_color":"transparent","canvas_width":1366,"canvas_height":768,"trial_type":"rdk","trial_index":56,"plugin_version":"2.0.0","time_elapsed":317813},{"rt":3779,"stimulus":"\n        <div class=\"response-container\">\n          <div class=\"response-instruction\">\n            <p>rotate the bar by using the left and right arrow keys.</p>\n            <p>when you are determined, press the Enter key.</p>\n          </div>\n          <div class=\"response-circle\">\n            <div class=\"response-fixation\"></div>\n            <div id=\"bar\" class=\"rotating-bar\"></div>\n          </div>\n        </div>\n      ","response":"Enter","trial_type":"html-keyboard-response","trial_index":57,"plugin_version":"2.1.0","time_elapsed":321594,"response_angle_css":-42,"response_angle_rdk":132,"angular_error_target":-4,"angular_error_distractor":88,"target_direction":136,"target_group":"white","reward_points":9},{"rt":null,"stimulus":"\n          <p style=\"color: #00FF00;\">Your reward: 9 points</p>\n        ","response":null,"trial_type":"html-keyboard-response","trial_index":58,"plugin_version":"2.1.0","time_elapsed":323609},{"rt":null,"stimulus":"<div class=\"fixation\" style=\"font-size: 60px;\">+</div>","response":null,"trial_type":"html-keyboard-response","trial_index":59,"plugin_version":"2.1.0","time_elapsed":324621},{"target_group":"white","condition_label":"W_H_vs_B_L_rep8","target_direction":123,"distractor_direction":15,"session_rotation":98,"rt":-1,"response":"","correct":false,"choices":"ALL_KEYS","correct_choice":["a"],"trial_duration":2000,"flip_timestamps":[],"response_ends_trial":false,"number_of_apertures":200,"number_of_dots":[1,1,1,1,1,1,1,1,1,1,1,1,1,1,1,1,1,1,1,1,1,1,1,1,1,1,1,1,1,1,1,1,1,1,1,1,1,1,1,1,1,1,1,1,1,1,1,1,1,1,1,1,1,1,1,1,1,1,1,1,1,1,1,1,1,1,1,1,1,1,1,1,1,1,1,1,1,1,1,1,1,1,1,1,1,1,1,1,1,1,1,1,1,1,1,1,1,1,1,1,1,1,1,1,1,1,1,1,1,1,1,1,1,1,1,1,1,1,1,1,1,1,1,1,1,1,1,1,1,1,1,1,1,1,1,1,1,1,1,1,1,1,1,1,1,1,1,1,1,1,1,1,1,1,1,1,1,1,1,1,1,1,1,1,1,1,1,1,1,1,1,1,1,1,1,1,1,1,1,1,1,1,1,1,1,1,1,1,1,1,1,1,1,1,1,1,1,1,1,1],"number_of_sets":1,"coherent_direction":[123,15,15,15,15,15,15,123,123,15,123,123,15,123,15,123,123,15,123,123,123,123,15,123,123,123,15,123,15,15,123,15,15,123,15,15,15,15,15,123,15,15,123,123,15,15,15,123,15,123,15,15,123,15,15,123,15,15,123,15,123,123,15,15,123,123,123,123,123,15,15,123,15,123,123,15,123,123,15,15,123,123,15,123,123,15,123,15,123,123,15,123,123,15,15,15,15,15,15,123,123,15,15,15,123,123,123,123,15,123,15,123,15,123,15,123,15,123,15,123,15,15,123,123,123,123,123,15,15,123,15,123,15,123,123,15,15,123,123,123,15,123,123,15,123,123,15,123,123,15,123,123,123,15,15,123,15,123,15,123,15,123,15,15,123,15,123,15,15,123,15,123,15,15,15,15,123,15,123,15,123,15,123,123,15,15,123,15,123,15,15,123,123,123,15,15,15,15,123,123],"coherence":1,"opposite_coherence":0,"dot_radius":2,"dot_side_length":1,"dot_life":-1,"move_distance":1,"aperture_width":300,"aperture_height":300,"dot_color":["white","black","black","black","black","black","black","white","white","black","white","white","black","white","black","white","white","black","white","white","white","white","black","white","white","white","black","white","black","black","white","black","black","white","black","black","black","black","black","white","black","black","white","white","black","black","black","white","black","white","black","black","white","black","black","white","black","black","white","black","white","white","black","black","white","white","white","white","white","black","black","white","black","white","white","black","white","white","black","black","white","white","black","white","white","black","white","black","white","white","black","white","white","black","black","black","black","black","black","white","white","black","black","black","white","white","white","white","black","white","black","white","black","white","black","white","black","white","black","white","black","black","white","white","white","white","white","black","black","white","black","white","black","white","white","black","black","white","white","white","black","white","white","black","white","white","black","white","white","black","white","white","white","black","black","white","black","white","black","white","black","white","black","black","white","black","white","black","black","white","black","white","black","black","black","black","white","black","white","black","white","black","white","white","black","black","white","black","white","black","black","white","white","white","black","black","black","black","white","white"],"dot_shape":"circle","background_color":"#AAA","RDK_type":3,"aperture_type":2,"reinsert_type":2,"frame_rate":16.691666666666666,"frame_rate_array":[11,18,16,16,17,16,17,17,17,17,16,17,17,17,16,15,16,17,16,17,17,17,17,16,17,17,16,17,17,16,17,17,17,16,17,17,17,17,17,17,17,17,17,17,16,16,17,19,15,17,17,17,17,17,17,16,17,17,17,16,17,17,17,17,17,17,17,17,17,17,17,17,17,17,17,16,17,16,17,17,17,17,16,17,17,16,17,16,17,17,17,16,17,16,17,17,17,17,17,17,16,17,16,17,17,17,17,17,16,16,16,17,17,16,17,17,17,16,17,16],"number_of_frames":120,"aperture_center_x":683,"aperture_center_y":384,"fixation_cross":true,"fixation_cross_width":15,"fixation_cross_height":15,"fixation_cross_color":"#111","fixation_cross_thickness":1,"border":true,"border_thickness":2,"border_color":"transparent","canvas_width":1366,"canvas_height":768,"trial_type":"rdk","trial_index":60,"plugin_version":"2.0.0","time_elapsed":326631},{"rt":4819,"stimulus":"\n        <div class=\"response-container\">\n          <div class=\"response-instruction\">\n            <p>rotate the bar by using the left and right arrow keys.</p>\n            <p>when you are determined, press the Enter key.</p>\n          </div>\n          <div class=\"response-circle\">\n            <div class=\"response-fixation\"></div>\n            <div id=\"bar\" class=\"rotating-bar\"></div>\n          </div>\n        </div>\n      ","response":"Enter","trial_type":"html-keyboard-response","trial_index":61,"plugin_version":"2.1.0","time_elapsed":331451,"response_angle_css":395,"response_angle_rdk":55,"angular_error_target":-68,"angular_error_distractor":40,"target_direction":123,"target_group":"white","reward_points":0},{"rt":null,"stimulus":"\n          <p style=\"color: #FF3333;\">Your reward: 0 points</p>\n        ","response":null,"trial_type":"html-keyboard-response","trial_index":62,"plugin_version":"2.1.0","time_elapsed":333455},{"rt":null,"stimulus":"<div class=\"fixation\" style=\"font-size: 60px;\">+</div>","response":null,"trial_type":"html-keyboard-response","trial_index":63,"plugin_version":"2.1.0","time_elapsed":334468},{"target_group":"black","condition_label":"B_H_vs_W_L_rep3","target_direction":188,"distractor_direction":315,"session_rotation":98,"rt":-1,"response":"","correct":false,"choices":"ALL_KEYS","correct_choice":["a"],"trial_duration":2000,"flip_timestamps":[],"response_ends_trial":false,"number_of_apertures":200,"number_of_dots":[1,1,1,1,1,1,1,1,1,1,1,1,1,1,1,1,1,1,1,1,1,1,1,1,1,1,1,1,1,1,1,1,1,1,1,1,1,1,1,1,1,1,1,1,1,1,1,1,1,1,1,1,1,1,1,1,1,1,1,1,1,1,1,1,1,1,1,1,1,1,1,1,1,1,1,1,1,1,1,1,1,1,1,1,1,1,1,1,1,1,1,1,1,1,1,1,1,1,1,1,1,1,1,1,1,1,1,1,1,1,1,1,1,1,1,1,1,1,1,1,1,1,1,1,1,1,1,1,1,1,1,1,1,1,1,1,1,1,1,1,1,1,1,1,1,1,1,1,1,1,1,1,1,1,1,1,1,1,1,1,1,1,1,1,1,1,1,1,1,1,1,1,1,1,1,1,1,1,1,1,1,1,1,1,1,1,1,1,1,1,1,1,1,1,1,1,1,1,1,1],"number_of_sets":1,"coherent_direction":[188,188,315,315,315,315,188,315,188,188,315,188,315,315,188,315,315,315,188,188,188,315,188,188,188,188,315,315,188,188,315,315,315,315,315,315,188,315,188,188,315,315,188,188,188,315,188,315,188,315,188,188,188,188,315,315,315,188,315,315,188,188,315,188,315,315,315,188,315,188,188,188,188,188,188,315,315,315,315,188,188,315,188,188,315,188,315,188,315,188,315,188,315,188,315,188,188,315,188,188,188,188,315,315,188,188,315,188,188,315,315,315,315,188,188,315,188,315,188,315,315,315,188,315,315,315,315,188,188,315,315,188,315,315,315,188,188,315,315,188,315,315,188,188,315,188,188,188,315,188,188,188,188,315,315,188,188,188,315,315,315,315,188,188,188,315,188,315,188,315,315,315,315,188,315,315,188,315,188,315,188,315,315,315,188,315,188,188,315,188,315,315,188,188,188,315,188,188,315,188],"coherence":1,"opposite_coherence":0,"dot_radius":2,"dot_side_length":1,"dot_life":-1,"move_distance":1,"aperture_width":300,"aperture_height":300,"dot_color":["black","black","white","white","white","white","black","white","black","black","white","black","white","white","black","white","white","white","black","black","black","white","black","black","black","black","white","white","black","black","white","white","white","white","white","white","black","white","black","black","white","white","black","black","black","white","black","white","black","white","black","black","black","black","white","white","white","black","white","white","black","black","white","black","white","white","white","black","white","black","black","black","black","black","black","white","white","white","white","black","black","white","black","black","white","black","white","black","white","black","white","black","white","black","white","black","black","white","black","black","black","black","white","white","black","black","white","black","black","white","white","white","white","black","black","white","black","white","black","white","white","white","black","white","white","white","white","black","black","white","white","black","white","white","white","black","black","white","white","black","white","white","black","black","white","black","black","black","white","black","black","black","black","white","white","black","black","black","white","white","white","white","black","black","black","white","black","white","black","white","white","white","white","black","white","white","black","white","black","white","black","white","white","white","black","white","black","black","white","black","white","white","black","black","black","white","black","black","white","black"],"dot_shape":"circle","background_color":"#AAA","RDK_type":3,"aperture_type":2,"reinsert_type":2,"frame_rate":16.59504132231405,"frame_rate_array":[17,6,14,16,17,17,16,16,17,16,18,17,17,15,17,16,17,17,17,17,16,18,17,17,17,17,16,17,17,17,16,17,17,16,17,17,18,16,16,16,18,17,16,17,17,16,17,14,18,17,16,16,17,18,16,17,17,17,16,17,17,17,16,18,17,15,17,17,17,16,18,17,15,19,15,17,19,14,17,17,17,16,17,17,16,16,18,15,17,16,17,16,18,16,17,17,18,17,17,15,16,20,15,16,15,18,16,16,16,17,17,16,17,18,16,17,17,18,16,16,18],"number_of_frames":121,"aperture_center_x":683,"aperture_center_y":384,"fixation_cross":true,"fixation_cross_width":15,"fixation_cross_height":15,"fixation_cross_color":"#111","fixation_cross_thickness":1,"border":true,"border_thickness":2,"border_color":"transparent","canvas_width":1366,"canvas_height":768,"trial_type":"rdk","trial_index":64,"plugin_version":"2.0.0","time_elapsed":336480},{"rt":4018,"stimulus":"\n        <div class=\"response-container\">\n          <div class=\"response-instruction\">\n            <p>rotate the bar by using the left and right arrow keys.</p>\n            <p>when you are determined, press the Enter key.</p>\n          </div>\n          <div class=\"response-circle\">\n            <div class=\"response-fixation\"></div>\n            <div id=\"bar\" class=\"rotating-bar\"></div>\n          </div>\n        </div>\n      ","response":"Enter","trial_type":"html-keyboard-response","trial_index":65,"plugin_version":"2.1.0","time_elapsed":340499,"response_angle_css":133,"response_angle_rdk":317,"angular_error_target":129,"angular_error_distractor":2,"target_direction":188,"target_group":"black","reward_points":0},{"rt":null,"stimulus":"\n          <p style=\"color: #FF3333;\">Your reward: 0 points</p>\n        ","response":null,"trial_type":"html-keyboard-response","trial_index":66,"plugin_version":"2.1.0","time_elapsed":342507},{"rt":null,"stimulus":"<div class=\"fixation\" style=\"font-size: 60px;\">+</div>","response":null,"trial_type":"html-keyboard-response","trial_index":67,"plugin_version":"2.1.0","time_elapsed":343511},{"target_group":"white","condition_label":"W_H_vs_B_L_rep1","target_direction":123,"distractor_direction":19,"session_rotation":98,"rt":-1,"response":"","correct":false,"choices":"ALL_KEYS","correct_choice":["a"],"trial_duration":2000,"flip_timestamps":[],"response_ends_trial":false,"number_of_apertures":200,"number_of_dots":[1,1,1,1,1,1,1,1,1,1,1,1,1,1,1,1,1,1,1,1,1,1,1,1,1,1,1,1,1,1,1,1,1,1,1,1,1,1,1,1,1,1,1,1,1,1,1,1,1,1,1,1,1,1,1,1,1,1,1,1,1,1,1,1,1,1,1,1,1,1,1,1,1,1,1,1,1,1,1,1,1,1,1,1,1,1,1,1,1,1,1,1,1,1,1,1,1,1,1,1,1,1,1,1,1,1,1,1,1,1,1,1,1,1,1,1,1,1,1,1,1,1,1,1,1,1,1,1,1,1,1,1,1,1,1,1,1,1,1,1,1,1,1,1,1,1,1,1,1,1,1,1,1,1,1,1,1,1,1,1,1,1,1,1,1,1,1,1,1,1,1,1,1,1,1,1,1,1,1,1,1,1,1,1,1,1,1,1,1,1,1,1,1,1,1,1,1,1,1,1],"number_of_sets":1,"coherent_direction":[123,123,19,123,19,19,19,123,19,123,19,19,123,19,19,123,19,123,19,123,123,19,19,19,123,19,123,123,19,19,19,123,19,123,19,19,19,19,19,19,19,19,19,123,123,19,123,123,19,123,123,19,19,19,19,123,19,123,19,19,19,123,123,19,19,19,19,19,19,123,19,19,123,19,19,123,123,123,123,19,123,123,123,19,123,19,19,19,19,19,123,123,19,19,19,123,123,123,123,19,19,123,123,19,19,123,19,123,123,123,19,123,19,19,19,19,123,19,123,123,123,123,123,19,123,123,123,19,123,123,123,123,19,123,19,123,19,19,19,19,123,123,123,123,123,19,123,123,123,123,19,123,123,19,123,123,19,123,123,19,123,123,123,19,19,123,19,19,123,19,19,123,19,19,123,19,19,19,123,19,19,123,123,123,123,123,123,123,123,123,123,19,19,123,123,123,19,19,123,19],"coherence":1,"opposite_coherence":0,"dot_radius":2,"dot_side_length":1,"dot_life":-1,"move_distance":1,"aperture_width":300,"aperture_height":300,"dot_color":["white","white","black","white","black","black","black","white","black","white","black","black","white","black","black","white","black","white","black","white","white","black","black","black","white","black","white","white","black","black","black","white","black","white","black","black","black","black","black","black","black","black","black","white","white","black","white","white","black","white","white","black","black","black","black","white","black","white","black","black","black","white","white","black","black","black","black","black","black","white","black","black","white","black","black","white","white","white","white","black","white","white","white","black","white","black","black","black","black","black","white","white","black","black","black","white","white","white","white","black","black","white","white","black","black","white","black","white","white","white","black","white","black","black","black","black","white","black","white","white","white","white","white","black","white","white","white","black","white","white","white","white","black","white","black","white","black","black","black","black","white","white","white","white","white","black","white","white","white","white","black","white","white","black","white","white","black","white","white","black","white","white","white","black","black","white","black","black","white","black","black","white","black","black","white","black","black","black","white","black","black","white","white","white","white","white","white","white","white","white","white","black","black","white","white","white","black","black","white","black"],"dot_shape":"circle","background_color":"#AAA","RDK_type":3,"aperture_type":2,"reinsert_type":2,"frame_rate":16.59504132231405,"frame_rate_array":[9,12,16,17,17,16,17,16,17,16,17,17,16,15,16,17,16,17,17,16,17,16,17,17,17,16,17,17,16,17,18,18,17,17,16,17,17,16,17,16,17,17,16,18,15,16,17,17,16,16,17,18,16,17,18,18,15,16,17,17,18,16,16,17,16,17,18,17,16,17,18,16,17,18,15,17,17,17,17,16,17,17,15,18,15,17,17,17,17,16,18,17,16,16,17,17,18,16,16,17,19,18,14,17,16,15,17,16,20,15,15,19,15,16,18,16,18,16,17,17,17],"number_of_frames":121,"aperture_center_x":683,"aperture_center_y":384,"fixation_cross":true,"fixation_cross_width":15,"fixation_cross_height":15,"fixation_cross_color":"#111","fixation_cross_thickness":1,"border":true,"border_thickness":2,"border_color":"transparent","canvas_width":1366,"canvas_height":768,"trial_type":"rdk","trial_index":68,"plugin_version":"2.0.0","time_elapsed":345521},{"rt":2410,"stimulus":"\n        <div class=\"response-container\">\n          <div class=\"response-instruction\">\n            <p>rotate the bar by using the left and right arrow keys.</p>\n            <p>when you are determined, press the Enter key.</p>\n          </div>\n          <div class=\"response-circle\">\n            <div class=\"response-fixation\"></div>\n            <div id=\"bar\" class=\"rotating-bar\"></div>\n          </div>\n        </div>\n      ","response":"Enter","trial_type":"html-keyboard-response","trial_index":69,"plugin_version":"2.1.0","time_elapsed":347933,"response_angle_css":404,"response_angle_rdk":46,"angular_error_target":-77,"angular_error_distractor":27,"target_direction":123,"target_group":"white","reward_points":0},{"rt":null,"stimulus":"\n          <p style=\"color: #FF3333;\">Your reward: 0 points</p>\n        ","response":null,"trial_type":"html-keyboard-response","trial_index":70,"plugin_version":"2.1.0","time_elapsed":349946},{"rt":null,"stimulus":"<div class=\"fixation\" style=\"font-size: 60px;\">+</div>","response":null,"trial_type":"html-keyboard-response","trial_index":71,"plugin_version":"2.1.0","time_elapsed":350959},{"target_group":"black","condition_label":"B_H_vs_W_L_rep4","target_direction":190,"distractor_direction":295,"session_rotation":98,"rt":-1,"response":"","correct":false,"choices":"ALL_KEYS","correct_choice":["a"],"trial_duration":2000,"flip_timestamps":[],"response_ends_trial":false,"number_of_apertures":200,"number_of_dots":[1,1,1,1,1,1,1,1,1,1,1,1,1,1,1,1,1,1,1,1,1,1,1,1,1,1,1,1,1,1,1,1,1,1,1,1,1,1,1,1,1,1,1,1,1,1,1,1,1,1,1,1,1,1,1,1,1,1,1,1,1,1,1,1,1,1,1,1,1,1,1,1,1,1,1,1,1,1,1,1,1,1,1,1,1,1,1,1,1,1,1,1,1,1,1,1,1,1,1,1,1,1,1,1,1,1,1,1,1,1,1,1,1,1,1,1,1,1,1,1,1,1,1,1,1,1,1,1,1,1,1,1,1,1,1,1,1,1,1,1,1,1,1,1,1,1,1,1,1,1,1,1,1,1,1,1,1,1,1,1,1,1,1,1,1,1,1,1,1,1,1,1,1,1,1,1,1,1,1,1,1,1,1,1,1,1,1,1,1,1,1,1,1,1,1,1,1,1,1,1],"number_of_sets":1,"coherent_direction":[295,295,190,295,190,190,190,295,295,190,295,190,295,190,190,295,295,295,190,295,295,190,190,295,295,295,295,295,295,295,295,295,190,295,295,190,190,190,295,295,190,295,190,295,295,295,295,295,190,190,295,295,295,190,295,190,295,190,190,295,190,190,295,190,295,295,190,190,190,190,190,190,190,295,190,295,295,190,295,295,295,295,190,295,190,295,190,190,295,295,295,295,190,190,190,295,295,190,190,190,295,295,190,295,295,295,295,295,190,295,295,190,190,190,190,295,295,295,295,190,295,295,190,190,295,295,190,190,190,190,190,295,190,190,295,190,190,295,295,190,190,295,295,190,190,190,190,190,295,190,190,190,190,295,190,190,190,190,190,190,295,190,190,190,295,190,295,295,190,295,190,190,295,295,190,190,295,295,190,190,295,190,190,190,190,190,295,190,190,295,295,295,295,295,190,295,295,295,295,190],"coherence":1,"opposite_coherence":0,"dot_radius":2,"dot_side_length":1,"dot_life":-1,"move_distance":1,"aperture_width":300,"aperture_height":300,"dot_color":["white","white","black","white","black","black","black","white","white","black","white","black","white","black","black","white","white","white","black","white","white","black","black","white","white","white","white","white","white","white","white","white","black","white","white","black","black","black","white","white","black","white","black","white","white","white","white","white","black","black","white","white","white","black","white","black","white","black","black","white","black","black","white","black","white","white","black","black","black","black","black","black","black","white","black","white","white","black","white","white","white","white","black","white","black","white","black","black","white","white","white","white","black","black","black","white","white","black","black","black","white","white","black","white","white","white","white","white","black","white","white","black","black","black","black","white","white","white","white","black","white","white","black","black","white","white","black","black","black","black","black","white","black","black","white","black","black","white","white","black","black","white","white","black","black","black","black","black","white","black","black","black","black","white","black","black","black","black","black","black","white","black","black","black","white","black","white","white","black","white","black","black","white","white","black","black","white","white","black","black","white","black","black","black","black","black","white","black","black","white","white","white","white","white","black","white","white","white","white","black"],"dot_shape":"circle","background_color":"#AAA","RDK_type":3,"aperture_type":2,"reinsert_type":2,"frame_rate":16.570247933884296,"frame_rate_array":[7,13,16,17,17,17,17,17,16,18,17,16,18,17,16,15,18,16,17,16,18,17,16,17,17,17,15,18,15,18,15,17,17,18,16,18,15,17,16,17,17,17,17,17,16,16,17,16,17,17,17,17,15,16,17,17,17,18,15,17,17,15,17,17,16,18,16,17,15,18,17,16,16,18,17,15,16,17,18,16,18,16,17,17,17,16,17,18,16,15,17,16,18,17,16,17,16,18,15,17,18,17,16,17,16,16,17,17,17,17,17,16,16,18,16,17,16,16,17,18,16],"number_of_frames":121,"aperture_center_x":683,"aperture_center_y":384,"fixation_cross":true,"fixation_cross_width":15,"fixation_cross_height":15,"fixation_cross_color":"#111","fixation_cross_thickness":1,"border":true,"border_thickness":2,"border_color":"transparent","canvas_width":1366,"canvas_height":768,"trial_type":"rdk","trial_index":72,"plugin_version":"2.0.0","time_elapsed":352968},{"rt":2206,"stimulus":"\n        <div class=\"response-container\">\n          <div class=\"response-instruction\">\n            <p>rotate the bar by using the left and right arrow keys.</p>\n            <p>when you are determined, press the Enter key.</p>\n          </div>\n          <div class=\"response-circle\">\n            <div class=\"response-fixation\"></div>\n            <div id=\"bar\" class=\"rotating-bar\"></div>\n          </div>\n        </div>\n      ","response":"Enter","trial_type":"html-keyboard-response","trial_index":73,"plugin_version":"2.1.0","time_elapsed":355176,"response_angle_css":121,"response_angle_rdk":329,"angular_error_target":139,"angular_error_distractor":34,"target_direction":190,"target_group":"black","reward_points":0},{"rt":null,"stimulus":"\n          <p style=\"color: #FF3333;\">Your reward: 0 points</p>\n        ","response":null,"trial_type":"html-keyboard-response","trial_index":74,"plugin_version":"2.1.0","time_elapsed":357185},{"rt":null,"stimulus":"<div class=\"fixation\" style=\"font-size: 60px;\">+</div>","response":null,"trial_type":"html-keyboard-response","trial_index":75,"plugin_version":"2.1.0","time_elapsed":358196},{"target_group":"white","condition_label":"W_H_vs_B_L_rep12","target_direction":138,"distractor_direction":45,"session_rotation":98,"rt":-1,"response":"","correct":false,"choices":"ALL_KEYS","correct_choice":["a"],"trial_duration":2000,"flip_timestamps":[],"response_ends_trial":false,"number_of_apertures":200,"number_of_dots":[1,1,1,1,1,1,1,1,1,1,1,1,1,1,1,1,1,1,1,1,1,1,1,1,1,1,1,1,1,1,1,1,1,1,1,1,1,1,1,1,1,1,1,1,1,1,1,1,1,1,1,1,1,1,1,1,1,1,1,1,1,1,1,1,1,1,1,1,1,1,1,1,1,1,1,1,1,1,1,1,1,1,1,1,1,1,1,1,1,1,1,1,1,1,1,1,1,1,1,1,1,1,1,1,1,1,1,1,1,1,1,1,1,1,1,1,1,1,1,1,1,1,1,1,1,1,1,1,1,1,1,1,1,1,1,1,1,1,1,1,1,1,1,1,1,1,1,1,1,1,1,1,1,1,1,1,1,1,1,1,1,1,1,1,1,1,1,1,1,1,1,1,1,1,1,1,1,1,1,1,1,1,1,1,1,1,1,1,1,1,1,1,1,1,1,1,1,1,1,1],"number_of_sets":1,"coherent_direction":[138,45,45,45,138,138,45,138,45,45,45,138,138,45,45,138,138,138,138,138,45,45,138,138,45,45,45,45,138,138,45,45,45,138,138,138,138,45,138,138,138,138,45,138,45,45,138,138,138,138,138,45,138,138,45,138,45,45,138,45,45,45,45,138,138,138,45,45,45,45,45,45,45,138,45,45,45,138,45,138,45,45,45,138,138,45,138,138,45,138,138,45,45,138,45,45,138,138,45,45,45,138,138,45,45,45,138,45,138,138,45,138,45,45,45,45,45,138,138,138,138,45,45,138,138,45,138,45,138,138,138,45,138,138,45,138,45,138,45,138,45,138,138,138,45,138,138,45,45,45,138,138,45,45,45,138,45,45,138,45,45,45,138,45,45,45,45,138,45,138,45,45,138,138,138,45,138,45,138,138,138,45,45,138,45,138,45,138,138,138,138,45,138,45,45,138,138,138,138,138],"coherence":1,"opposite_coherence":0,"dot_radius":2,"dot_side_length":1,"dot_life":-1,"move_distance":1,"aperture_width":300,"aperture_height":300,"dot_color":["white","black","black","black","white","white","black","white","black","black","black","white","white","black","black","white","white","white","white","white","black","black","white","white","black","black","black","black","white","white","black","black","black","white","white","white","white","black","white","white","white","white","black","white","black","black","white","white","white","white","white","black","white","white","black","white","black","black","white","black","black","black","black","white","white","white","black","black","black","black","black","black","black","white","black","black","black","white","black","white","black","black","black","white","white","black","white","white","black","white","white","black","black","white","black","black","white","white","black","black","black","white","white","black","black","black","white","black","white","white","black","white","black","black","black","black","black","white","white","white","white","black","black","white","white","black","white","black","white","white","white","black","white","white","black","white","black","white","black","white","black","white","white","white","black","white","white","black","black","black","white","white","black","black","black","white","black","black","white","black","black","black","white","black","black","black","black","white","black","white","black","black","white","white","white","black","white","black","white","white","white","black","black","white","black","white","black","white","white","white","white","black","white","black","black","white","white","white","white","white"],"dot_shape":"circle","background_color":"#AAA","RDK_type":3,"aperture_type":2,"reinsert_type":2,"frame_rate":16.691666666666666,"frame_rate_array":[14,17,16,17,17,17,19,16,15,17,17,17,17,16,17,16,13,16,17,17,16,17,17,17,18,17,18,15,17,17,17,21,12,17,16,17,18,17,15,17,16,17,17,16,17,17,17,17,17,19,14,17,16,17,17,17,17,17,17,16,16,16,17,17,17,17,16,18,17,16,17,17,16,18,16,15,17,17,15,16,18,16,17,17,17,17,17,17,16,18,17,17,16,17,17,16,17,17,17,17,16,17,17,16,18,16,17,16,17,17,17,18,15,16,17,17,17,17,16,18],"number_of_frames":120,"aperture_center_x":683,"aperture_center_y":384,"fixation_cross":true,"fixation_cross_width":15,"fixation_cross_height":15,"fixation_cross_color":"#111","fixation_cross_thickness":1,"border":true,"border_thickness":2,"border_color":"transparent","canvas_width":1366,"canvas_height":768,"trial_type":"rdk","trial_index":76,"plugin_version":"2.0.0","time_elapsed":360206},{"rt":5456,"stimulus":"\n        <div class=\"response-container\">\n          <div class=\"response-instruction\">\n            <p>rotate the bar by using the left and right arrow keys.</p>\n            <p>when you are determined, press the Enter key.</p>\n          </div>\n          <div class=\"response-circle\">\n            <div class=\"response-fixation\"></div>\n            <div id=\"bar\" class=\"rotating-bar\"></div>\n          </div>\n        </div>\n      ","response":"Enter","trial_type":"html-keyboard-response","trial_index":77,"plugin_version":"2.1.0","time_elapsed":365665,"response_angle_css":-50,"response_angle_rdk":140,"angular_error_target":2,"angular_error_distractor":95,"target_direction":138,"target_group":"white","reward_points":9},{"rt":null,"stimulus":"\n          <p style=\"color: #00FF00;\">Your reward: 9 points</p>\n        ","response":null,"trial_type":"html-keyboard-response","trial_index":78,"plugin_version":"2.1.0","time_elapsed":367680},{"rt":null,"stimulus":"<div class=\"fixation\" style=\"font-size: 60px;\">+</div>","response":null,"trial_type":"html-keyboard-response","trial_index":79,"plugin_version":"2.1.0","time_elapsed":368684},{"target_group":"black","condition_label":"B_H_vs_W_L_rep13","target_direction":216,"distractor_direction":306,"session_rotation":98,"rt":-1,"response":"","correct":false,"choices":"ALL_KEYS","correct_choice":["a"],"trial_duration":2000,"flip_timestamps":[],"response_ends_trial":false,"number_of_apertures":200,"number_of_dots":[1,1,1,1,1,1,1,1,1,1,1,1,1,1,1,1,1,1,1,1,1,1,1,1,1,1,1,1,1,1,1,1,1,1,1,1,1,1,1,1,1,1,1,1,1,1,1,1,1,1,1,1,1,1,1,1,1,1,1,1,1,1,1,1,1,1,1,1,1,1,1,1,1,1,1,1,1,1,1,1,1,1,1,1,1,1,1,1,1,1,1,1,1,1,1,1,1,1,1,1,1,1,1,1,1,1,1,1,1,1,1,1,1,1,1,1,1,1,1,1,1,1,1,1,1,1,1,1,1,1,1,1,1,1,1,1,1,1,1,1,1,1,1,1,1,1,1,1,1,1,1,1,1,1,1,1,1,1,1,1,1,1,1,1,1,1,1,1,1,1,1,1,1,1,1,1,1,1,1,1,1,1,1,1,1,1,1,1,1,1,1,1,1,1,1,1,1,1,1,1],"number_of_sets":1,"coherent_direction":[216,216,216,216,216,216,306,306,216,306,216,216,306,216,216,306,306,216,306,306,216,306,306,306,216,306,216,216,306,216,216,216,306,306,306,306,306,216,216,306,216,216,216,216,306,306,306,306,306,306,306,306,216,216,306,216,216,216,216,216,306,306,306,216,216,306,216,306,216,306,216,216,306,216,216,306,216,216,306,216,306,306,306,216,306,306,306,216,306,216,216,216,306,306,306,306,306,216,306,306,306,216,216,306,306,216,306,306,216,216,306,306,216,306,216,216,306,306,306,216,306,306,216,216,306,306,306,216,216,216,216,216,216,216,306,216,306,306,216,216,216,306,216,216,306,216,306,306,306,216,306,216,306,306,216,216,216,216,306,216,306,216,216,306,306,306,216,306,216,216,216,216,216,216,216,306,306,216,306,306,216,306,306,306,216,216,306,306,306,306,306,306,216,216,216,306,306,216,216,306],"coherence":1,"opposite_coherence":0,"dot_radius":2,"dot_side_length":1,"dot_life":-1,"move_distance":1,"aperture_width":300,"aperture_height":300,"dot_color":["black","black","black","black","black","black","white","white","black","white","black","black","white","black","black","white","white","black","white","white","black","white","white","white","black","white","black","black","white","black","black","black","white","white","white","white","white","black","black","white","black","black","black","black","white","white","white","white","white","white","white","white","black","black","white","black","black","black","black","black","white","white","white","black","black","white","black","white","black","white","black","black","white","black","black","white","black","black","white","black","white","white","white","black","white","white","white","black","white","black","black","black","white","white","white","white","white","black","white","white","white","black","black","white","white","black","white","white","black","black","white","white","black","white","black","black","white","white","white","black","white","white","black","black","white","white","white","black","black","black","black","black","black","black","white","black","white","white","black","black","black","white","black","black","white","black","white","white","white","black","white","black","white","white","black","black","black","black","white","black","white","black","black","white","white","white","black","white","black","black","black","black","black","black","black","white","white","black","white","white","black","white","white","white","black","black","white","white","white","white","white","white","black","bla