[{"rt":3812,"stimulus":"Welcome to the experiment. Press any key to begin.","response":" ","trial_type":"html-keyboard-response","trial_index":0,"plugin_version":"2.1.0","time_elapsed":3817},{"rt":78046,"stimulus":"\n        <div class=\"instructions-container\">\n          <h2>Instructions</h2>\n\n          <p>\n          In this experiment, you will see <strong>two Random Dot Kinematograms (RDKs)</strong> displayed simultaneously.\n          </p>\n\n          <p>\n          An RDK is a visual stimulus consisting of many small dots that move coherently in a single direction. \n          In this experiment, the dots will be either <strong>white</strong> or <strong>black</strong> \n          (see the short demo below for an example of an RDK stimulus).\n          </p>\n\n          <p>\n          On each trial, the two RDKs will move in different directions. \n          Your task is to decide <strong>which RDK appears to contain more dots</strong>.\n          </p>\n\n          <p>\n          The RDK that you judge to have more dots is called the <strong>target RDK</strong>. \n          For example, if the white RDK appears to have more dots than the black RDK, \n          you should report the motion direction of the white RDK.\n          </p>\n\n          <p>\n          After viewing the RDKs, you will rotate a bar to indicate the perceived direction of the target RDK \n          using the <strong>left</strong> and <strong>right arrow keys</strong>. \n          Press <strong>Enter</strong> when you are satisfied with your response.\n          </p>\n\n          <p>\n          You will receive points based on the <strong>accuracy of your response</strong>, \n          and your final <strong>bonus reward</strong> may depend on your overall performance. \n          Please try to respond as accurately as possible.\n          </p>\n\n          <p>\n          You will first complete <strong>three practice trials</strong>. \n          Press the <strong>Enter</strong> key to start the practice phase.\n          </p>\n\n          <canvas id=\"instruction-demo-rdk\" width=\"300\" height=\"300\"style=\"display:block;margin:12px auto; border-radius: 50%;\"></canvas>\n        </div>\n      ","response":"Enter","trial_type":"html-keyboard-response","trial_index":1,"plugin_version":"2.1.0","time_elapsed":81885},{"rt":null,"stimulus":"<div class=\"fixation\" style=\"font-size: 60px;\">+</div>","response":null,"trial_type":"html-keyboard-response","trial_index":2,"plugin_version":"2.1.0","time_elapsed":82888},{"target_group":"black","target_index":1,"condition_label":"B_H_vs_W_L","rt":-1,"response":"","correct":false,"choices":"ALL_KEYS","correct_choice":["a"],"trial_duration":2000,"flip_timestamps":[],"response_ends_trial":false,"number_of_apertures":2,"number_of_dots":[50,100],"number_of_sets":1,"coherent_direction":[10,100],"coherence":1,"opposite_coherence":0,"dot_radius":2,"dot_side_length":1,"dot_life":-1,"move_distance":1,"aperture_width":300,"aperture_height":300,"dot_color":["white","black"],"dot_shape":"circle","background_color":"#AAA","RDK_type":3,"aperture_type":2,"reinsert_type":2,"frame_rate":20.255102040816325,"frame_rate_array":[1,13,306,11,17,100,16,17,16,17,17,16,17,16,17,17,17,17,17,16,17,16,17,16,17,17,16,17,16,17,17,17,17,16,17,17,16,17,18,15,17,17,17,17,16,17,17,17,17,17,17,16,17,17,16,16,17,17,16,17,16,17,16,17,17,16,17,17,17,16,17,17,16,17,16,17,17,16,17,17,17,17,17,17,17,17,16,17,17,17,17,17,16,17,16,17,17,17],"number_of_frames":98,"aperture_center_x":640,"aperture_center_y":360,"fixation_cross":true,"fixation_cross_width":15,"fixation_cross_height":15,"fixation_cross_color":"#111","fixation_cross_thickness":1,"border":true,"border_thickness":2,"border_color":"transparent","canvas_width":1280,"canvas_height":720,"trial_type":"rdk","trial_index":3,"plugin_version":"2.0.0","time_elapsed":84902,"target_direction":100,"distractor_direction":10},{"rt":8425,"stimulus":"\n        <div class=\"response-container\">\n          <div class=\"response-instruction\">\n            <p>rotate the bar by using the left and right arrow keys.</p>\n            <p>when you are determined, press the Enter key.</p>\n          </div>\n          <div class=\"response-circle\">\n            <div class=\"response-fixation\"></div>\n            <div id=\"bar\" class=\"rotating-bar\"></div>\n          </div>\n        </div>\n      ","response":"Enter","trial_type":"html-keyboard-response","trial_index":4,"plugin_version":"2.1.0","time_elapsed":93328,"response_angle_css":-46,"response_angle_rdk":136,"angular_error_target":36,"angular_error_distractor":126,"target_direction":100,"target_group":"black","reward_points":2},{"rt":null,"stimulus":"\n          <p style=\"color: #FF3333;\">Your reward: 2 points</p>\n        ","response":null,"trial_type":"html-keyboard-response","trial_index":5,"plugin_version":"2.1.0","time_elapsed":95332},{"rt":null,"stimulus":"<div class=\"fixation\" style=\"font-size: 60px;\">+</div>","response":null,"trial_type":"html-keyboard-response","trial_index":6,"plugin_version":"2.1.0","time_elapsed":96348},{"target_group":"white","target_index":0,"condition_label":"W_H_vs_B_L","rt":-1,"response":"","correct":false,"choices":"ALL_KEYS","correct_choice":["a"],"trial_duration":2000,"flip_timestamps":[],"response_ends_trial":false,"number_of_apertures":2,"number_of_dots":[100,50],"number_of_sets":1,"coherent_direction":[150,30],"coherence":1,"opposite_coherence":0,"dot_radius":2,"dot_side_length":1,"dot_life":-1,"move_distance":1,"aperture_width":300,"aperture_height":300,"dot_color":["white","black"],"dot_shape":"circle","background_color":"#AAA","RDK_type":3,"aperture_type":2,"reinsert_type":2,"frame_rate":16.58677685950413,"frame_rate_array":[3,17,16,16,17,17,17,16,17,16,17,17,17,17,16,17,16,17,17,16,17,16,16,17,16,17,17,17,16,17,17,17,17,16,18,16,16,17,17,17,17,16,17,17,17,17,17,17,17,16,17,16,17,17,17,17,16,16,17,17,17,17,15,16,17,17,17,17,17,17,17,17,16,18,17,16,17,16,17,17,16,17,17,16,17,16,17,16,17,16,17,17,17,16,17,17,16,17,17,17,17,17,17,17,16,16,17,16,17,16,17,16,17,17,18,16,17,17,16,17,17],"number_of_frames":121,"aperture_center_x":640,"aperture_center_y":360,"fixation_cross":true,"fixation_cross_width":15,"fixation_cross_height":15,"fixation_cross_color":"#111","fixation_cross_thickness":1,"border":true,"border_thickness":2,"border_color":"transparent","canvas_width":1280,"canvas_height":720,"trial_type":"rdk","trial_index":7,"plugin_version":"2.0.0","time_elapsed":98355,"target_direction":150,"distractor_direction":30},{"rt":4807,"stimulus":"\n        <div class=\"response-container\">\n          <div class=\"response-instruction\">\n            <p>rotate the bar by using the left and right arrow keys.</p>\n            <p>when you are determined, press the Enter key.</p>\n          </div>\n          <div class=\"response-circle\">\n            <div class=\"response-fixation\"></div>\n            <div id=\"bar\" class=\"rotating-bar\"></div>\n          </div>\n        </div>\n      ","response":"Enter","trial_type":"html-keyboard-response","trial_index":8,"plugin_version":"2.1.0","time_elapsed":103163,"response_angle_css":-44,"response_angle_rdk":134,"angular_error_target":-16,"angular_error_distractor":104,"target_direction":150,"target_group":"white","reward_points":6},{"rt":null,"stimulus":"\n          <p style=\"color: #00FF00;\">Your reward: 6 points</p>\n        ","response":null,"trial_type":"html-keyboard-response","trial_index":9,"plugin_version":"2.1.0","time_elapsed":105168},{"rt":null,"stimulus":"<div class=\"fixation\" style=\"font-size: 60px;\">+</div>","response":null,"trial_type":"html-keyboard-response","trial_index":10,"plugin_version":"2.1.0","time_elapsed":106181},{"target_group":"black","target_index":1,"condition_label":"B_H_vs_W_L","rt":-1,"response":"","correct":false,"choices":"ALL_KEYS","correct_choice":["a"],"trial_duration":2000,"flip_timestamps":[],"response_ends_trial":false,"number_of_apertures":2,"number_of_dots":[50,100],"number_of_sets":1,"coherent_direction":[270,180],"coherence":1,"opposite_coherence":0,"dot_radius":2,"dot_side_length":1,"dot_life":-1,"move_distance":1,"aperture_width":300,"aperture_height":300,"dot_color":["white","black"],"dot_shape":"circle","background_color":"#AAA","RDK_type":3,"aperture_type":2,"reinsert_type":2,"frame_rate":16.691666666666666,"frame_rate_array":[13,16,16,17,17,17,17,17,17,17,16,17,17,16,17,17,16,17,17,16,17,17,16,17,16,17,17,16,17,16,16,17,17,17,17,17,16,17,17,17,17,16,17,17,16,17,17,17,17,17,16,17,16,17,16,16,18,16,17,17,16,17,17,17,16,17,17,16,17,17,16,17,17,17,16,17,17,17,17,17,17,17,17,17,17,17,17,17,17,17,17,17,17,16,17,17,17,16,16,16,17,17,16,17,16,17,17,17,17,17,16,17,17,16,16,17,17,17,17,16],"number_of_frames":120,"aperture_center_x":640,"aperture_center_y":360,"fixation_cross":true,"fixation_cross_width":15,"fixation_cross_height":15,"fixation_cross_color":"#111","fixation_cross_thickness":1,"border":true,"border_thickness":2,"border_color":"transparent","canvas_width":1280,"canvas_height":720,"trial_type":"rdk","trial_index":11,"plugin_version":"2.0.0","time_elapsed":108186,"target_direction":180,"distractor_direction":270},{"rt":6513,"stimulus":"\n        <div class=\"response-container\">\n          <div class=\"response-instruction\">\n            <p>rotate the bar by using the left and right arrow keys.</p>\n            <p>when you are determined, press the Enter key.</p>\n          </div>\n          <div class=\"response-circle\">\n            <div class=\"response-fixation\"></div>\n            <div id=\"bar\" class=\"rotating-bar\"></div>\n          </div>\n        </div>\n      ","response":"Enter","trial_type":"html-keyboard-response","trial_index":12,"plugin_version":"2.1.0","time_elapsed":114701,"response_angle_css":-89,"response_angle_rdk":179,"angular_error_target":-1,"angular_error_distractor":-91,"target_direction":180,"target_group":"black","reward_points":9},{"rt":null,"stimulus":"\n          <p style=\"color: #00FF00;\">Your reward: 9 points</p>\n        ","response":null,"trial_type":"html-keyboard-response","trial_index":13,"plugin_version":"2.1.0","time_elapsed":116716},{"rt":4954,"stimulus":"\n        <div class=\"instructions-container\">\n          <h2>End of Practice</h2>\n          <p>You have completed the practice trials.</p>\n          <p>Press <strong>Enter</strong> key to begin the main experiment.</p>\n        </div>\n      ","response":"Enter","trial_type":"html-keyboard-response","trial_index":14,"plugin_version":"2.1.0","time_elapsed":121671},{"rt":null,"stimulus":"<div class=\"fixation\" style=\"font-size: 60px;\">+</div>","response":null,"trial_type":"html-keyboard-response","trial_index":15,"plugin_version":"2.1.0","time_elapsed":122683},{"target_group":"white","condition_label":"W_H_vs_B_L_rep19","target_direction":355,"distractor_direction":265,"session_rotation":313,"rt":-1,"response":"","correct":false,"choices":"ALL_KEYS","correct_choice":["a"],"trial_duration":2000,"flip_timestamps":[],"response_ends_trial":false,"number_of_apertures":200,"number_of_dots":[1,1,1,1,1,1,1,1,1,1,1,1,1,1,1,1,1,1,1,1,1,1,1,1,1,1,1,1,1,1,1,1,1,1,1,1,1,1,1,1,1,1,1,1,1,1,1,1,1,1,1,1,1,1,1,1,1,1,1,1,1,1,1,1,1,1,1,1,1,1,1,1,1,1,1,1,1,1,1,1,1,1,1,1,1,1,1,1,1,1,1,1,1,1,1,1,1,1,1,1,1,1,1,1,1,1,1,1,1,1,1,1,1,1,1,1,1,1,1,1,1,1,1,1,1,1,1,1,1,1,1,1,1,1,1,1,1,1,1,1,1,1,1,1,1,1,1,1,1,1,1,1,1,1,1,1,1,1,1,1,1,1,1,1,1,1,1,1,1,1,1,1,1,1,1,1,1,1,1,1,1,1,1,1,1,1,1,1,1,1,1,1,1,1,1,1,1,1,1,1],"number_of_sets":1,"coherent_direction":[265,265,265,265,265,355,355,355,265,355,355,265,265,355,355,355,265,355,355,265,265,265,265,265,265,265,355,355,265,265,355,355,355,355,355,355,355,265,265,355,265,355,265,355,355,355,355,265,355,265,265,265,355,355,355,355,265,355,265,265,265,355,355,355,355,355,355,355,265,265,265,355,265,265,265,355,355,265,265,355,265,355,355,355,355,265,355,355,355,355,265,265,355,265,265,265,265,265,265,265,355,355,265,355,355,265,265,355,355,355,265,355,265,265,265,265,265,265,355,265,355,355,265,355,355,265,265,265,355,265,265,355,355,355,265,265,265,355,355,265,265,355,265,355,265,265,355,355,355,265,265,355,355,355,265,265,265,265,265,265,355,265,265,355,265,355,265,265,265,355,355,355,355,265,355,265,355,355,355,355,265,265,355,355,355,355,355,265,355,265,265,265,265,355,355,355,355,265,265,265],"coherence":1,"opposite_coherence":0,"dot_radius":2,"dot_side_length":1,"dot_life":-1,"move_distance":1,"aperture_width":300,"aperture_height":300,"dot_color":["black","black","black","black","black","white","white","white","black","white","white","black","black","white","white","white","black","white","white","black","black","black","black","black","black","black","white","white","black","black","white","white","white","white","white","white","white","black","black","white","black","white","black","white","white","white","white","black","white","black","black","black","white","white","white","white","black","white","black","black","black","white","white","white","white","white","white","white","black","black","black","white","black","black","black","white","white","black","black","white","black","white","white","white","white","black","white","white","white","white","black","black","white","black","black","black","black","black","black","black","white","white","black","white","white","black","black","white","white","white","black","white","black","black","black","black","black","black","white","black","white","white","black","white","white","black","black","black","white","black","black","white","white","white","black","black","black","white","white","black","black","white","black","white","black","black","white","white","white","black","black","white","white","white","black","black","black","black","black","black","white","black","black","white","black","white","black","black","black","white","white","white","white","black","white","black","white","white","white","white","black","black","white","white","white","white","white","black","white","black","black","black","black","white","white","white","white","black","black","black"],"dot_shape":"circle","background_color":"#AAA","RDK_type":3,"aperture_type":2,"reinsert_type":2,"frame_rate":16.658333333333335,"frame_rate_array":[14,16,17,17,17,17,16,17,16,17,17,17,16,17,17,17,16,17,17,16,16,17,17,17,16,17,16,18,16,17,17,16,16,17,17,16,18,17,15,17,17,16,17,17,16,17,18,33,1,15,17,17,16,17,16,17,17,17,17,16,17,17,16,15,17,17,17,17,17,16,17,17,17,17,17,16,16,17,16,17,17,17,16,17,16,17,16,17,16,17,17,16,17,17,17,16,17,17,17,17,17,17,15,17,17,16,16,17,17,17,17,17,17,17,16,17,18,15,17,17],"number_of_frames":120,"aperture_center_x":640,"aperture_center_y":360,"fixation_cross":true,"fixation_cross_width":15,"fixation_cross_height":15,"fixation_cross_color":"#111","fixation_cross_thickness":1,"border":true,"border_thickness":2,"border_color":"transparent","canvas_width":1280,"canvas_height":720,"trial_type":"rdk","trial_index":16,"plugin_version":"2.0.0","time_elapsed":124693},{"rt":4918,"stimulus":"\n        <div class=\"response-container\">\n          <div class=\"response-instruction\">\n            <p>rotate the bar by using the left and right arrow keys.</p>\n            <p>when you are determined, press the Enter key.</p>\n          </div>\n          <div class=\"response-circle\">\n            <div class=\"response-fixation\"></div>\n            <div id=\"bar\" class=\"rotating-bar\"></div>\n          </div>\n        </div>\n      ","response":"Enter","trial_type":"html-keyboard-response","trial_index":17,"plugin_version":"2.1.0","time_elapsed":129612,"response_angle_css":178,"response_angle_rdk":272,"angular_error_target":-83,"angular_error_distractor":7,"target_direction":355,"target_group":"white","reward_points":0},{"rt":null,"stimulus":"\n          <p style=\"color: #FF3333;\">Your reward: 0 points</p>\n        ","response":null,"trial_type":"html-keyboard-response","trial_index":18,"plugin_version":"2.1.0","time_elapsed":131614},{"rt":null,"stimulus":"<div class=\"fixation\" style=\"font-size: 60px;\">+</div>","response":null,"trial_type":"html-keyboard-response","trial_index":19,"plugin_version":"2.1.0","time_elapsed":132630},{"target_group":"white","condition_label":"W_H_vs_B_L_rep1","target_direction":356,"distractor_direction":229,"session_rotation":313,"rt":-1,"response":"","correct":false,"choices":"ALL_KEYS","correct_choice":["a"],"trial_duration":2000,"flip_timestamps":[],"response_ends_trial":false,"number_of_apertures":200,"number_of_dots":[1,1,1,1,1,1,1,1,1,1,1,1,1,1,1,1,1,1,1,1,1,1,1,1,1,1,1,1,1,1,1,1,1,1,1,1,1,1,1,1,1,1,1,1,1,1,1,1,1,1,1,1,1,1,1,1,1,1,1,1,1,1,1,1,1,1,1,1,1,1,1,1,1,1,1,1,1,1,1,1,1,1,1,1,1,1,1,1,1,1,1,1,1,1,1,1,1,1,1,1,1,1,1,1,1,1,1,1,1,1,1,1,1,1,1,1,1,1,1,1,1,1,1,1,1,1,1,1,1,1,1,1,1,1,1,1,1,1,1,1,1,1,1,1,1,1,1,1,1,1,1,1,1,1,1,1,1,1,1,1,1,1,1,1,1,1,1,1,1,1,1,1,1,1,1,1,1,1,1,1,1,1,1,1,1,1,1,1,1,1,1,1,1,1,1,1,1,1,1,1],"number_of_sets":1,"coherent_direction":[229,229,356,356,356,356,229,229,356,356,356,356,356,229,356,229,229,229,356,356,356,229,356,229,229,356,356,356,356,229,356,229,356,229,356,229,356,229,356,229,356,356,356,229,356,356,229,356,229,356,229,356,229,229,229,356,229,229,356,356,356,229,356,229,229,229,356,229,356,229,229,229,356,229,356,229,229,229,356,229,229,229,229,356,229,229,356,356,356,229,356,229,356,229,356,356,229,229,229,229,229,229,356,229,356,229,356,229,356,356,356,229,229,356,229,356,229,229,356,356,356,229,229,229,229,356,356,356,229,229,229,356,356,229,229,356,229,356,356,229,356,356,356,229,229,229,356,229,229,356,229,356,356,356,229,229,356,229,356,229,356,356,356,356,229,356,356,356,229,356,229,229,229,229,356,229,356,356,229,356,356,229,229,356,356,229,356,229,356,356,229,229,229,229,356,229,356,229,356,356],"coherence":1,"opposite_coherence":0,"dot_radius":2,"dot_side_length":1,"dot_life":-1,"move_distance":1,"aperture_width":300,"aperture_height":300,"dot_color":["black","black","white","white","white","white","black","black","white","white","white","white","white","black","white","black","black","black","white","white","white","black","white","black","black","white","white","white","white","black","white","black","white","black","white","black","white","black","white","black","white","white","white","black","white","white","black","white","black","white","black","white","black","black","black","white","black","black","white","white","white","black","white","black","black","black","white","black","white","black","black","black","white","black","white","black","black","black","white","black","black","black","black","white","black","black","white","white","white","black","white","black","white","black","white","white","black","black","black","black","black","black","white","black","white","black","white","black","white","white","white","black","black","white","black","white","black","black","white","white","white","black","black","black","black","white","white","white","black","black","black","white","white","black","black","white","black","white","white","black","white","white","white","black","black","black","white","black","black","white","black","white","white","white","black","black","white","black","white","black","white","white","white","white","black","white","white","white","black","white","black","black","black","black","white","black","white","white","black","white","white","black","black","white","white","black","white","black","white","white","black","black","black","black","white","black","white","black","white","white"],"dot_shape":"circle","background_color":"#AAA","RDK_type":3,"aperture_type":2,"reinsert_type":2,"frame_rate":16.66115702479339,"frame_rate_array":[8,17,16,17,17,16,16,17,17,16,18,16,16,17,17,17,17,16,17,18,16,16,17,17,17,17,17,16,17,17,17,16,17,18,16,16,17,17,16,17,17,17,17,17,16,17,17,16,17,16,17,17,17,16,17,16,17,17,17,16,17,16,17,17,17,16,17,16,17,17,17,17,17,17,17,17,16,17,17,17,17,17,16,16,16,17,17,17,17,17,17,17,16,17,17,17,16,17,17,17,17,17,16,17,17,17,16,16,19,15,16,17,17,17,17,16,17,17,16,17,17],"number_of_frames":121,"aperture_center_x":640,"aperture_center_y":360,"fixation_cross":true,"fixation_cross_width":15,"fixation_cross_height":15,"fixation_cross_color":"#111","fixation_cross_thickness":1,"border":true,"border_thickness":2,"border_color":"transparent","canvas_width":1280,"canvas_height":720,"trial_type":"rdk","trial_index":20,"plugin_version":"2.0.0","time_elapsed":134641},{"rt":4472,"stimulus":"\n        <div class=\"response-container\">\n          <div class=\"response-instruction\">\n            <p>rotate the bar by using the left and right arrow keys.</p>\n            <p>when you are determined, press the Enter key.</p>\n          </div>\n          <div class=\"response-circle\">\n            <div class=\"response-fixation\"></div>\n            <div id=\"bar\" class=\"rotating-bar\"></div>\n          </div>\n        </div>\n      ","response":"Enter","trial_type":"html-keyboard-response","trial_index":21,"plugin_version":"2.1.0","time_elapsed":139114,"response_angle_css":225,"response_angle_rdk":225,"angular_error_target":-131,"angular_error_distractor":-4,"target_direction":356,"target_group":"white","reward_points":0},{"rt":null,"stimulus":"\n          <p style=\"color: #FF3333;\">Your reward: 0 points</p>\n        ","response":null,"trial_type":"html-keyboard-response","trial_index":22,"plugin_version":"2.1.0","time_elapsed":141129},{"rt":null,"stimulus":"<div class=\"fixation\" style=\"font-size: 60px;\">+</div>","response":null,"trial_type":"html-keyboard-response","trial_index":23,"plugin_version":"2.1.0","time_elapsed":142145},{"target_group":"black","condition_label":"B_H_vs_W_L_rep24","target_direction":49,"distractor_direction":142,"session_rotation":313,"rt":-1,"response":"","correct":false,"choices":"ALL_KEYS","correct_choice":["a"],"trial_duration":2000,"flip_timestamps":[],"response_ends_trial":false,"number_of_apertures":200,"number_of_dots":[1,1,1,1,1,1,1,1,1,1,1,1,1,1,1,1,1,1,1,1,1,1,1,1,1,1,1,1,1,1,1,1,1,1,1,1,1,1,1,1,1,1,1,1,1,1,1,1,1,1,1,1,1,1,1,1,1,1,1,1,1,1,1,1,1,1,1,1,1,1,1,1,1,1,1,1,1,1,1,1,1,1,1,1,1,1,1,1,1,1,1,1,1,1,1,1,1,1,1,1,1,1,1,1,1,1,1,1,1,1,1,1,1,1,1,1,1,1,1,1,1,1,1,1,1,1,1,1,1,1,1,1,1,1,1,1,1,1,1,1,1,1,1,1,1,1,1,1,1,1,1,1,1,1,1,1,1,1,1,1,1,1,1,1,1,1,1,1,1,1,1,1,1,1,1,1,1,1,1,1,1,1,1,1,1,1,1,1,1,1,1,1,1,1,1,1,1,1,1,1],"number_of_sets":1,"coherent_direction":[49,142,49,49,49,49,49,142,49,49,142,142,142,49,49,49,49,142,142,142,142,49,142,142,142,49,49,49,142,49,49,142,49,49,142,142,142,49,49,142,142,49,142,142,49,49,142,142,142,142,142,142,142,142,142,49,49,142,49,142,142,49,142,142,49,142,142,142,49,49,49,49,49,49,142,49,49,49,142,142,142,49,49,142,49,142,49,142,142,49,142,142,49,49,49,49,49,49,142,49,142,142,49,49,49,142,49,142,49,142,142,142,142,49,49,49,49,49,142,142,142,142,49,49,142,142,142,142,142,49,49,49,142,49,142,142,49,49,142,142,142,49,49,49,49,142,142,49,49,142,49,49,49,49,49,49,49,142,142,142,49,142,142,49,49,142,142,142,142,142,49,49,142,142,49,49,49,49,49,142,49,142,49,49,142,142,142,49,142,142,142,142,142,142,49,49,49,142,142,49],"coherence":1,"opposite_coherence":0,"dot_radius":2,"dot_side_length":1,"dot_life":-1,"move_distance":1,"aperture_width":300,"aperture_height":300,"dot_color":["black","white","black","black","black","black","black","white","black","black","white","white","white","black","black","black","black","white","white","white","white","black","white","white","white","black","black","black","white","black","black","white","black","black","white","white","white","black","black","white","white","black","white","white","black","black","white","white","white","white","white","white","white","white","white","black","black","white","black","white","white","black","white","white","black","white","white","white","black","black","black","black","black","black","white","black","black","black","white","white","white","black","black","white","black","white","black","white","white","black","white","white","black","black","black","black","black","black","white","black","white","white","black","black","black","white","black","white","black","white","white","white","white","black","black","black","black","black","white","white","white","white","black","black","white","white","white","white","white","black","black","black","white","black","white","white","black","black","white","white","white","black","black","black","black","white","white","black","black","white","black","black","black","black","black","black","black","white","white","white","black","white","white","black","black","white","white","white","white","white","black","black","white","white","black","black","black","black","black","white","black","white","black","black","white","white","white","black","white","white","white","white","white","white","black","black","black","white","white","black"],"dot_shape":"circle","background_color":"#AAA","RDK_type":3,"aperture_type":2,"reinsert_type":2,"frame_rate":16.58677685950413,"frame_rate_array":[2,16,17,17,16,17,17,17,17,16,17,16,17,17,16,17,16,17,17,17,16,17,17,17,16,17,17,17,16,17,16,18,16,17,17,16,17,17,17,16,17,17,17,16,17,17,17,16,16,17,17,16,17,16,16,17,16,17,17,17,16,17,16,18,16,17,16,17,17,17,17,17,17,17,17,17,17,17,16,17,17,17,17,16,16,17,17,17,17,17,17,16,17,16,18,16,17,17,17,17,17,16,16,17,16,17,17,16,16,17,17,17,17,17,16,17,17,16,17,17,16],"number_of_frames":121,"aperture_center_x":640,"aperture_center_y":360,"fixation_cross":true,"fixation_cross_width":15,"fixation_cross_height":15,"fixation_cross_color":"#111","fixation_cross_thickness":1,"border":true,"border_thickness":2,"border_color":"transparent","canvas_width":1280,"canvas_height":720,"trial_type":"rdk","trial_index":24,"plugin_version":"2.0.0","time_elapsed":144149},{"rt":2274,"stimulus":"\n        <div class=\"response-container\">\n          <div class=\"response-instruction\">\n            <p>rotate the bar by using the left and right arrow keys.</p>\n            <p>when you are determined, press the Enter key.</p>\n          </div>\n          <div class=\"response-circle\">\n            <div class=\"response-fixation\"></div>\n            <div id=\"bar\" class=\"rotating-bar\"></div>\n          </div>\n        </div>\n      ","response":"Enter","trial_type":"html-keyboard-response","trial_index":25,"plugin_version":"2.1.0","time_elapsed":146424,"response_angle_css":287,"response_angle_rdk":163,"angular_error_target":114,"angular_error_distractor":21,"target_direction":49,"target_group":"black","reward_points":0},{"rt":null,"stimulus":"\n          <p style=\"color: #FF3333;\">Your reward: 0 points</p>\n        ","response":null,"trial_type":"html-keyboard-response","trial_index":26,"plugin_version":"2.1.0","time_elapsed":148439},{"rt":null,"stimulus":"<div class=\"fixation\" style=\"font-size: 60px;\">+</div>","response":null,"trial_type":"html-keyboard-response","trial_index":27,"plugin_version":"2.1.0","time_elapsed":149455},{"target_group":"white","condition_label":"W_H_vs_B_L_rep22","target_direction":332,"distractor_direction":236,"session_rotation":313,"rt":-1,"response":"","correct":false,"choices":"ALL_KEYS","correct_choice":["a"],"trial_duration":2000,"flip_timestamps":[],"response_ends_trial":false,"number_of_apertures":200,"number_of_dots":[1,1,1,1,1,1,1,1,1,1,1,1,1,1,1,1,1,1,1,1,1,1,1,1,1,1,1,1,1,1,1,1,1,1,1,1,1,1,1,1,1,1,1,1,1,1,1,1,1,1,1,1,1,1,1,1,1,1,1,1,1,1,1,1,1,1,1,1,1,1,1,1,1,1,1,1,1,1,1,1,1,1,1,1,1,1,1,1,1,1,1,1,1,1,1,1,1,1,1,1,1,1,1,1,1,1,1,1,1,1,1,1,1,1,1,1,1,1,1,1,1,1,1,1,1,1,1,1,1,1,1,1,1,1,1,1,1,1,1,1,1,1,1,1,1,1,1,1,1,1,1,1,1,1,1,1,1,1,1,1,1,1,1,1,1,1,1,1,1,1,1,1,1,1,1,1,1,1,1,1,1,1,1,1,1,1,1,1,1,1,1,1,1,1,1,1,1,1,1,1],"number_of_sets":1,"coherent_direction":[332,332,236,332,332,236,332,332,332,236,236,332,332,236,236,332,236,236,236,236,236,236,332,236,236,332,236,236,332,236,332,332,332,236,236,236,236,236,332,236,332,332,332,332,332,236,332,236,332,236,236,332,332,236,332,332,332,332,332,236,236,332,332,332,332,236,236,332,332,236,332,332,332,332,236,236,332,236,236,236,236,236,332,332,332,332,332,332,236,332,332,332,236,236,236,332,332,332,332,236,332,236,236,332,332,236,332,236,236,236,236,332,236,236,236,332,236,332,236,236,332,236,332,236,332,236,236,236,236,236,332,332,332,236,236,236,332,332,332,332,332,332,236,236,236,332,332,236,236,332,236,236,332,236,332,332,236,236,236,236,332,332,332,236,236,236,332,236,332,332,332,236,236,236,332,236,236,332,236,332,332,332,332,236,332,236,236,236,236,332,236,236,236,332,332,236,332,332,236,332],"coherence":1,"opposite_coherence":0,"dot_radius":2,"dot_side_length":1,"dot_life":-1,"move_distance":1,"aperture_width":300,"aperture_height":300,"dot_color":["white","white","black","white","white","black","white","white","white","black","black","white","white","black","black","white","black","black","black","black","black","black","white","black","black","white","black","black","white","black","white","white","white","black","black","black","black","black","white","black","white","white","white","white","white","black","white","black","white","black","black","white","white","black","white","white","white","white","white","black","black","white","white","white","white","black","black","white","white","black","white","white","white","white","black","black","white","black","black","black","black","black","white","white","white","white","white","white","black","white","white","white","black","black","black","white","white","white","white","black","white","black","black","white","white","black","white","black","black","black","black","white","black","black","black","white","black","white","black","black","white","black","white","black","white","black","black","black","black","black","white","white","white","black","black","black","white","white","white","white","white","white","black","black","black","white","white","black","black","white","black","black","white","black","white","white","black","black","black","black","white","white","white","black","black","black","white","black","white","white","white","black","black","black","white","black","black","white","black","white","white","white","white","black","white","black","black","black","black","white","black","black","black","white","white","black","white","white","black","white"],"dot_shape":"circle","background_color":"#AAA","RDK_type":3,"aperture_type":2,"reinsert_type":2,"frame_rate":16.628099173553718,"frame_rate_array":[3,16,16,17,17,17,16,16,17,17,16,17,17,17,17,16,17,16,17,17,17,17,17,17,16,16,17,17,17,16,17,17,16,17,17,17,16,17,16,17,16,17,17,17,17,17,17,16,17,17,16,18,16,16,17,17,17,16,17,17,17,17,16,17,17,17,16,17,17,17,17,17,17,17,16,17,17,17,16,16,17,17,16,17,17,17,17,17,17,16,17,17,16,17,17,17,17,16,17,17,17,16,17,17,16,17,16,17,17,16,17,17,17,17,17,17,17,17,17,17,17],"number_of_frames":121,"aperture_center_x":640,"aperture_center_y":360,"fixation_cross":true,"fixation_cross_width":15,"fixation_cross_height":15,"fixation_cross_color":"#111","fixation_cross_thickness":1,"border":true,"border_thickness":2,"border_color":"transparent","canvas_width":1280,"canvas_height":720,"trial_type":"rdk","trial_index":28,"plugin_version":"2.0.0","time_elapsed":151460},{"rt":3469,"stimulus":"\n        <div class=\"response-container\">\n          <div class=\"response-instruction\">\n            <p>rotate the bar by using the left and right arrow keys.</p>\n            <p>when you are determined, press the Enter key.</p>\n          </div>\n          <div class=\"response-circle\">\n            <div class=\"response-fixation\"></div>\n            <div id=\"bar\" class=\"rotating-bar\"></div>\n          </div>\n        </div>\n      ","response":"Enter","trial_type":"html-keyboard-response","trial_index":29,"plugin_version":"2.1.0","time_elapsed":154930,"response_angle_css":229,"response_angle_rdk":221,"angular_error_target":-111,"angular_error_distractor":-15,"target_direction":332,"target_group":"white","reward_points":0},{"rt":null,"stimulus":"\n          <p style=\"color: #FF3333;\">Your reward: 0 points</p>\n        ","response":null,"trial_type":"html-keyboard-response","trial_index":30,"plugin_version":"2.1.0","time_elapsed":156939},{"rt":null,"stimulus":"<div class=\"fixation\" style=\"font-size: 60px;\">+</div>","response":null,"trial_type":"html-keyboard-response","trial_index":31,"plugin_version":"2.1.0","time_elapsed":157955},{"target_group":"black","condition_label":"B_H_vs_W_L_rep2","target_direction":50,"distractor_direction":152,"session_rotation":313,"rt":-1,"response":"","correct":false,"choices":"ALL_KEYS","correct_choice":["a"],"trial_duration":2000,"flip_timestamps":[],"response_ends_trial":false,"number_of_apertures":200,"number_of_dots":[1,1,1,1,1,1,1,1,1,1,1,1,1,1,1,1,1,1,1,1,1,1,1,1,1,1,1,1,1,1,1,1,1,1,1,1,1,1,1,1,1,1,1,1,1,1,1,1,1,1,1,1,1,1,1,1,1,1,1,1,1,1,1,1,1,1,1,1,1,1,1,1,1,1,1,1,1,1,1,1,1,1,1,1,1,1,1,1,1,1,1,1,1,1,1,1,1,1,1,1,1,1,1,1,1,1,1,1,1,1,1,1,1,1,1,1,1,1,1,1,1,1,1,1,1,1,1,1,1,1,1,1,1,1,1,1,1,1,1,1,1,1,1,1,1,1,1,1,1,1,1,1,1,1,1,1,1,1,1,1,1,1,1,1,1,1,1,1,1,1,1,1,1,1,1,1,1,1,1,1,1,1,1,1,1,1,1,1,1,1,1,1,1,1,1,1,1,1,1,1],"number_of_sets":1,"coherent_direction":[152,50,152,152,152,50,152,152,152,152,152,50,152,50,152,152,50,152,152,50,50,50,152,152,50,50,50,50,50,50,50,152,50,50,152,152,152,50,50,50,50,152,152,50,152,50,152,152,50,152,152,50,152,152,50,50,152,50,152,50,152,50,152,152,152,152,50,152,50,50,50,50,50,152,152,152,50,152,50,50,50,152,152,152,152,50,50,50,152,50,50,50,152,152,152,152,50,152,152,50,50,152,50,50,50,152,152,152,152,50,50,50,152,50,152,50,152,50,152,50,50,152,50,152,50,152,152,50,50,50,50,152,50,152,152,152,50,50,50,152,152,152,152,152,152,50,50,152,152,50,152,50,50,152,50,152,152,50,152,50,152,50,50,50,50,152,50,152,152,50,50,50,50,152,50,152,152,152,50,50,152,50,50,152,50,152,152,152,50,50,50,50,152,152,152,50,50,152,50,152],"coherence":1,"opposite_coherence":0,"dot_radius":2,"dot_side_length":1,"dot_life":-1,"move_distance":1,"aperture_width":300,"aperture_height":300,"dot_color":["white","black","white","white","white","black","white","white","white","white","white","black","white","black","white","white","black","white","white","black","black","black","white","white","black","black","black","black","black","black","black","white","black","black","white","white","white","black","black","black","black","white","white","black","white","black","white","white","black","white","white","black","white","white","black","black","white","black","white","black","white","black","white","white","white","white","black","white","black","black","black","black","black","white","white","white","black","white","black","black","black","white","white","white","white","black","black","black","white","black","black","black","white","white","white","white","black","white","white","black","black","white","black","black","black","white","white","white","white","black","black","black","white","black","white","black","white","black","white","black","black","white","black","white","black","white","white","black","black","black","black","white","black","white","white","white","black","black","black","white","white","white","white","white","white","black","black","white","white","black","white","black","black","white","black","white","white","black","white","black","white","black","black","black","black","white","black","white","white","black","black","black","black","white","black","white","white","white","black","black","white","black","black","white","black","white","white","white","black","black","black","black","white","white","white","black","black","white","black","white"],"dot_shape":"circle","background_color":"#AAA","RDK_type":3,"aperture_type":2,"reinsert_type":2,"frame_rate":16.683333333333334,"frame_rate_array":[14,15,17,17,16,17,17,17,17,17,16,16,17,17,17,17,16,17,17,16,17,16,17,16,17,17,16,17,17,17,15,17,17,16,17,17,17,17,16,16,17,17,17,18,16,17,16,17,17,16,18,17,16,17,16,17,16,17,16,17,17,17,17,17,16,17,17,17,17,16,16,17,17,16,17,17,17,17,16,17,17,16,17,16,17,17,17,17,16,17,17,17,17,17,17,16,17,17,17,16,17,17,16,16,18,17,16,17,16,17,17,16,17,17,17,17,16,18,16,17],"number_of_frames":120,"aperture_center_x":640,"aperture_center_y":360,"fixation_cross":true,"fixation_cross_width":15,"fixation_cross_height":15,"fixation_cross_color":"#111","fixation_cross_thickness":1,"border":true,"border_thickness":2,"border_color":"transparent","canvas_width":1280,"canvas_height":720,"trial_type":"rdk","trial_index":32,"plugin_version":"2.0.0","time_elapsed":159965},{"rt":4410,"stimulus":"\n        <div class=\"response-container\">\n          <div class=\"response-instruction\">\n            <p>rotate the bar by using the left and right arrow keys.</p>\n            <p>when you are determined, press the Enter key.</p>\n          </div>\n          <div class=\"response-circle\">\n            <div class=\"response-fixation\"></div>\n            <div id=\"bar\" class=\"rotating-bar\"></div>\n          </div>\n        </div>\n      ","response":"Enter","trial_type":"html-keyboard-response","trial_index":33,"plugin_version":"2.1.0","time_elapsed":164377,"response_angle_css":51,"response_angle_rdk":39,"angular_error_target":-11,"angular_error_distractor":-113,"target_direction":50,"target_group":"black","reward_points":7},{"rt":null,"stimulus":"\n          <p style=\"color: #00FF00;\">Your reward: 7 points</p>\n        ","response":null,"trial_type":"html-keyboard-response","trial_index":34,"plugin_version":"2.1.0","time_elapsed":166389},{"rt":null,"stimulus":"<div class=\"fixation\" style=\"font-size: 60px;\">+</div>","response":null,"trial_type":"html-keyboard-response","trial_index":35,"plugin_version":"2.1.0","time_elapsed":167400},{"target_group":"black","condition_label":"B_H_vs_W_L_rep10","target_direction":57,"distractor_direction":163,"session_rotation":313,"rt":-1,"response":"","correct":false,"choices":"ALL_KEYS","correct_choice":["a"],"trial_duration":2000,"flip_timestamps":[],"response_ends_trial":false,"number_of_apertures":200,"number_of_dots":[1,1,1,1,1,1,1,1,1,1,1,1,1,1,1,1,1,1,1,1,1,1,1,1,1,1,1,1,1,1,1,1,1,1,1,1,1,1,1,1,1,1,1,1,1,1,1,1,1,1,1,1,1,1,1,1,1,1,1,1,1,1,1,1,1,1,1,1,1,1,1,1,1,1,1,1,1,1,1,1,1,1,1,1,1,1,1,1,1,1,1,1,1,1,1,1,1,1,1,1,1,1,1,1,1,1,1,1,1,1,1,1,1,1,1,1,1,1,1,1,1,1,1,1,1,1,1,1,1,1,1,1,1,1,1,1,1,1,1,1,1,1,1,1,1,1,1,1,1,1,1,1,1,1,1,1,1,1,1,1,1,1,1,1,1,1,1,1,1,1,1,1,1,1,1,1,1,1,1,1,1,1,1,1,1,1,1,1,1,1,1,1,1,1,1,1,1,1,1,1],"number_of_sets":1,"coherent_direction":[163,57,57,163,57,57,163,163,57,57,57,163,163,57,163,57,163,163,163,163,163,57,57,57,163,57,57,57,163,57,163,57,57,163,57,57,57,163,57,163,163,57,163,163,57,163,163,163,163,163,163,57,57,57,57,163,57,57,57,163,163,163,163,57,57,163,57,57,163,57,57,57,57,163,163,163,163,163,163,163,163,57,163,163,163,57,163,57,163,57,163,163,57,163,57,163,163,163,163,57,57,57,57,57,57,57,57,57,57,57,163,163,57,57,163,163,57,57,163,163,163,57,57,57,163,57,57,57,163,163,57,57,57,163,163,163,57,163,57,57,163,163,163,163,163,163,57,57,163,57,163,57,163,163,57,57,163,163,163,57,57,57,163,163,163,57,57,163,57,163,163,163,57,57,163,163,57,163,57,163,163,57,163,163,163,57,57,57,163,57,57,57,57,57,163,163,57,57,57,163],"coherence":1,"opposite_coherence":0,"dot_radius":2,"dot_side_length":1,"dot_life":-1,"move_distance":1,"aperture_width":300,"aperture_height":300,"dot_color":["white","black","black","white","black","black","white","white","black","black","black","white","white","black","white","black","white","white","white","white","white","black","black","black","white","black","black","black","white","black","white","black","black","white","black","black","black","white","black","white","white","black","white","white","black","white","white","white","white","white","white","black","black","black","black","white","black","black","black","white","white","white","white","black","black","white","black","black","white","black","black","black","black","white","white","white","white","white","white","white","white","black","white","white","white","black","white","black","white","black","white","white","black","white","black","white","white","white","white","black","black","black","black","black","black","black","black","black","black","black","white","white","black","black","white","white","black","black","white","white","white","black","black","black","white","black","black","black","white","white","black","black","black","white","white","white","black","white","black","black","white","white","white","white","white","white","black","black","white","black","white","black","white","white","black","black","white","white","white","black","black","black","white","white","white","black","black","white","black","white","white","white","black","black","white","white","black","white","black","white","white","black","white","white","white","black","black","black","white","black","black","black","black","black","white","white","black","black","black","white"],"dot_shape":"circle","background_color":"#AAA","RDK_type":3,"aperture_type":2,"reinsert_type":2,"frame_rate":16.616666666666667,"frame_rate_array":[9,17,17,17,17,16,16,17,16,17,17,17,18,16,17,16,17,17,17,16,17,17,17,16,16,17,17,16,17,16,17,17,16,17,16,17,17,17,16,17,17,16,17,17,17,16,17,16,16,17,16,17,17,17,18,16,17,16,17,17,16,16,17,16,17,17,17,17,17,17,16,17,17,17,17,16,16,16,17,17,16,17,17,17,16,17,17,17,17,16,17,16,17,17,16,16,18,16,17,16,17,18,16,17,16,17,17,17,16,17,17,16,16,17,17,17,16,17,17,16],"number_of_frames":120,"aperture_center_x":640,"aperture_center_y":360,"fixation_cross":true,"fixation_cross_width":15,"fixation_cross_height":15,"fixation_cross_color":"#111","fixation_cross_thickness":1,"border":true,"border_thickness":2,"border_color":"transparent","canvas_width":1280,"canvas_height":720,"trial_type":"rdk","trial_index":36,"plugin_version":"2.0.0","time_elapsed":169403},{"rt":4472,"stimulus":"\n        <div class=\"response-container\">\n          <div class=\"response-instruction\">\n            <p>rotate the bar by using the left and right arrow keys.</p>\n            <p>when you are determined, press the Enter key.</p>\n          </div>\n          <div class=\"response-circle\">\n            <div class=\"response-fixation\"></div>\n            <div id=\"bar\" class=\"rotating-bar\"></div>\n          </div>\n        </div>\n      ","response":"Enter","trial_type":"html-keyboard-response","trial_index":37,"plugin_version":"2.1.0","time_elapsed":173875,"response_angle_css":406,"response_angle_rdk":44,"angular_error_target":-13,"angular_error_distractor":-119,"target_direction":57,"target_group":"black","reward_points":7},{"rt":null,"stimulus":"\n          <p style=\"color: #00FF00;\">Your reward: 7 points</p>\n        ","response":null,"trial_type":"html-keyboard-response","trial_index":38,"plugin_version":"2.1.0","time_elapsed":175890},{"rt":null,"stimulus":"<div class=\"fixation\" style=\"font-size: 60px;\">+</div>","response":null,"trial_type":"html-keyboard-response","trial_index":39,"plugin_version":"2.1.0","time_elapsed":176893},{"target_group":"black","condition_label":"B_H_vs_W_L_rep15","target_direction":44,"distractor_direction":150,"session_rotation":313,"rt":-1,"response":"","correct":false,"choices":"ALL_KEYS","correct_choice":["a"],"trial_duration":2000,"flip_timestamps":[],"response_ends_trial":false,"number_of_apertures":200,"number_of_dots":[1,1,1,1,1,1,1,1,1,1,1,1,1,1,1,1,1,1,1,1,1,1,1,1,1,1,1,1,1,1,1,1,1,1,1,1,1,1,1,1,1,1,1,1,1,1,1,1,1,1,1,1,1,1,1,1,1,1,1,1,1,1,1,1,1,1,1,1,1,1,1,1,1,1,1,1,1,1,1,1,1,1,1,1,1,1,1,1,1,1,1,1,1,1,1,1,1,1,1,1,1,1,1,1,1,1,1,1,1,1,1,1,1,1,1,1,1,1,1,1,1,1,1,1,1,1,1,1,1,1,1,1,1,1,1,1,1,1,1,1,1,1,1,1,1,1,1,1,1,1,1,1,1,1,1,1,1,1,1,1,1,1,1,1,1,1,1,1,1,1,1,1,1,1,1,1,1,1,1,1,1,1,1,1,1,1,1,1,1,1,1,1,1,1,1,1,1,1,1,1],"number_of_sets":1,"coherent_direction":[44,150,150,44,150,150,150,44,150,44,150,150,44,150,150,44,44,150,44,150,150,150,44,150,150,44,150,44,44,150,150,150,150,44,150,150,150,44,150,44,44,150,150,44,44,150,150,150,44,44,150,150,44,44,150,44,150,44,44,44,150,150,150,150,150,150,150,150,150,150,150,44,150,44,44,44,150,44,150,44,150,44,150,44,150,150,150,150,150,44,44,44,44,150,44,44,150,44,44,44,150,150,150,44,44,150,44,44,44,150,150,150,150,150,150,150,44,44,44,150,44,44,150,44,150,150,44,150,44,44,150,44,150,150,150,150,44,150,150,150,150,44,44,44,44,44,150,44,44,44,44,44,44,44,44,44,44,150,150,150,44,44,44,150,44,44,44,150,44,44,44,44,150,44,150,44,44,150,150,44,150,44,44,44,150,150,44,44,150,44,44,44,150,44,150,44,44,150,150,44],"coherence":1,"opposite_coherence":0,"dot_radius":2,"dot_side_length":1,"dot_life":-1,"move_distance":1,"aperture_width":300,"aperture_height":300,"dot_color":["black","white","white","black","white","white","white","black","white","black","white","white","black","white","white","black","black","white","black","white","white","white","black","white","white","black","white","black","black","white","white","white","white","black","white","white","white","black","white","black","black","white","white","black","black","white","white","white","black","black","white","white","black","black","white","black","white","black","black","black","white","white","white","white","white","white","white","white","white","white","white","black","white","black","black","black","white","black","white","black","white","black","white","black","white","white","white","white","white","black","black","black","black","white","black","black","white","black","black","black","white","white","white","black","black","white","black","black","black","white","white","white","white","white","white","white","black","black","black","white","black","black","white","black","white","white","black","white","black","black","white","black","white","white","white","white","black","white","white","white","white","black","black","black","black","black","white","black","black","black","black","black","black","black","black","black","black","white","white","white","black","black","black","white","black","black","black","white","black","black","black","black","white","black","white","black","black","white","white","black","white","black","black","black","white","white","black","black","white","black","black","black","white","black","white","black","black","white","white","black"],"dot_shape":"circle","background_color":"#AAA","RDK_type":3,"aperture_type":2,"reinsert_type":2,"frame_rate":16.677685950413224,"frame_rate_array":[8,17,17,16,17,17,16,17,16,17,17,16,18,16,17,17,17,17,16,17,17,17,17,16,17,17,16,17,16,17,17,16,17,17,17,17,17,17,17,16,17,16,17,17,16,17,16,17,17,16,17,17,16,17,17,17,17,17,16,17,17,17,17,17,17,17,16,17,17,16,17,16,17,17,17,16,17,16,17,17,16,17,17,16,17,17,17,17,17,17,17,16,17,17,17,16,17,17,17,16,17,17,17,17,17,17,17,16,17,16,18,17,16,17,16,17,17,17,17,17,16],"number_of_frames":121,"aperture_center_x":640,"aperture_center_y":360,"fixation_cross":true,"fixation_cross_width":15,"fixation_cross_height":15,"fixation_cross_color":"#111","fixation_cross_thickness":1,"border":true,"border_thickness":2,"border_color":"transparent","canvas_width":1280,"canvas_height":720,"trial_type":"rdk","trial_index":40,"plugin_version":"2.0.0","time_elapsed":178903},{"rt":2742,"stimulus":"\n        <div class=\"response-container\">\n          <div class=\"response-instruction\">\n            <p>rotate the bar by using the left and right arrow keys.</p>\n            <p>when you are determined, press the Enter key.</p>\n          </div>\n          <div class=\"response-circle\">\n            <div class=\"response-fixation\"></div>\n            <div id=\"bar\" class=\"rotating-bar\"></div>\n          </div>\n        </div>\n      ","response":"Enter","trial_type":"html-keyboard-response","trial_index":41,"plugin_version":"2.1.0","time_elapsed":181645,"response_angle_css":-49,"response_angle_rdk":139,"angular_error_target":95,"angular_error_distractor":-11,"target_direction":44,"target_group":"black","reward_points":0},{"rt":null,"stimulus":"\n          <p style=\"color: #FF3333;\">Your reward: 0 points</p>\n        ","response":null,"trial_type":"html-keyboard-response","trial_index":42,"plugin_version":"2.1.0","time_elapsed":183650},{"rt":null,"stimulus":"<div class=\"fixation\" style=\"font-size: 60px;\">+</div>","response":null,"trial_type":"html-keyboard-response","trial_index":43,"plugin_version":"2.1.0","time_elapsed":184665},{"target_group":"black","condition_label":"B_H_vs_W_L_rep13","target_direction":54,"distractor_direction":173,"session_rotation":313,"rt":-1,"response":"","correct":false,"choices":"ALL_KEYS","correct_choice":["a"],"trial_duration":2000,"flip_timestamps":[],"response_ends_trial":false,"number_of_apertures":200,"number_of_dots":[1,1,1,1,1,1,1,1,1,1,1,1,1,1,1,1,1,1,1,1,1,1,1,1,1,1,1,1,1,1,1,1,1,1,1,1,1,1,1,1,1,1,1,1,1,1,1,1,1,1,1,1,1,1,1,1,1,1,1,1,1,1,1,1,1,1,1,1,1,1,1,1,1,1,1,1,1,1,1,1,1,1,1,1,1,1,1,1,1,1,1,1,1,1,1,1,1,1,1,1,1,1,1,1,1,1,1,1,1,1,1,1,1,1,1,1,1,1,1,1,1,1,1,1,1,1,1,1,1,1,1,1,1,1,1,1,1,1,1,1,1,1,1,1,1,1,1,1,1,1,1,1,1,1,1,1,1,1,1,1,1,1,1,1,1,1,1,1,1,1,1,1,1,1,1,1,1,1,1,1,1,1,1,1,1,1,1,1,1,1,1,1,1,1,1,1,1,1,1,1],"number_of_sets":1,"coherent_direction":[54,54,173,54,54,173,54,54,54,173,173,173,173,173,173,173,173,54,54,173,54,54,173,173,54,54,173,173,54,54,54,54,54,54,173,173,173,54,54,54,173,54,173,173,173,173,173,54,173,54,54,54,54,173,54,173,54,173,173,54,54,54,173,54,54,173,54,173,173,54,173,173,54,54,173,54,173,54,173,173,54,173,173,173,54,54,173,54,54,173,173,54,54,173,173,173,54,173,173,54,173,173,54,54,54,173,173,173,54,173,173,173,54,173,54,173,54,54,173,54,173,173,54,54,173,173,54,54,54,173,173,173,173,54,54,173,173,54,54,54,173,173,173,173,54,54,54,173,173,173,173,54,54,173,54,54,173,173,54,173,173,54,54,54,54,173,173,173,54,54,173,54,54,54,54,173,54,54,173,54,54,54,173,173,54,54,173,173,173,173,173,54,54,173,54,173,173,54,54,54],"coherence":1,"opposite_coherence":0,"dot_radius":2,"dot_side_length":1,"dot_life":-1,"move_distance":1,"aperture_width":300,"aperture_height":300,"dot_color":["black","black","white","black","black","white","black","black","black","white","white","white","white","white","white","white","white","black","black","white","black","black","white","white","black","black","white","white","black","black","black","black","black","black","white","white","white","black","black","black","white","black","white","white","white","white","white","black","white","black","black","black","black","white","black","white","black","white","white","black","black","black","white","black","black","white","black","white","white","black","white","white","black","black","white","black","white","black","white","white","black","white","white","white","black","black","white","black","black","white","white","black","black","white","white","white","black","white","white","black","white","white","black","black","black","white","white","white","black","white","white","white","black","white","black","white","black","black","white","black","white","white","black","black","white","white","black","black","black","white","white","white","white","black","black","white","white","black","black","black","white","white","white","white","black","black","black","white","white","white","white","black","black","white","black","black","white","white","black","white","white","black","black","black","black","white","white","white","black","black","white","black","black","black","black","white","black","black","white","black","black","black","white","white","black","black","white","white","white","white","white","black","black","white","black","white","white","black","black","black"],"dot_shape":"circle","background_color":"#AAA","RDK_type":3,"aperture_type":2,"reinsert_type":2,"frame_rate":16.694214876033058,"frame_rate_array":[13,16,17,16,17,17,17,17,17,17,17,16,17,17,17,17,17,16,16,16,17,17,17,17,17,17,16,16,18,17,17,16,17,17,17,17,17,16,17,17,17,16,17,17,17,16,17,17,16,17,17,16,16,17,17,17,17,16,17,17,16,17,17,17,17,17,17,17,17,17,16,15,17,17,17,17,16,17,16,16,17,17,16,18,16,16,17,16,17,16,18,16,17,17,17,17,17,17,16,17,17,17,17,17,17,16,17,16,17,17,17,16,16,17,16,17,17,17,17,16,17],"number_of_frames":121,"aperture_center_x":640,"aperture_center_y":360,"fixation_cross":true,"fixation_cross_width":15,"fixation_cross_height":15,"fixation_cross_color":"#111","fixation_cross_thickness":1,"border":true,"border_thickness":2,"border_color":"transparent","canvas_width":1280,"canvas_height":720,"trial_type":"rdk","trial_index":44,"plugin_version":"2.0.0","time_elapsed":186680},{"rt":3050,"stimulus":"\n        <div class=\"response-container\">\n          <div class=\"response-instruction\">\n            <p>rotate the bar by using the left and right arrow keys.</p>\n            <p>when you are determined, press the Enter key.</p>\n          </div>\n          <div class=\"response-circle\">\n            <div class=\"response-fixation\"></div>\n            <div id=\"bar\" class=\"rotating-bar\"></div>\n          </div>\n        </div>\n      ","response":"Enter","trial_type":"html-keyboard-response","trial_index":45,"plugin_version":"2.1.0","time_elapsed":189730,"response_angle_css":270,"response_angle_rdk":180,"angular_error_target":126,"angular_error_distractor":7,"target_direction":54,"target_group":"black","reward_points":0},{"rt":null,"stimulus":"\n          <p style=\"color: #FF3333;\">Your reward: 0 points</p>\n        ","response":null,"trial_type":"html-keyboard-response","trial_index":46,"plugin_version":"2.1.0","time_elapsed":191737},{"rt":null,"stimulus":"<div class=\"fixation\" style=\"font-size: 60px;\">+</div>","response":null,"trial_type":"html-keyboard-response","trial_index":47,"plugin_version":"2.1.0","time_elapsed":192751},{"target_group":"white","condition_label":"W_H_vs_B_L_rep2","target_direction":352,"distractor_direction":245,"session_rotation":313,"rt":-1,"response":"","correct":false,"choices":"ALL_KEYS","correct_choice":["a"],"trial_duration":2000,"flip_timestamps":[],"response_ends_trial":false,"number_of_apertures":200,"number_of_dots":[1,1,1,1,1,1,1,1,1,1,1,1,1,1,1,1,1,1,1,1,1,1,1,1,1,1,1,1,1,1,1,1,1,1,1,1,1,1,1,1,1,1,1,1,1,1,1,1,1,1,1,1,1,1,1,1,1,1,1,1,1,1,1,1,1,1,1,1,1,1,1,1,1,1,1,1,1,1,1,1,1,1,1,1,1,1,1,1,1,1,1,1,1,1,1,1,1,1,1,1,1,1,1,1,1,1,1,1,1,1,1,1,1,1,1,1,1,1,1,1,1,1,1,1,1,1,1,1,1,1,1,1,1,1,1,1,1,1,1,1,1,1,1,1,1,1,1,1,1,1,1,1,1,1,1,1,1,1,1,1,1,1,1,1,1,1,1,1,1,1,1,1,1,1,1,1,1,1,1,1,1,1,1,1,1,1,1,1,1,1,1,1,1,1,1,1,1,1,1,1],"number_of_sets":1,"coherent_direction":[245,352,352,352,352,352,245,352,245,245,352,245,245,352,352,352,245,352,245,245,352,245,352,352,245,352,245,245,352,352,352,352,352,352,245,245,245,245,352,352,352,352,245,245,245,352,352,352,245,352,245,245,352,352,352,245,352,245,245,352,352,352,245,245,245,245,352,352,352,245,352,352,245,352,352,245,245,245,245,352,352,245,352,245,245,245,352,245,352,352,245,352,352,245,352,352,245,352,245,245,352,245,245,245,245,245,245,352,245,352,352,352,352,352,245,352,245,245,245,245,245,352,245,245,352,352,352,245,352,245,245,352,245,352,245,352,245,245,245,245,245,245,352,245,245,245,352,245,352,245,245,245,352,245,245,352,245,352,245,352,245,352,245,352,245,352,245,352,352,352,352,352,245,245,352,352,352,245,352,352,245,352,352,245,352,352,245,245,245,352,245,245,352,352,245,352,352,245,352,245],"coherence":1,"opposite_coherence":0,"dot_radius":2,"dot_side_length":1,"dot_life":-1,"move_distance":1,"aperture_width":300,"aperture_height":300,"dot_color":["black","white","white","white","white","white","black","white","black","black","white","black","black","white","white","white","black","white","black","black","white","black","white","white","black","white","black","black","white","white","white","white","white","white","black","black","black","black","white","white","white","white","black","black","black","white","white","white","black","white","black","black","white","white","white","black","white","black","black","white","white","white","black","black","black","black","white","white","white","black","white","white","black","white","white","black","black","black","black","white","white","black","white","black","black","black","white","black","white","white","black","white","white","black","white","white","black","white","black","black","white","black","black","black","black","black","black","white","black","white","white","white","white","white","black","white","black","black","black","black","black","white","black","black","white","white","white","black","white","black","black","white","black","white","black","white","black","black","black","black","black","black","white","black","black","black","white","black","white","black","black","black","white","black","black","white","black","white","black","white","black","white","black","white","black","white","black","white","white","white","white","white","black","black","white","white","white","black","white","white","black","white","white","black","white","white","black","black","black","white","black","black","white","white","black","white","white","black","white","black"],"dot_shape":"circle","background_color":"#AAA","RDK_type":3,"aperture_type":2,"reinsert_type":2,"frame_rate":16.52892561983471,"frame_rate_array":[3,15,17,17,17,16,17,16,17,17,16,16,18,16,17,16,17,17,17,17,17,16,17,16,16,17,16,17,16,17,17,17,15,17,16,17,17,16,17,17,16,17,17,17,17,16,17,17,15,17,17,17,16,17,17,16,16,17,16,16,17,16,16,17,16,17,17,17,17,17,16,17,16,17,17,16,17,17,17,16,16,17,17,17,17,17,17,16,18,16,17,17,17,16,17,17,17,16,16,17,17,18,15,17,17,16,17,17,17,17,16,17,17,17,16,16,17,17,16,17,17],"number_of_frames":121,"aperture_center_x":640,"aperture_center_y":360,"fixation_cross":true,"fixation_cross_width":15,"fixation_cross_height":15,"fixation_cross_color":"#111","fixation_cross_thickness":1,"border":true,"border_thickness":2,"border_color":"transparent","canvas_width":1280,"canvas_height":720,"trial_type":"rdk","trial_index":48,"plugin_version":"2.0.0","time_elapsed":194756},{"rt":2579,"stimulus":"\n        <div class=\"response-container\">\n          <div class=\"response-instruction\">\n            <p>rotate the bar by using the left and right arrow keys.</p>\n            <p>when you are determined, press the Enter key.</p>\n          </div>\n          <div class=\"response-circle\">\n            <div class=\"response-fixation\"></div>\n            <div id=\"bar\" class=\"rotating-bar\"></div>\n          </div>\n        </div>\n      ","response":"Enter","trial_type":"html-keyboard-response","trial_index":49,"plugin_version":"2.1.0","time_elapsed":197335,"response_angle_css":219,"response_angle_rdk":231,"angular_error_target":-121,"angular_error_distractor":-14,"target_direction":352,"target_group":"white","reward_points":0},{"rt":null,"stimulus":"\n          <p style=\"color: #FF3333;\">Your reward: 0 points</p>\n        ","response":null,"trial_type":"html-keyboard-response","trial_index":50,"plugin_version":"2.1.0","time_elapsed":199340},{"rt":null,"stimulus":"<div class=\"fixation\" style=\"font-size: 60px;\">+</div>","response":null,"trial_type":"html-keyboard-response","trial_index":51,"plugin_version":"2.1.0","time_elapsed":200355},{"target_group":"black","condition_label":"B_H_vs_W_L_rep1","target_direction":85,"distractor_direction":175,"session_rotation":313,"rt":-1,"response":"","correct":false,"choices":"ALL_KEYS","correct_choice":["a"],"trial_duration":2000,"flip_timestamps":[],"response_ends_trial":false,"number_of_apertures":200,"number_of_dots":[1,1,1,1,1,1,1,1,1,1,1,1,1,1,1,1,1,1,1,1,1,1,1,1,1,1,1,1,1,1,1,1,1,1,1,1,1,1,1,1,1,1,1,1,1,1,1,1,1,1,1,1,1,1,1,1,1,1,1,1,1,1,1,1,1,1,1,1,1,1,1,1,1,1,1,1,1,1,1,1,1,1,1,1,1,1,1,1,1,1,1,1,1,1,1,1,1,1,1,1,1,1,1,1,1,1,1,1,1,1,1,1,1,1,1,1,1,1,1,1,1,1,1,1,1,1,1,1,1,1,1,1,1,1,1,1,1,1,1,1,1,1,1,1,1,1,1,1,1,1,1,1,1,1,1,1,1,1,1,1,1,1,1,1,1,1,1,1,1,1,1,1,1,1,1,1,1,1,1,1,1,1,1,1,1,1,1,1,1,1,1,1,1,1,1,1,1,1,1,1],"number_of_sets":1,"coherent_direction":[175,175,175,175,85,175,175,85,85,175,175,175,85,175,85,85,85,175,175,175,85,85,85,175,175,175,85,85,85,175,175,85,175,175,175,85,85,175,175,85,85,175,85,85,85,175,85,85,85,85,85,85,175,175,85,175,85,175,85,85,85,85,85,85,85,175,175,85,175,85,85,85,175,175,175,85,85,175,85,85,85,175,175,85,175,175,175,85,85,85,85,85,85,175,175,175,85,85,85,85,175,85,85,85,85,175,175,175,175,175,85,175,175,175,175,85,85,85,175,85,175,85,175,175,85,85,175,175,85,175,175,175,85,175,175,85,175,85,85,175,85,85,175,175,175,175,85,175,175,85,175,85,85,175,175,175,175,175,85,175,85,85,175,175,85,175,175,175,175,175,85,85,85,85,85,85,175,175,175,175,175,175,85,175,85,85,85,175,175,175,175,85,175,85,85,175,85,85,85,85],"coherence":1,"opposite_coherence":0,"dot_radius":2,"dot_side_length":1,"dot_life":-1,"move_distance":1,"aperture_width":300,"aperture_height":300,"dot_color":["white","white","white","white","black","white","white","black","black","white","white","white","black","white","black","black","black","white","white","white","black","black","black","white","white","white","black","black","black","white","white","black","white","white","white","black","black","white","white","black","black","white","black","black","black","white","black","black","black","black","black","black","white","white","black","white","black","white","black","black","black","black","black","black","black","white","white","black","white","black","black","black","white","white","white","black","black","white","black","black","black","white","white","black","white","white","white","black","black","black","black","black","black","white","white","white","black","black","black","black","white","black","black","black","black","white","white","white","white","white","black","white","white","white","white","black","black","black","white","black","white","black","white","white","black","black","white","white","black","white","white","white","black","white","white","black","white","black","black","white","black","black","white","white","white","white","black","white","white","black","white","black","black","white","white","white","white","white","black","white","black","black","white","white","black","white","white","white","white","white","black","black","black","black","black","black","white","white","white","white","white","white","black","white","black","black","black","white","white","white","white","black","white","black","black","white","black","black","black","black"],"dot_shape":"circle","background_color":"#AAA","RDK_type":3,"aperture_type":2,"reinsert_type":2,"frame_rate":16.66115702479339,"frame_rate_array":[9,17,17,17,17,16,17,16,17,17,17,17,16,17,17,17,16,17,17,17,17,17,16,17,16,17,17,17,16,17,17,16,18,16,17,17,18,16,17,16,17,16,17,17,17,17,16,17,17,16,16,17,17,16,16,17,16,17,17,16,17,16,17,17,17,17,16,17,16,17,17,17,16,16,17,17,16,17,18,16,17,17,17,17,16,18,16,17,16,17,17,16,18,16,17,17,16,17,17,16,17,17,17,17,17,16,16,17,18,16,16,18,16,17,17,16,17,17,17,16,17],"number_of_frames":121,"aperture_center_x":640,"aperture_center_y":360,"fixation_cross":true,"fixation_cross_width":15,"fixation_cross_height":15,"fixation_cross_color":"#111","fixation_cross_thickness":1,"border":true,"border_thickness":2,"border_color":"transparent","canvas_width":1280,"canvas_height":720,"trial_type":"rdk","trial_index":52,"plugin_version":"2.0.0","time_elapsed":202366},{"rt":3943,"stimulus":"\n        <div class=\"response-container\">\n          <div class=\"response-instruction\">\n            <p>rotate the bar by using the left and right arrow keys.</p>\n            <p>when you are determined, press the Enter key.</p>\n          </div>\n          <div class=\"response-circle\">\n            <div class=\"response-fixation\"></div>\n            <div id=\"bar\" class=\"rotating-bar\"></div>\n          </div>\n        </div>\n      ","response":"Enter","trial_type":"html-keyboard-response","trial_index":53,"plugin_version":"2.1.0","time_elapsed":206310,"response_angle_css":275,"response_angle_rdk":175,"angular_error_target":90,"angular_error_distractor":0,"target_direction":85,"target_group":"black","reward_points":0},{"rt":null,"stimulus":"\n          <p style=\"color: #FF3333;\">Your reward: 0 points</p>\n        ","response":null,"trial_type":"html-keyboard-response","trial_index":54,"plugin_version":"2.1.0","time_elapsed":208318},{"rt":null,"stimulus":"<div class=\"fixation\" style=\"font-size: 60px;\">+</div>","response":null,"trial_type":"html-keyboard-response","trial_index":55,"plugin_version":"2.1.0","time_elapsed":209329},{"target_group":"black","condition_label":"B_H_vs_W_L_rep22","target_direction":45,"distractor_direction":167,"session_rotation":313,"rt":-1,"response":"","correct":false,"choices":"ALL_KEYS","correct_choice":["a"],"trial_duration":2000,"flip_timestamps":[],"response_ends_trial":false,"number_of_apertures":200,"number_of_dots":[1,1,1,1,1,1,1,1,1,1,1,1,1,1,1,1,1,1,1,1,1,1,1,1,1,1,1,1,1,1,1,1,1,1,1,1,1,1,1,1,1,1,1,1,1,1,1,1,1,1,1,1,1,1,1,1,1,1,1,1,1,1,1,1,1,1,1,1,1,1,1,1,1,1,1,1,1,1,1,1,1,1,1,1,1,1,1,1,1,1,1,1,1,1,1,1,1,1,1,1,1,1,1,1,1,1,1,1,1,1,1,1,1,1,1,1,1,1,1,1,1,1,1,1,1,1,1,1,1,1,1,1,1,1,1,1,1,1,1,1,1,1,1,1,1,1,1,1,1,1,1,1,1,1,1,1,1,1,1,1,1,1,1,1,1,1,1,1,1,1,1,1,1,1,1,1,1,1,1,1,1,1,1,1,1,1,1,1,1,1,1,1,1,1,1,1,1,1,1,1],"number_of_sets":1,"coherent_direction":[167,167,167,45,167,167,167,167,167,45,167,45,167,167,45,45,45,45,45,167,45,45,45,45,167,45,167,45,167,45,167,167,45,167,45,167,167,45,167,167,167,167,45,45,45,167,45,167,167,167,45,167,45,167,45,167,167,167,45,45,45,167,45,167,45,45,45,45,167,167,45,167,167,45,167,167,167,45,167,167,167,45,167,45,45,167,45,45,167,45,45,45,167,167,167,167,167,167,45,167,45,45,167,167,167,45,45,45,167,167,45,45,45,167,167,167,167,45,167,167,167,45,45,167,45,167,45,45,167,45,167,45,167,45,45,167,167,45,45,45,45,167,45,167,167,45,167,167,167,167,167,167,167,45,167,167,45,45,45,45,45,45,167,45,167,45,45,45,167,45,45,45,167,167,45,45,167,167,167,45,167,167,45,45,45,45,45,45,45,45,45,167,45,45,167,45,45,167,167,45],"coherence":1,"opposite_coherence":0,"dot_radius":2,"dot_side_length":1,"dot_life":-1,"move_distance":1,"aperture_width":300,"aperture_height":300,"dot_color":["white","white","white","black","white","white","white","white","white","black","white","black","white","white","black","black","black","black","black","white","black","black","black","black","white","black","white","black","white","black","white","white","black","white","black","white","white","black","white","white","white","white","black","black","black","white","black","white","white","white","black","white","black","white","black","white","white","white","black","black","black","white","black","white","black","black","black","black","white","white","black","white","white","black","white","white","white","black","white","white","white","black","white","black","black","white","black","black","white","black","black","black","white","white","white","white","white","white","black","white","black","black","white","white","white","black","black","black","white","white","black","black","black","white","white","white","white","black","white","white","white","black","black","white","black","white","black","black","white","black","white","black","white","black","black","white","white","black","black","black","black","white","black","white","white","black","white","white","white","white","white","white","white","black","white","white","black","black","black","black","black","black","white","black","white","black","black","black","white","black","black","black","white","white","black","black","white","white","white","black","white","white","black","black","black","black","black","black","black","black","black","white","black","black","white","black","black","white","white","black"],"dot_shape":"circle","background_color":"#AAA","RDK_type":3,"aperture_type":2,"reinsert_type":2,"frame_rate":16.644628099173552,"frame_rate_array":[11,16,17,16,17,17,16,17,16,17,17,17,16,17,17,16,17,16,17,16,17,17,16,16,17,17,17,17,17,16,17,16,18,17,16,17,17,17,16,17,17,16,16,17,17,16,17,17,16,17,17,17,17,17,17,17,15,17,16,17,16,17,17,17,17,16,17,17,17,17,17,16,17,17,17,17,16,17,17,17,17,17,17,16,16,17,16,18,17,16,16,16,17,17,17,16,17,17,16,17,16,17,17,16,17,17,17,17,17,17,16,16,17,17,17,17,16,17,17,17,16],"number_of_frames":121,"aperture_center_x":640,"aperture_center_y":360,"fixation_cross":true,"fixation_cross_width":15,"fixation_cross_height":15,"fixation_cross_color":"#111","fixation_cross_thickness":1,"border":true,"border_thickness":2,"border_color":"transparent","canvas_width":1280,"canvas_height":720,"trial_type":"rdk","trial_index":56,"plugin_version":"2.0.0","time_elapsed":211341},{"rt":1337,"stimulus":"\n        <div class=\"response-container\">\n          <div class=\"response-instruction\">\n            <p>rotate the bar by using the left and right arrow keys.</p>\n            <p>when you are determined, press the Enter key.</p>\n          </div>\n          <div class=\"response-circle\">\n            <div class=\"response-fixation\"></div>\n            <div id=\"bar\" class=\"rotating-bar\"></div>\n          </div>\n        </div>\n      ","response":"Enter","trial_type":"html-keyboard-response","trial_index":57,"plugin_version":"2.1.0","time_elapsed":212680,"response_angle_css":53,"response_angle_rdk":37,"angular_error_target":-8,"angular_error_distractor":-130,"target_direction":45,"target_group":"black","reward_points":8},{"rt":null,"stimulus":"\n          <p style=\"color: #00FF00;\">Your reward: 8 points</p>\n        ","response":null,"trial_type":"html-keyboard-response","trial_index":58,"plugin_version":"2.1.0","time_elapsed":214690},{"rt":null,"stimulus":"<div class=\"fixation\" style=\"font-size: 60px;\">+</div>","response":null,"trial_type":"html-keyboard-response","trial_index":59,"plugin_version":"2.1.0","time_elapsed":215706},{"target_group":"white","condition_label":"W_H_vs_B_L_rep16","target_direction":315,"distractor_direction":224,"session_rotation":313,"rt":-1,"response":"","correct":false,"choices":"ALL_KEYS","correct_choice":["a"],"trial_duration":2000,"flip_timestamps":[],"response_ends_trial":false,"number_of_apertures":200,"number_of_dots":[1,1,1,1,1,1,1,1,1,1,1,1,1,1,1,1,1,1,1,1,1,1,1,1,1,1,1,1,1,1,1,1,1,1,1,1,1,1,1,1,1,1,1,1,1,1,1,1,1,1,1,1,1,1,1,1,1,1,1,1,1,1,1,1,1,1,1,1,1,1,1,1,1,1,1,1,1,1,1,1,1,1,1,1,1,1,1,1,1,1,1,1,1,1,1,1,1,1,1,1,1,1,1,1,1,1,1,1,1,1,1,1,1,1,1,1,1,1,1,1,1,1,1,1,1,1,1,1,1,1,1,1,1,1,1,1,1,1,1,1,1,1,1,1,1,1,1,1,1,1,1,1,1,1,1,1,1,1,1,1,1,1,1,1,1,1,1,1,1,1,1,1,1,1,1,1,1,1,1,1,1,1,1,1,1,1,1,1,1,1,1,1,1,1,1,1,1,1,1,1],"number_of_sets":1,"coherent_direction":[224,224,224,315,224,315,224,315,315,224,315,224,224,224,315,224,224,315,224,224,315,224,224,224,224,224,224,224,224,315,315,224,315,315,315,224,315,315,224,224,315,315,315,315,224,315,224,224,315,315,224,224,315,224,224,224,224,224,315,315,315,315,315,224,315,224,315,315,315,315,315,315,224,224,315,224,315,315,224,224,315,224,315,224,315,224,224,315,315,315,224,315,315,315,224,224,224,224,315,224,315,315,315,315,315,315,315,315,315,315,224,315,224,315,224,224,315,315,315,224,224,315,315,315,224,315,315,315,224,224,224,315,224,224,315,315,224,315,224,224,315,315,224,224,224,224,315,315,224,224,315,315,315,224,315,224,315,315,315,315,224,224,315,315,224,315,224,224,315,224,224,224,224,224,224,315,224,315,224,224,224,224,315,224,315,315,315,315,224,224,224,315,224,315,224,224,224,224,315,315],"coherence":1,"opposite_coherence":0,"dot_radius":2,"dot_side_length":1,"dot_life":-1,"move_distance":1,"aperture_width":300,"aperture_height":300,"dot_color":["black","black","black","white","black","white","black","white","white","black","white","black","black","black","white","black","black","white","black","black","white","black","black","black","black","black","black","black","black","white","white","black","white","white","white","black","white","white","black","black","white","white","white","white","black","white","black","black","white","white","black","black","white","black","black","black","black","black","white","white","white","white","white","black","white","black","white","white","white","white","white","white","black","black","white","black","white","white","black","black","white","black","white","black","white","black","black","white","white","white","black","white","white","white","black","black","black","black","white","black","white","white","white","white","white","white","white","white","white","white","black","white","black","white","black","black","white","white","white","black","black","white","white","white","black","white","white","white","black","black","black","white","black","black","white","white","black","white","black","black","white","white","black","black","black","black","white","white","black","black","white","white","white","black","white","black","white","white","white","white","black","black","white","white","black","white","black","black","white","black","black","black","black","black","black","white","black","white","black","black","black","black","white","black","white","white","white","white","black","black","black","white","black","white","black","black","black","black","white","white"],"dot_shape":"circle","background_color":"#AAA","RDK_type":3,"aperture_type":2,"reinsert_type":2,"frame_rate":16.710743801652892,"frame_rate_array":[11,16,17,16,18,17,17,17,17,16,17,17,17,17,17,17,16,17,16,17,17,16,17,17,16,17,16,17,17,17,17,17,16,17,16,17,17,17,17,17,17,17,17,16,18,17,16,17,17,17,17,16,17,18,16,17,17,17,17,17,16,16,17,17,17,17,17,16,17,16,17,17,16,17,16,17,17,17,17,17,17,17,17,17,16,17,16,17,17,17,16,17,17,17,16,17,17,17,16,17,16,17,17,20,13,17,17,16,17,16,17,17,16,16,16,17,17,17,17,17,17],"number_of_frames":121,"aperture_center_x":640,"aperture_center_y":360,"fixation_cross":true,"fixation_cross_width":15,"fixation_cross_height":15,"fixation_cross_color":"#111","fixation_cross_thickness":1,"border":true,"border_thickness":2,"border_color":"transparent","canvas_width":1280,"canvas_height":720,"trial_type":"rdk","trial_index":60,"plugin_version":"2.0.0","time_elapsed":217719},{"rt":1314,"stimulus":"\n        <div class=\"response-container\">\n          <div class=\"response-instruction\">\n            <p>rotate the bar by using the left and right arrow keys.</p>\n            <p>when you are determined, press the Enter key.</p>\n          </div>\n          <div class=\"response-circle\">\n            <div class=\"response-fixation\"></div>\n            <div id=\"bar\" class=\"rotating-bar\"></div>\n          </div>\n        </div>\n      ","response":"Enter","trial_type":"html-keyboard-response","trial_index":61,"plugin_version":"2.1.0","time_elapsed":219034,"response_angle_css":215,"response_angle_rdk":235,"angular_error_target":-80,"angular_error_distractor":11,"target_direction":315,"target_group":"white","reward_points":0},{"rt":null,"stimulus":"\n          <p style=\"color: #FF3333;\">Your reward: 0 points</p>\n        ","response":null,"trial_type":"html-keyboard-response","trial_index":62,"plugin_version":"2.1.0","time_elapsed":221036},{"rt":null,"stimulus":"<div class=\"fixation\" style=\"font-size: 60px;\">+</div>","response":null,"trial_type":"html-keyboard-response","trial_index":63,"plugin_version":"2.1.0","time_elapsed":222050},{"target_group":"black","condition_label":"B_H_vs_W_L_rep21","target_direction":49,"distractor_direction":157,"session_rotation":313,"rt":-1,"response":"","correct":false,"choices":"ALL_KEYS","correct_choice":["a"],"trial_duration":2000,"flip_timestamps":[],"response_ends_trial":false,"number_of_apertures":200,"number_of_dots":[1,1,1,1,1,1,1,1,1,1,1,1,1,1,1,1,1,1,1,1,1,1,1,1,1,1,1,1,1,1,1,1,1,1,1,1,1,1,1,1,1,1,1,1,1,1,1,1,1,1,1,1,1,1,1,1,1,1,1,1,1,1,1,1,1,1,1,1,1,1,1,1,1,1,1,1,1,1,1,1,1,1,1,1,1,1,1,1,1,1,1,1,1,1,1,1,1,1,1,1,1,1,1,1,1,1,1,1,1,1,1,1,1,1,1,1,1,1,1,1,1,1,1,1,1,1,1,1,1,1,1,1,1,1,1,1,1,1,1,1,1,1,1,1,1,1,1,1,1,1,1,1,1,1,1,1,1,1,1,1,1,1,1,1,1,1,1,1,1,1,1,1,1,1,1,1,1,1,1,1,1,1,1,1,1,1,1,1,1,1,1,1,1,1,1,1,1,1,1,1],"number_of_sets":1,"coherent_direction":[49,157,157,157,157,157,49,157,157,49,49,49,157,157,49,49,49,49,49,49,157,49,49,157,49,157,49,157,157,49,49,49,157,157,49,157,157,157,49,157,157,157,157,49,49,49,49,49,157,49,49,49,157,49,157,157,157,49,49,49,49,157,49,49,157,157,49,49,49,157,157,49,157,157,49,157,49,157,157,157,49,157,49,49,157,157,157,49,157,49,49,157,49,157,157,157,157,49,157,49,49,49,49,49,49,157,157,49,49,49,157,49,49,49,49,157,157,157,157,157,49,157,157,157,157,49,49,49,49,49,49,157,157,157,49,49,49,49,157,157,157,157,49,49,157,157,49,157,157,157,49,49,157,157,157,157,157,49,157,49,49,49,157,157,49,49,157,49,157,157,157,49,49,49,157,157,49,49,49,49,49,49,157,157,157,49,157,157,157,49,157,49,49,157,157,49,157,49,157,157],"coherence":1,"opposite_coherence":0,"dot_radius":2,"dot_side_length":1,"dot_life":-1,"move_distance":1,"aperture_width":300,"aperture_height":300,"dot_color":["black","white","white","white","white","white","black","white","white","black","black","black","white","white","black","black","black","black","black","black","white","black","black","white","black","white","black","white","white","black","black","black","white","white","black","white","white","white","black","white","white","white","white","black","black","black","black","black","white","black","black","black","white","black","white","white","white","black","black","black","black","white","black","black","white","white","black","black","black","white","white","black","white","white","black","white","black","white","white","white","black","white","black","black","white","white","white","black","white","black","black","white","black","white","white","white","white","black","white","black","black","black","black","black","black","white","white","black","black","black","white","black","black","black","black","white","white","white","white","white","black","white","white","white","white","black","black","black","black","black","black","white","white","white","black","black","black","black","white","white","white","white","black","black","white","white","black","white","white","white","black","black","white","white","white","white","white","black","white","black","black","black","white","white","black","black","white","black","white","white","white","black","black","black","white","white","black","black","black","black","black","black","white","white","white","black","white","white","white","black","white","black","black","white","white","black","white","black","white","white"],"dot_shape":"circle","background_color":"#AAA","RDK_type":3,"aperture_type":2,"reinsert_type":2,"frame_rate":16.694214876033058,"frame_rate_array":[12,16,17,16,16,17,16,17,17,17,18,17,16,16,17,17,16,17,16,17,17,17,16,16,17,17,16,18,16,17,16,17,17,16,17,17,17,17,17,16,17,17,17,17,16,17,16,17,17,16,17,17,17,17,17,17,16,17,17,17,17,16,16,17,16,17,17,17,17,17,17,17,17,17,16,17,17,16,17,17,16,17,17,16,17,17,17,17,17,16,17,17,17,17,17,16,17,17,17,17,16,17,17,16,17,16,18,16,16,17,17,17,16,17,17,16,17,17,17,17,17],"number_of_frames":121,"aperture_center_x":640,"aperture_center_y":360,"fixation_cross":true,"fixation_cross_width":15,"fixation_cross_height":15,"fixation_cross_color":"#111","fixation_cross_thickness":1,"border":true,"border_thickness":2,"border_color":"transparent","canvas_width":1280,"canvas_height":720,"trial_type":"rdk","trial_index":64,"plugin_version":"2.0.0","time_elapsed":224063},{"rt":3373,"stimulus":"\n        <div class=\"response-container\">\n          <div class=\"response-instruction\">\n            <p>rotate the bar by using the left and right arrow keys.</p>\n            <p>when you are determined, press the Enter key.</p>\n          </div>\n          <div class=\"response-circle\">\n            <div class=\"response-fixation\"></div>\n            <div id=\"bar\" class=\"rotating-bar\"></div>\n          </div>\n        </div>\n      ","response":"Enter","trial_type":"html-keyboard-response","trial_index":65,"plugin_version":"2.1.0","time_elapsed":227436,"response_angle_css":396,"response_angle_rdk":54,"angular_error_target":5,"angular_error_distractor":-103,"target_direction":49,"target_group":"black","reward_points":9},{"rt":null,"stimulus":"\n          <p style=\"color: #00FF00;\">Your reward: 9 points</p>\n        ","response":null,"trial_type":"html-keyboard-response","trial_index":66,"plugin_version":"2.1.0","time_elapsed":229449},{"rt":null,"stimulus":"<div class=\"fixation\" style=\"font-size: 60px;\">+</div>","response":null,"trial_type":"html-keyboard-response","trial_index":67,"plugin_version":"2.1.0","time_elapsed":230465},{"target_group":"white","condition_label":"W_H_vs_B_L_rep4","target_direction":356,"distractor_direction":232,"session_rotation":313,"rt":-1,"response":"","correct":false,"choices":"ALL_KEYS","correct_choice":["a"],"trial_duration":2000,"flip_timestamps":[],"response_ends_trial":false,"number_of_apertures":200,"number_of_dots":[1,1,1,1,1,1,1,1,1,1,1,1,1,1,1,1,1,1,1,1,1,1,1,1,1,1,1,1,1,1,1,1,1,1,1,1,1,1,1,1,1,1,1,1,1,1,1,1,1,1,1,1,1,1,1,1,1,1,1,1,1,1,1,1,1,1,1,1,1,1,1,1,1,1,1,1,1,1,1,1,1,1,1,1,1,1,1,1,1,1,1,1,1,1,1,1,1,1,1,1,1,1,1,1,1,1,1,1,1,1,1,1,1,1,1,1,1,1,1,1,1,1,1,1,1,1,1,1,1,1,1,1,1,1,1,1,1,1,1,1,1,1,1,1,1,1,1,1,1,1,1,1,1,1,1,1,1,1,1,1,1,1,1,1,1,1,1,1,1,1,1,1,1,1,1,1,1,1,1,1,1,1,1,1,1,1,1,1,1,1,1,1,1,1,1,1,1,1,1,1],"number_of_sets":1,"coherent_direction":[232,356,356,232,356,356,232,356,356,356,232,232,232,356,232,356,232,356,232,356,232,232,232,356,232,232,356,356,232,356,356,356,356,356,232,232,232,356,232,356,232,232,356,232,356,356,356,232,232,356,356,356,232,232,356,232,232,356,356,232,356,232,356,232,356,232,232,232,356,232,232,232,232,356,356,356,356,356,356,232,232,356,356,356,232,232,232,232,232,356,356,232,232,356,356,356,356,356,232,356,232,356,356,232,232,232,232,356,232,356,232,356,356,356,356,232,232,232,232,356,356,232,356,232,356,356,232,356,356,232,356,232,232,232,356,232,356,232,356,232,232,232,356,356,356,232,232,232,232,232,356,356,356,232,232,356,356,356,356,356,232,356,232,232,232,232,232,356,232,232,232,356,356,232,356,232,356,356,232,232,232,232,356,356,232,356,356,356,232,356,356,356,232,232,356,232,232,356,232,356],"coherence":1,"opposite_coherence":0,"dot_radius":2,"dot_side_length":1,"dot_life":-1,"move_distance":1,"aperture_width":300,"aperture_height":300,"dot_color":["black","white","white","black","white","white","black","white","white","white","black","black","black","white","black","white","black","white","black","white","black","black","black","white","black","black","white","white","black","white","white","white","white","white","black","black","black","white","black","white","black","black","white","black","white","white","white","black","black","white","white","white","black","black","white","black","black","white","white","black","white","black","white","black","white","black","black","black","white","black","black","black","black","white","white","white","white","white","white","black","black","white","white","white","black","black","black","black","black","white","white","black","black","white","white","white","white","white","black","white","black","white","white","black","black","black","black","white","black","white","black","white","white","white","white","black","black","black","black","white","white","black","white","black","white","white","black","white","white","black","white","black","black","black","white","black","white","black","white","black","black","black","white","white","white","black","black","black","black","black","white","white","white","black","black","white","white","white","white","white","black","white","black","black","black","black","black","white","black","black","black","white","white","black","white","black","white","white","black","black","black","black","white","white","black","white","white","white","black","white","white","white","black","black","white","black","black","white","black","white"],"dot_shape":"circle","background_color":"#AAA","RDK_type":3,"aperture_type":2,"reinsert_type":2,"frame_rate":16.60330578512397,"frame_rate_array":[6,17,17,17,17,17,16,18,16,16,17,18,16,17,17,16,16,18,16,17,17,16,17,17,16,18,17,17,16,17,17,17,17,17,17,16,16,17,16,16,17,17,17,17,16,17,17,16,17,16,18,17,16,16,17,17,17,16,17,17,17,16,16,17,17,16,17,16,17,17,16,17,16,17,16,17,17,16,17,17,17,17,16,17,16,17,17,16,17,16,18,16,16,17,17,17,16,16,17,17,17,16,16,17,16,17,17,17,17,16,17,17,16,17,17,17,16,18,17,16,16],"number_of_frames":121,"aperture_center_x":640,"aperture_center_y":360,"fixation_cross":true,"fixation_cross_width":15,"fixation_cross_height":15,"fixation_cross_color":"#111","fixation_cross_thickness":1,"border":true,"border_thickness":2,"border_color":"transparent","canvas_width":1280,"canvas_height":720,"trial_type":"rdk","trial_index":68,"plugin_version":"2.0.0","time_elapsed":232472},{"rt":2121,"stimulus":"\n        <div class=\"response-container\">\n          <div class=\"response-instruction\">\n            <p>rotate the bar by using the left and right arrow keys.</p>\n            <p>when you are determined, press the Enter key.</p>\n          </div>\n          <div class=\"response-circle\">\n            <div class=\"response-fixation\"></div>\n            <div id=\"bar\" class=\"rotating-bar\"></div>\n          </div>\n        </div>\n      ","response":"Enter","trial_type":"html-keyboard-response","trial_index":69,"plugin_version":"2.1.0","time_elapsed":234595,"response_angle_css":228,"response_angle_rdk":222,"angular_error_target":-134,"angular_error_distractor":-10,"target_direction":356,"target_group":"white","reward_points":0},{"rt":null,"stimulus":"\n          <p style=\"color: #FF3333;\">Your reward: 0 points</p>\n        ","response":null,"trial_type":"html-keyboard-response","trial_index":70,"plugin_version":"2.1.0","time_elapsed":236608},{"rt":null,"stimulus":"<div class=\"fixation\" style=\"font-size: 60px;\">+</div>","response":null,"trial_type":"html-keyboard-response","trial_index":71,"plugin_version":"2.1.0","time_elapsed":237618},{"target_group":"white","condition_label":"W_H_vs_B_L_rep20","target_direction":338,"distractor_direction":240,"session_rotation":313,"rt":-1,"response":"","correct":false,"choices":"ALL_KEYS","correct_choice":["a"],"trial_duration":2000,"flip_timestamps":[],"response_ends_trial":false,"number_of_apertures":200,"number_of_dots":[1,1,1,1,1,1,1,1,1,1,1,1,1,1,1,1,1,1,1,1,1,1,1,1,1,1,1,1,1,1,1,1,1,1,1,1,1,1,1,1,1,1,1,1,1,1,1,1,1,1,1,1,1,1,1,1,1,1,1,1,1,1,1,1,1,1,1,1,1,1,1,1,1,1,1,1,1,1,1,1,1,1,1,1,1,1,1,1,1,1,1,1,1,1,1,1,1,1,1,1,1,1,1,1,1,1,1,1,1,1,1,1,1,1,1,1,1,1,1,1,1,1,1,1,1,1,1,1,1,1,1,1,1,1,1,1,1,1,1,1,1,1,1,1,1,1,1,1,1,1,1,1,1,1,1,1,1,1,1,1,1,1,1,1,1,1,1,1,1,1,1,1,1,1,1,1,1,1,1,1,1,1,1,1,1,1,1,1,1,1,1,1,1,1,1,1,1,1,1,1],"number_of_sets":1,"coherent_direction":[240,338,338,338,240,240,240,338,338,338,240,240,240,338,240,240,338,338,338,240,240,338,338,338,240,338,240,338,240,240,338,338,338,338,338,240,338,338,240,338,240,240,338,240,338,240,338,338,240,240,338,338,338,240,338,338,338,338,240,240,240,240,240,338,240,240,338,338,240,338,338,338,338,240,240,338,240,240,240,338,338,240,338,338,338,338,338,240,240,338,338,240,338,240,338,240,240,240,240,240,338,240,240,240,240,240,240,240,240,240,240,338,240,240,240,338,338,338,240,240,240,240,338,338,240,240,240,240,338,338,240,338,338,240,338,338,240,240,338,338,338,338,240,338,240,240,240,240,240,240,338,338,240,338,338,240,240,338,240,240,338,338,338,338,338,240,338,338,338,338,240,338,338,338,338,240,240,240,338,240,338,240,240,240,240,338,338,240,338,240,338,338,338,338,338,338,240,240,240,240],"coherence":1,"opposite_coherence":0,"dot_radius":2,"dot_side_length":1,"dot_life":-1,"move_distance":1,"aperture_width":300,"aperture_height":300,"dot_color":["black","white","white","white","black","black","black","white","white","white","black","black","black","white","black","black","white","white","white","black","black","white","white","white","black","white","black","white","black","black","white","white","white","white","white","black","white","white","black","white","black","black","white","black","white","black","white","white","black","black","white","white","white","black","white","white","white","white","black","black","black","black","black","white","black","black","white","white","black","white","white","white","white","black","black","white","black","black","black","white","white","black","white","white","white","white","white","black","black","white","white","black","white","black","white","black","black","black","black","black","white","black","black","black","black","black","black","black","black","black","black","white","black","black","black","white","white","white","black","black","black","black","white","white","black","black","black","black","white","white","black","white","white","black","white","white","black","black","white","white","white","white","black","white","black","black","black","black","black","black","white","white","black","white","white","black","black","white","black","black","white","white","white","white","white","black","white","white","white","white","black","white","white","white","white","black","black","black","white","black","white","black","black","black","black","white","white","black","white","black","white","white","white","white","white","white","black","black","black","black"],"dot_shape":"circle","background_color":"#AAA","RDK_type":3,"aperture_type":2,"reinsert_type":2,"frame_rate":16.75206611570248,"frame_rate_array":[13,17,16,17,16,17,16,17,17,17,16,17,17,17,17,16,18,16,17,17,17,16,17,17,17,17,16,17,16,17,16,17,16,17,17,17,17,17,17,16,17,17,17,17,17,16,17,17,17,17,17,16,18,16,17,16,17,17,17,17,17,17,17,17,17,18,15,17,17,17,17,17,16,17,17,16,17,17,17,18,16,17,16,17,17,16,17,17,17,16,17,17,17,17,16,17,16,17,17,17,17,17,17,16,17,16,18,16,17,16,17,17,17,16,17,17,17,17,17,17,17],"number_of_frames":121,"aperture_center_x":640,"aperture_center_y":360,"fixation_cross":true,"fixation_cross_width":15,"fixation_cross_height":15,"fixation_cross_color":"#111","fixation_cross_thickness":1,"border":true,"border_thickness":2,"border_color":"transparent","canvas_width":1280,"canvas_height":720,"trial_type":"rdk","trial_index":72,"plugin_version":"2.0.0","time_elapsed":239634},{"rt":2539,"stimulus":"\n        <div class=\"response-container\">\n          <div class=\"response-instruction\">\n            <p>rotate the bar by using the left and right arrow keys.</p>\n            <p>when you are determined, press the Enter key.</p>\n          </div>\n          <div class=\"response-circle\">\n            <div class=\"response-fixation\"></div>\n            <div id=\"bar\" class=\"rotating-bar\"></div>\n          </div>\n        </div>\n      ","response":"Enter","trial_type":"html-keyboard-response","trial_index":73,"plugin_version":"2.1.0","time_elapsed":242173,"response_angle_css":124,"response_angle_rdk":326,"angular_error_target":-12,"angular_error_distractor":86,"target_direction":338,"target_group":"white","reward_points":7},{"rt":null,"stimulus":"\n          <p style=\"color: #00FF00;\">Your reward: 7 points</p>\n        ","response":null,"trial_type":"html-keyboard-response","trial_index":74,"plugin_version":"2.1.0","time_elapsed":244181},{"rt":null,"stimulus":"<div class=\"fixation\" style=\"font-size: 60px;\">+</div>","response":null,"trial_type":"html-keyboard-response","trial_index":75,"plugin_version":"2.1.0","time_elapsed":245196},{"target_group":"white","condition_label":"W_H_vs_B_L_rep8","target_direction":349,"distractor_direction":238,"session_rotation":313,"rt":-1,"response":"","correct":false,"choices":"ALL_KEYS","correct_choice":["a"],"trial_duration":2000,"flip_timestamps":[],"response_ends_trial":false,"number_of_apertures":200,"number_of_dots":[1,1,1,1,1,1,1,1,1,1,1,1,1,1,1,1,1,1,1,1,1,1,1,1,1,1,1,1,1,1,1,1,1,1,1,1,1,1,1,1,1,1,1,1,1,1,1,1,1,1,1,1,1,1,1,1,1,1,1,1,1,1,1,1,1,1,1,1,1,1,1,1,1,1,1,1,1,1,1,1,1,1,1,1,1,1,1,1,1,1,1,1,1,1,1,1,1,1,1,1,1,1,1,1,1,1,1,1,1,1,1,1,1,1,1,1,1,1,1,1,1,1,1,1,1,1,1,1,1,1,1,1,1,1,1,1,1,1,1,1,1,1,1,1,1,1,1,1,1,1,1,1,1,1,1,1,1,1,1,1,1,1,1,1,1,1,1,1,1,1,1,1,1,1,1,1,1,1,1,1,1,1,1,1,1,1,1,1,1,1,1,1,1,1,1,1,1,1,1,1],"number_of_sets":1,"coherent_direction":[349,349,238,238,349,238,238,349,238,238,238,349,238,238,349,349,349,238,238,238,238,349,238,349,238,349,349,238,349,238,349,238,238,349,238,349,349,349,349,349,238,349,238,349,238,238,349,238,349,349,349,238,238,349,238,349,349,238,349,349,238,349,238,238,238,238,238,238,238,238,349,349,238,238,238,349,238,349,238,349,238,349,349,238,238,349,349,349,349,349,349,238,238,349,238,238,238,238,238,349,238,349,349,238,238,238,238,238,349,238,349,238,238,238,349,349,349,349,349,349,349,349,238,349,238,238,349,238,349,238,238,238,238,238,349,349,349,238,238,349,349,349,349,238,238,349,238,349,349,349,349,238,349,238,238,238,349,238,349,349,349,349,238,349,238,349,349,349,238,349,238,349,238,238,349,238,238,349,349,349,349,238,349,238,238,349,349,238,238,238,238,238,349,349,349,238,238,349,349,349],"coherence":1,"opposite_coherence":0,"dot_radius":2,"dot_side_length":1,"dot_life":-1,"move_distance":1,"aperture_width":300,"aperture_height":300,"dot_color":["white","white","black","black","white","black","black","white","black","black","black","white","black","black","white","white","white","black","black","black","black","white","black","white","black","white","white","black","white","black","white","black","black","white","black","white","white","white","white","white","black","white","black","white","black","black","white","black","white","white","white","black","black","white","black","white","white","black","white","white","black","white","black","black","black","black","black","black","black","black","white","white","black","black","black","white","black","white","black","white","black","white","white","black","black","white","white","white","white","white","white","black","black","white","black","black","black","black","black","white","black","white","white","black","black","black","black","black","white","black","white","black","black","black","white","white","white","white","white","white","white","white","black","white","black","black","white","black","white","black","black","black","black","black","white","white","white","black","black","white","white","white","white","black","black","white","black","white","white","white","white","black","white","black","black","black","white","black","white","white","white","white","black","white","black","white","white","white","black","white","black","white","black","black","white","black","black","white","white","white","white","black","white","black","black","white","white","black","black","black","black","black","white","white","white","black","black","white","white","white"],"dot_shape":"circle","background_color":"#AAA","RDK_type":3,"aperture_type":2,"reinsert_type":2,"frame_rate":16.669421487603305,"frame_rate_array":[12,16,17,16,17,16,17,18,16,17,16,17,16,17,17,16,17,17,17,16,17,16,17,17,17,17,17,17,17,16,17,16,17,16,16,17,17,16,17,17,16,17,16,17,17,17,17,17,17,17,17,16,17,18,16,16,16,17,17,16,16,17,17,17,16,17,17,16,17,17,17,16,17,17,17,16,17,17,17,17,17,17,16,17,16,17,16,17,17,16,17,17,17,17,17,16,17,17,17,17,17,17,16,17,17,17,17,16,16,17,17,17,17,17,16,17,17,16,17,17,16],"number_of_frames":121,"aperture_center_x":640,"aperture_center_y":360,"fixation_cross":true,"fixation_cross_width":15,"fixation_cross_height":15,"fixation_cross_color":"#111","fixation_cross_thickness":1,"border":true,"border_thickness":2,"border_color":"transparent","canvas_width":1280,"canvas_height":720,"trial_type":"rdk","trial_index":76,"plugin_version":"2.0.0","time_elapsed":247210},{"rt":2163,"stimulus":"\n        <div class=\"response-container\">\n          <div class=\"response-instruction\">\n            <p>rotate the bar by using the left and right arrow keys.</p>\n            <p>when you are determined, press the Enter key.</p>\n          </div>\n          <div class=\"response-circle\">\n            <div class=\"response-fixation\"></div>\n            <div id=\"bar\" class=\"rotating-bar\"></div>\n          </div>\n        </div>\n      ","response":"Enter","trial_type":"html-keyboard-response","trial_index":77,"plugin_version":"2.1.0","time_elapsed":249374,"response_angle_css":90,"response_angle_rdk":0,"angular_error_target":11,"angular_error_distractor":122,"target_direction":349,"target_group":"white","reward_points":7},{"rt":null,"stimulus":"\n          <p style=\"color: #00FF00;\">Your reward: 7 points</p>\n        ","response":null,"trial_type":"html-keyboard-response","trial_index":78,"plugin_version":"2.1.0","time_elapsed":251385},{"rt":null,"stimulus":"<div class=\"fixation\" style=\"font-size: 60px;\">+</div>","response":null,"trial_type":"html-keyboard-response","trial_index":79,"plugin_version":"2.1.0","time_elapsed":252398},{"target_group":"black","condition_label":"B_H_vs_W_L_rep25","target_direction":64,"distractor_direction":170,"session_rotation":313,"rt":-1,"response":"","correct":false,"choices":"ALL_KEYS","correct_choice":["a"],"trial_duration":2000,"flip_timestamps":[],"response_ends_trial":false,"number_of_apertures":200,"number_of_dots":[1,1,1,1,1,1,1,1,1,1,1,1,1,1,1,1,1,1,1,1,1,1,1,1,1,1,1,1,1,1,1,1,1,1,1,1,1,1,1,1,1,1,1,1,1,1,1,1,1,1,1,1,1,1,1,1,1,1,1,1,1,1,1,1,1,1,1,1,1,1,1,1,1,1,1,1,1,1,1,1,1,1,1,1,1,1,1,1,1,1,1,1,1,1,1,1,1,1,1,1,1,1,1,1,1,1,1,1,1,1,1,1,1,1,1,1,1,1,1,1,1,1,1,1,1,1,1,1,1,1,1,1,1,1,1,1,1,1,1,1,1,1,1,1,1,1,1,1,1,1,1,1,1,1,1,1,1,1,1,1,1,1,1,1,1,1,1,1,1,1,1,1,1,1,1,1,1,1,1,1,1,1,1,1,1,1,1,1,1,1,1,1,1,1,1,1,1,1,1,1],"number_of_sets":1,"coherent_direction":[170,64,170,64,170,64,64,64,170,170,64,170,170,64,170,170,64,170,170,64,64,170,170,170,170,170,170,170,64,170,170,64,64,64,170,64,170,64,64,170,170,64,64,64,170,64,64,170,64,64,64,170,170,64,170,170,64,170,64,170,170,64,64,170,64,170,64,64,64,64,64,170,170,64,64,170,170,64,170,170,170,170,170,170,64,64,64,64,170,64,64,170,170,170,64,170,64,64,170,64,64,64,64,170,64,64,64,64,170,170,64,170,170,170,170,64,170,170,64,64,170,64,64,64,170,64,170,64,64,170,64,64,64,64,64,64,64,170,170,64,170,170,170,64,170,170,170,64,170,170,170,170,170,170,64,170,64,170,64,64,170,64,64,170,170,64,64,170,64,64,170,170,64,64,170,170,170,170,64,170,64,170,64,64,170,170,64,64,64,64,64,64,64,170,64,170,170,170,170,170],"coherence":1,"opposite_coherence":0,"dot_radius":2,"dot_side_length":1,"dot_life":-1,"move_distance":1,"aperture_width":300,"aperture_height":300,"dot_color":["white","black","white","black","white","black","black","black","white","white","black","white","white","black","white","white","black","white","white","black","black","white","white","white","white","white","white","white","black","white","white","black","black","black","white","black","white","black","black","white","white","black","black","black","white","black","black","white","black","black","black","white","white","black","white","white","black","white","black","white","white","black","black","white","black","white","black","black","black","black","black","white","white","black","black","white","white","black","white","white","white","white","white","white","black","black","black","black","white","black","black","white","white","white","black","white","black","black","white","black","black","black","black","white","black","black","black","black","white","white","black","white","white","white","white","black","white","white","black","black","white","black","black","black","white","black","white","black","black","white","black","black","black","black","black","black","black","white","white","black","white","white","white","black","white","white","white","black","white","white","white","white","white","white","black","white","black","white","black","black","white","black","black","white","white","black","black","white","black","black","white","white","black","black","white","white","white","white","black","white","black","white","black","black","white","white","black","black","black","black","black","black","black","white","black","white","white","white","white