[{"rt":8631,"stimulus":"Welcome to the experiment. Press any key to begin.","response":" ","trial_type":"html-keyboard-response","trial_index":0,"plugin_version":"2.1.0","time_elapsed":8634},{"rt":248174,"stimulus":"\n        <div class=\"instructions-container\">\n          <h2>Instructions</h2>\n\n          <p>\n          In this experiment, you will see <strong>two Random Dot Kinematograms (RDKs)</strong> displayed simultaneously.\n          </p>\n\n          <p>\n          An RDK is a visual stimulus consisting of many small dots that move coherently in a single direction. \n          In this experiment, the dots will be either <strong>white</strong> or <strong>black</strong> \n          (see the short demo below for an example of an RDK stimulus).\n          </p>\n\n          <p>\n          On each trial, the two RDKs will move in different directions. \n          Your task is to decide <strong>which RDK appears to contain more dots</strong>.\n          </p>\n\n          <p>\n          The RDK that you judge to have more dots is called the <strong>target RDK</strong>. \n          For example, if the white RDK appears to have more dots than the black RDK, \n          you should report the motion direction of the white RDK.\n          </p>\n\n          <p>\n          After viewing the RDKs, you will rotate a bar to indicate the perceived direction of the target RDK \n          using the <strong>left</strong> and <strong>right arrow keys</strong>. \n          Press <strong>Enter</strong> when you are satisfied with your response.\n          </p>\n\n          <p>\n          You will receive points based on the <strong>accuracy of your response</strong>, \n          and your final <strong>bonus reward</strong> may depend on your overall performance. \n          Please try to respond as accurately as possible.\n          </p>\n\n          <p>\n          You will first complete <strong>three practice trials</strong>. \n          Press the <strong>Enter</strong> key to start the practice phase.\n          </p>\n\n          <canvas id=\"instruction-demo-rdk\" width=\"300\" height=\"300\"style=\"display:block;margin:12px auto; border-radius: 50%;\"></canvas>\n        </div>\n      ","response":"Enter","trial_type":"html-keyboard-response","trial_index":1,"plugin_version":"2.1.0","time_elapsed":256810},{"rt":null,"stimulus":"<div class=\"fixation\" style=\"font-size: 60px;\">+</div>","response":null,"trial_type":"html-keyboard-response","trial_index":2,"plugin_version":"2.1.0","time_elapsed":257819},{"target_group":"black","target_index":1,"condition_label":"B_H_vs_W_L","rt":-1,"response":"","correct":false,"choices":"ALL_KEYS","correct_choice":["a"],"trial_duration":2000,"flip_timestamps":[],"response_ends_trial":false,"number_of_apertures":2,"number_of_dots":[50,100],"number_of_sets":1,"coherent_direction":[10,100],"coherence":1,"opposite_coherence":0,"dot_radius":2,"dot_side_length":1,"dot_life":-1,"move_distance":1,"aperture_width":300,"aperture_height":300,"dot_color":["white","black"],"dot_shape":"circle","background_color":"#AAA","RDK_type":3,"aperture_type":2,"reinsert_type":2,"frame_rate":16.66115702479339,"frame_rate_array":[2,26,7,16,17,16,17,17,16,17,17,17,17,17,17,17,17,17,17,16,17,17,17,17,17,17,17,17,17,16,17,17,17,17,16,17,17,17,16,17,17,17,17,17,17,16,16,17,16,17,17,18,16,16,17,17,17,17,17,17,17,17,16,17,17,17,17,17,16,17,17,16,17,17,16,17,17,17,17,17,17,16,17,17,17,17,17,18,16,17,17,17,17,16,17,16,17,16,16,20,14,16,17,17,17,17,16,17,17,17,17,17,16,17,17,16,17,17,16,17,17],"number_of_frames":121,"aperture_center_x":683,"aperture_center_y":384,"fixation_cross":true,"fixation_cross_width":15,"fixation_cross_height":15,"fixation_cross_color":"#111","fixation_cross_thickness":1,"border":true,"border_thickness":2,"border_color":"transparent","canvas_width":1366,"canvas_height":768,"trial_type":"rdk","trial_index":3,"plugin_version":"2.0.0","time_elapsed":259826,"target_direction":100,"distractor_direction":10},{"rt":13503,"stimulus":"\n        <div class=\"response-container\">\n          <div class=\"response-instruction\">\n            <p>rotate the bar by using the left and right arrow keys.</p>\n            <p>when you are determined, press the Enter key.</p>\n          </div>\n          <div class=\"response-circle\">\n            <div class=\"response-fixation\"></div>\n            <div id=\"bar\" class=\"rotating-bar\"></div>\n          </div>\n        </div>\n      ","response":"Enter","trial_type":"html-keyboard-response","trial_index":4,"plugin_version":"2.1.0","time_elapsed":273330,"response_angle_css":270,"response_angle_rdk":180,"angular_error_target":80,"angular_error_distractor":170,"target_direction":100,"target_group":"black","reward_points":0},{"rt":null,"stimulus":"\n          <p style=\"color: #FF3333;\">Your reward: 0 points</p>\n        ","response":null,"trial_type":"html-keyboard-response","trial_index":5,"plugin_version":"2.1.0","time_elapsed":275345},{"rt":null,"stimulus":"<div class=\"fixation\" style=\"font-size: 60px;\">+</div>","response":null,"trial_type":"html-keyboard-response","trial_index":6,"plugin_version":"2.1.0","time_elapsed":276358},{"target_group":"white","target_index":0,"condition_label":"W_H_vs_B_L","rt":-1,"response":"","correct":false,"choices":"ALL_KEYS","correct_choice":["a"],"trial_duration":2000,"flip_timestamps":[],"response_ends_trial":false,"number_of_apertures":2,"number_of_dots":[100,50],"number_of_sets":1,"coherent_direction":[150,30],"coherence":1,"opposite_coherence":0,"dot_radius":2,"dot_side_length":1,"dot_life":-1,"move_distance":1,"aperture_width":300,"aperture_height":300,"dot_color":["white","black"],"dot_shape":"circle","background_color":"#AAA","RDK_type":3,"aperture_type":2,"reinsert_type":2,"frame_rate":16.875,"frame_rate_array":[15,17,17,17,17,17,17,17,17,17,17,17,17,17,15,17,17,17,17,17,17,17,17,17,17,16,17,17,17,17,17,17,17,17,17,17,17,17,17,17,17,16,16,17,17,17,17,17,17,17,17,16,17,17,17,17,17,17,17,17,17,17,17,17,16,17,17,17,17,17,17,17,18,17,16,17,17,17,17,17,17,17,16,16,17,16,17,17,17,17,17,17,17,17,17,16,17,17,17,16,17,17,17,17,17,17,17,17,17,17,17,17,17,17,16,17,17,17,17,17],"number_of_frames":120,"aperture_center_x":683,"aperture_center_y":384,"fixation_cross":true,"fixation_cross_width":15,"fixation_cross_height":15,"fixation_cross_color":"#111","fixation_cross_thickness":1,"border":true,"border_thickness":2,"border_color":"transparent","canvas_width":1366,"canvas_height":768,"trial_type":"rdk","trial_index":7,"plugin_version":"2.0.0","time_elapsed":278362,"target_direction":150,"distractor_direction":30},{"rt":5861,"stimulus":"\n        <div class=\"response-container\">\n          <div class=\"response-instruction\">\n            <p>rotate the bar by using the left and right arrow keys.</p>\n            <p>when you are determined, press the Enter key.</p>\n          </div>\n          <div class=\"response-circle\">\n            <div class=\"response-fixation\"></div>\n            <div id=\"bar\" class=\"rotating-bar\"></div>\n          </div>\n        </div>\n      ","response":"Enter","trial_type":"html-keyboard-response","trial_index":8,"plugin_version":"2.1.0","time_elapsed":284223,"response_angle_css":273,"response_angle_rdk":177,"angular_error_target":27,"angular_error_distractor":147,"target_direction":150,"target_group":"white","reward_points":4},{"rt":null,"stimulus":"\n          <p style=\"color: #00FF00;\">Your reward: 4 points</p>\n        ","response":null,"trial_type":"html-keyboard-response","trial_index":9,"plugin_version":"2.1.0","time_elapsed":286240},{"rt":null,"stimulus":"<div class=\"fixation\" style=\"font-size: 60px;\">+</div>","response":null,"trial_type":"html-keyboard-response","trial_index":10,"plugin_version":"2.1.0","time_elapsed":287249},{"target_group":"black","target_index":1,"condition_label":"B_H_vs_W_L","rt":-1,"response":"","correct":false,"choices":"ALL_KEYS","correct_choice":["a"],"trial_duration":2000,"flip_timestamps":[],"response_ends_trial":false,"number_of_apertures":2,"number_of_dots":[50,100],"number_of_sets":1,"coherent_direction":[270,180],"coherence":1,"opposite_coherence":0,"dot_radius":2,"dot_side_length":1,"dot_life":-1,"move_distance":1,"aperture_width":300,"aperture_height":300,"dot_color":["white","black"],"dot_shape":"circle","background_color":"#AAA","RDK_type":3,"aperture_type":2,"reinsert_type":2,"frame_rate":16.8,"frame_rate_array":[7,17,17,17,16,17,17,17,17,17,17,17,17,17,17,17,17,16,17,17,17,17,17,17,17,16,17,17,17,17,17,17,17,17,17,17,17,17,17,17,17,17,17,17,17,17,17,17,17,16,16,17,17,17,17,16,17,17,17,17,17,17,16,16,17,17,17,17,17,17,17,17,17,17,17,17,17,17,17,17,17,17,17,17,17,17,17,17,16,17,17,17,16,16,17,17,17,17,17,17,17,17,17,17,16,17,17,16,17,17,17,17,17,16,17,17,17,17,17,17],"number_of_frames":120,"aperture_center_x":683,"aperture_center_y":384,"fixation_cross":true,"fixation_cross_width":15,"fixation_cross_height":15,"fixation_cross_color":"#111","fixation_cross_thickness":1,"border":true,"border_thickness":2,"border_color":"transparent","canvas_width":1366,"canvas_height":768,"trial_type":"rdk","trial_index":11,"plugin_version":"2.0.0","time_elapsed":289259,"target_direction":180,"distractor_direction":270},{"rt":3683,"stimulus":"\n        <div class=\"response-container\">\n          <div class=\"response-instruction\">\n            <p>rotate the bar by using the left and right arrow keys.</p>\n            <p>when you are determined, press the Enter key.</p>\n          </div>\n          <div class=\"response-circle\">\n            <div class=\"response-fixation\"></div>\n            <div id=\"bar\" class=\"rotating-bar\"></div>\n          </div>\n        </div>\n      ","response":"Enter","trial_type":"html-keyboard-response","trial_index":12,"plugin_version":"2.1.0","time_elapsed":292942,"response_angle_css":183,"response_angle_rdk":267,"angular_error_target":87,"angular_error_distractor":-3,"target_direction":180,"target_group":"black","reward_points":0},{"rt":null,"stimulus":"\n          <p style=\"color: #FF3333;\">Your reward: 0 points</p>\n        ","response":null,"trial_type":"html-keyboard-response","trial_index":13,"plugin_version":"2.1.0","time_elapsed":294947},{"rt":5167,"stimulus":"\n        <div class=\"instructions-container\">\n          <h2>End of Practice</h2>\n          <p>You have completed the practice trials.</p>\n          <p>Press <strong>Enter</strong> key to begin the main experiment.</p>\n        </div>\n      ","response":"Enter","trial_type":"html-keyboard-response","trial_index":14,"plugin_version":"2.1.0","time_elapsed":300115},{"rt":null,"stimulus":"<div class=\"fixation\" style=\"font-size: 60px;\">+</div>","response":null,"trial_type":"html-keyboard-response","trial_index":15,"plugin_version":"2.1.0","time_elapsed":301128},{"target_group":"black","condition_label":"B_H_vs_W_L_rep5","target_direction":84,"distractor_direction":182,"session_rotation":337,"rt":-1,"response":"","correct":false,"choices":"ALL_KEYS","correct_choice":["a"],"trial_duration":2000,"flip_timestamps":[],"response_ends_trial":false,"number_of_apertures":200,"number_of_dots":[1,1,1,1,1,1,1,1,1,1,1,1,1,1,1,1,1,1,1,1,1,1,1,1,1,1,1,1,1,1,1,1,1,1,1,1,1,1,1,1,1,1,1,1,1,1,1,1,1,1,1,1,1,1,1,1,1,1,1,1,1,1,1,1,1,1,1,1,1,1,1,1,1,1,1,1,1,1,1,1,1,1,1,1,1,1,1,1,1,1,1,1,1,1,1,1,1,1,1,1,1,1,1,1,1,1,1,1,1,1,1,1,1,1,1,1,1,1,1,1,1,1,1,1,1,1,1,1,1,1,1,1,1,1,1,1,1,1,1,1,1,1,1,1,1,1,1,1,1,1,1,1,1,1,1,1,1,1,1,1,1,1,1,1,1,1,1,1,1,1,1,1,1,1,1,1,1,1,1,1,1,1,1,1,1,1,1,1,1,1,1,1,1,1,1,1,1,1,1,1],"number_of_sets":1,"coherent_direction":[182,182,182,84,182,84,84,182,84,182,182,84,182,182,182,84,182,182,84,182,182,84,182,182,84,182,84,84,84,182,182,84,182,182,182,84,182,84,182,84,182,84,84,182,84,182,84,84,182,182,182,182,84,84,182,182,84,84,182,84,84,84,182,182,84,84,84,84,84,84,84,182,84,84,84,84,182,182,182,182,182,84,84,182,182,84,84,182,182,182,182,84,84,84,182,84,84,182,182,84,84,182,84,182,182,84,84,182,182,84,84,182,84,182,182,182,84,182,84,84,84,84,84,84,182,182,84,182,84,182,84,84,84,182,84,182,84,182,182,84,182,84,182,84,84,182,84,84,84,84,84,182,84,84,84,182,84,182,182,182,182,182,84,182,182,182,182,84,84,84,182,84,84,84,182,182,182,182,84,182,182,84,84,182,84,182,182,182,182,182,182,182,84,182,84,84,84,84,84,182],"coherence":1,"opposite_coherence":0,"dot_radius":2,"dot_side_length":1,"dot_life":-1,"move_distance":1,"aperture_width":300,"aperture_height":300,"dot_color":["white","white","white","black","white","black","black","white","black","white","white","black","white","white","white","black","white","white","black","white","white","black","white","white","black","white","black","black","black","white","white","black","white","white","white","black","white","black","white","black","white","black","black","white","black","white","black","black","white","white","white","white","black","black","white","white","black","black","white","black","black","black","white","white","black","black","black","black","black","black","black","white","black","black","black","black","white","white","white","white","white","black","black","white","white","black","black","white","white","white","white","black","black","black","white","black","black","white","white","black","black","white","black","white","white","black","black","white","white","black","black","white","black","white","white","white","black","white","black","black","black","black","black","black","white","white","black","white","black","white","black","black","black","white","black","white","black","white","white","black","white","black","white","black","black","white","black","black","black","black","black","white","black","black","black","white","black","white","white","white","white","white","black","white","white","white","white","black","black","black","white","black","black","black","white","white","white","white","black","white","white","black","black","white","black","white","white","white","white","white","white","white","black","white","black","black","black","black","black","white"],"dot_shape":"circle","background_color":"#AAA","RDK_type":3,"aperture_type":2,"reinsert_type":2,"frame_rate":16.834710743801654,"frame_rate_array":[12,16,17,17,16,17,17,16,18,15,17,17,17,17,17,17,17,17,17,17,17,17,17,17,17,17,17,17,17,17,17,17,17,17,17,17,16,17,16,17,17,17,17,16,17,17,17,17,17,17,16,17,17,17,17,17,17,17,17,17,17,16,17,17,17,17,17,17,17,17,16,17,17,17,17,17,17,17,17,17,17,16,17,17,17,17,17,17,17,17,17,17,17,17,17,17,17,17,17,17,16,17,17,17,15,17,17,17,17,17,17,17,17,17,17,17,17,17,16,17,17],"number_of_frames":121,"aperture_center_x":683,"aperture_center_y":384,"fixation_cross":true,"fixation_cross_width":15,"fixation_cross_height":15,"fixation_cross_color":"#111","fixation_cross_thickness":1,"border":true,"border_thickness":2,"border_color":"transparent","canvas_width":1366,"canvas_height":768,"trial_type":"rdk","trial_index":16,"plugin_version":"2.0.0","time_elapsed":303143},{"rt":3768,"stimulus":"\n        <div class=\"response-container\">\n          <div class=\"response-instruction\">\n            <p>rotate the bar by using the left and right arrow keys.</p>\n            <p>when you are determined, press the Enter key.</p>\n          </div>\n          <div class=\"response-circle\">\n            <div class=\"response-fixation\"></div>\n            <div id=\"bar\" class=\"rotating-bar\"></div>\n          </div>\n        </div>\n      ","response":"Enter","trial_type":"html-keyboard-response","trial_index":17,"plugin_version":"2.1.0","time_elapsed":306912,"response_angle_css":-72,"response_angle_rdk":162,"angular_error_target":78,"angular_error_distractor":-20,"target_direction":84,"target_group":"black","reward_points":0},{"rt":null,"stimulus":"\n          <p style=\"color: #FF3333;\">Your reward: 0 points</p>\n        ","response":null,"trial_type":"html-keyboard-response","trial_index":18,"plugin_version":"2.1.0","time_elapsed":308915},{"rt":null,"stimulus":"<div class=\"fixation\" style=\"font-size: 60px;\">+</div>","response":null,"trial_type":"html-keyboard-response","trial_index":19,"plugin_version":"2.1.0","time_elapsed":309926},{"target_group":"white","condition_label":"W_H_vs_B_L_rep22","target_direction":7,"distractor_direction":268,"session_rotation":337,"rt":-1,"response":"","correct":false,"choices":"ALL_KEYS","correct_choice":["a"],"trial_duration":2000,"flip_timestamps":[],"response_ends_trial":false,"number_of_apertures":200,"number_of_dots":[1,1,1,1,1,1,1,1,1,1,1,1,1,1,1,1,1,1,1,1,1,1,1,1,1,1,1,1,1,1,1,1,1,1,1,1,1,1,1,1,1,1,1,1,1,1,1,1,1,1,1,1,1,1,1,1,1,1,1,1,1,1,1,1,1,1,1,1,1,1,1,1,1,1,1,1,1,1,1,1,1,1,1,1,1,1,1,1,1,1,1,1,1,1,1,1,1,1,1,1,1,1,1,1,1,1,1,1,1,1,1,1,1,1,1,1,1,1,1,1,1,1,1,1,1,1,1,1,1,1,1,1,1,1,1,1,1,1,1,1,1,1,1,1,1,1,1,1,1,1,1,1,1,1,1,1,1,1,1,1,1,1,1,1,1,1,1,1,1,1,1,1,1,1,1,1,1,1,1,1,1,1,1,1,1,1,1,1,1,1,1,1,1,1,1,1,1,1,1,1],"number_of_sets":1,"coherent_direction":[7,7,7,7,7,7,268,268,7,7,7,7,268,7,7,268,268,7,7,7,268,7,7,7,268,268,7,268,268,7,7,268,268,7,7,268,268,7,268,268,268,7,268,7,7,7,268,268,7,7,7,7,7,268,268,7,7,268,268,268,7,7,268,268,268,268,7,7,7,268,268,268,7,268,268,7,268,268,268,268,7,268,7,7,268,268,268,7,268,7,268,268,7,7,7,7,268,268,7,7,268,7,268,7,268,7,268,7,268,268,7,7,7,268,268,268,7,7,268,268,7,7,7,268,268,268,268,268,268,7,268,7,268,268,7,268,7,268,7,7,7,268,268,7,268,7,7,7,7,268,7,268,268,7,268,7,268,7,7,268,268,7,268,7,7,268,7,7,268,268,268,7,7,268,7,7,7,268,7,268,7,268,268,268,268,268,268,7,268,268,7,268,268,268,7,268,7,268,7,7],"coherence":1,"opposite_coherence":0,"dot_radius":2,"dot_side_length":1,"dot_life":-1,"move_distance":1,"aperture_width":300,"aperture_height":300,"dot_color":["white","white","white","white","white","white","black","black","white","white","white","white","black","white","white","black","black","white","white","white","black","white","white","white","black","black","white","black","black","white","white","black","black","white","white","black","black","white","black","black","black","white","black","white","white","white","black","black","white","white","white","white","white","black","black","white","white","black","black","black","white","white","black","black","black","black","white","white","white","black","black","black","white","black","black","white","black","black","black","black","white","black","white","white","black","black","black","white","black","white","black","black","white","white","white","white","black","black","white","white","black","white","black","white","black","white","black","white","black","black","white","white","white","black","black","black","white","white","black","black","white","white","white","black","black","black","black","black","black","white","black","white","black","black","white","black","white","black","white","white","white","black","black","white","black","white","white","white","white","black","white","black","black","white","black","white","black","white","white","black","black","white","black","white","white","black","white","white","black","black","black","white","white","black","white","white","white","black","white","black","white","black","black","black","black","black","black","white","black","black","white","black","black","black","white","black","white","black","white","white"],"dot_shape":"circle","background_color":"#AAA","RDK_type":3,"aperture_type":2,"reinsert_type":2,"frame_rate":16.875,"frame_rate_array":[14,16,17,17,17,17,17,17,17,17,17,17,17,17,17,17,17,17,17,17,17,17,17,17,17,17,17,16,17,16,17,17,17,17,17,17,17,17,17,17,17,17,17,17,16,17,17,17,17,17,17,16,17,17,17,17,17,16,16,17,17,17,17,17,17,17,17,17,17,17,17,17,17,16,17,17,17,17,17,17,17,16,17,17,17,16,17,17,17,17,17,17,17,17,17,17,17,17,17,17,17,17,17,17,17,17,17,17,16,17,17,16,17,17,17,17,17,17,17,17],"number_of_frames":120,"aperture_center_x":683,"aperture_center_y":384,"fixation_cross":true,"fixation_cross_width":15,"fixation_cross_height":15,"fixation_cross_color":"#111","fixation_cross_thickness":1,"border":true,"border_thickness":2,"border_color":"transparent","canvas_width":1366,"canvas_height":768,"trial_type":"rdk","trial_index":20,"plugin_version":"2.0.0","time_elapsed":311930},{"rt":12031,"stimulus":"\n        <div class=\"response-container\">\n          <div class=\"response-instruction\">\n            <p>rotate the bar by using the left and right arrow keys.</p>\n            <p>when you are determined, press the Enter key.</p>\n          </div>\n          <div class=\"response-circle\">\n            <div class=\"response-fixation\"></div>\n            <div id=\"bar\" class=\"rotating-bar\"></div>\n          </div>\n        </div>\n      ","response":"Enter","trial_type":"html-keyboard-response","trial_index":21,"plugin_version":"2.1.0","time_elapsed":323962,"response_angle_css":434,"response_angle_rdk":16,"angular_error_target":9,"angular_error_distractor":108,"target_direction":7,"target_group":"white","reward_points":8},{"rt":null,"stimulus":"\n          <p style=\"color: #00FF00;\">Your reward: 8 points</p>\n        ","response":null,"trial_type":"html-keyboard-response","trial_index":22,"plugin_version":"2.1.0","time_elapsed":325977},{"rt":null,"stimulus":"<div class=\"fixation\" style=\"font-size: 60px;\">+</div>","response":null,"trial_type":"html-keyboard-response","trial_index":23,"plugin_version":"2.1.0","time_elapsed":326985},{"target_group":"black","condition_label":"B_H_vs_W_L_rep16","target_direction":75,"distractor_direction":177,"session_rotation":337,"rt":-1,"response":"","correct":false,"choices":"ALL_KEYS","correct_choice":["a"],"trial_duration":2000,"flip_timestamps":[],"response_ends_trial":false,"number_of_apertures":200,"number_of_dots":[1,1,1,1,1,1,1,1,1,1,1,1,1,1,1,1,1,1,1,1,1,1,1,1,1,1,1,1,1,1,1,1,1,1,1,1,1,1,1,1,1,1,1,1,1,1,1,1,1,1,1,1,1,1,1,1,1,1,1,1,1,1,1,1,1,1,1,1,1,1,1,1,1,1,1,1,1,1,1,1,1,1,1,1,1,1,1,1,1,1,1,1,1,1,1,1,1,1,1,1,1,1,1,1,1,1,1,1,1,1,1,1,1,1,1,1,1,1,1,1,1,1,1,1,1,1,1,1,1,1,1,1,1,1,1,1,1,1,1,1,1,1,1,1,1,1,1,1,1,1,1,1,1,1,1,1,1,1,1,1,1,1,1,1,1,1,1,1,1,1,1,1,1,1,1,1,1,1,1,1,1,1,1,1,1,1,1,1,1,1,1,1,1,1,1,1,1,1,1,1],"number_of_sets":1,"coherent_direction":[177,75,75,75,177,75,75,75,75,75,75,177,177,75,75,75,177,75,177,177,75,177,177,177,177,75,177,177,75,75,177,177,177,177,177,75,75,177,75,75,75,177,75,177,75,177,75,75,177,75,177,177,75,177,177,75,75,177,177,177,75,75,75,75,75,177,177,75,75,177,177,177,75,75,75,177,75,75,177,177,75,177,177,177,75,177,177,177,177,177,75,75,177,75,75,75,75,177,75,177,75,177,75,177,75,177,177,75,75,75,75,75,75,75,177,75,177,75,75,177,75,177,75,75,177,75,75,177,75,75,75,75,177,177,177,75,177,177,177,75,177,177,177,75,75,177,177,177,177,75,177,75,75,177,75,177,177,177,177,177,177,177,177,75,177,177,177,177,75,75,177,75,75,177,177,75,75,75,177,177,177,177,177,177,177,75,75,75,75,177,75,75,75,177,75,75,177,177,75,75],"coherence":1,"opposite_coherence":0,"dot_radius":2,"dot_side_length":1,"dot_life":-1,"move_distance":1,"aperture_width":300,"aperture_height":300,"dot_color":["white","black","black","black","white","black","black","black","black","black","black","white","white","black","black","black","white","black","white","white","black","white","white","white","white","black","white","white","black","black","white","white","white","white","white","black","black","white","black","black","black","white","black","white","black","white","black","black","white","black","white","white","black","white","white","black","black","white","white","white","black","black","black","black","black","white","white","black","black","white","white","white","black","black","black","white","black","black","white","white","black","white","white","white","black","white","white","white","white","white","black","black","white","black","black","black","black","white","black","white","black","white","black","white","black","white","white","black","black","black","black","black","black","black","white","black","white","black","black","white","black","white","black","black","white","black","black","white","black","black","black","black","white","white","white","black","white","white","white","black","white","white","white","black","black","white","white","white","white","black","white","black","black","white","black","white","white","white","white","white","white","white","white","black","white","white","white","white","black","black","white","black","black","white","white","black","black","black","white","white","white","white","white","white","white","black","black","black","black","white","black","black","black","white","black","black","white","white","black","black"],"dot_shape":"circle","background_color":"#AAA","RDK_type":3,"aperture_type":2,"reinsert_type":2,"frame_rate":16.68595041322314,"frame_rate_array":[6,16,17,17,17,17,17,17,17,17,16,17,16,17,17,17,17,17,16,17,17,17,16,17,16,17,16,17,17,16,17,17,17,17,16,17,17,18,14,17,17,16,16,17,17,16,17,17,17,17,16,17,17,18,16,17,17,17,16,17,17,17,17,17,17,16,17,17,17,17,17,16,16,17,17,17,17,17,17,17,16,17,16,17,17,17,18,16,17,17,17,17,18,16,16,16,18,16,16,16,18,16,17,16,18,16,17,19,16,16,17,17,17,17,17,17,16,17,17,18,16],"number_of_frames":121,"aperture_center_x":683,"aperture_center_y":384,"fixation_cross":true,"fixation_cross_width":15,"fixation_cross_height":15,"fixation_cross_color":"#111","fixation_cross_thickness":1,"border":true,"border_thickness":2,"border_color":"transparent","canvas_width":1366,"canvas_height":768,"trial_type":"rdk","trial_index":24,"plugin_version":"2.0.0","time_elapsed":328994},{"rt":822,"stimulus":"\n        <div class=\"response-container\">\n          <div class=\"response-instruction\">\n            <p>rotate the bar by using the left and right arrow keys.</p>\n            <p>when you are determined, press the Enter key.</p>\n          </div>\n          <div class=\"response-circle\">\n            <div class=\"response-fixation\"></div>\n            <div id=\"bar\" class=\"rotating-bar\"></div>\n          </div>\n        </div>\n      ","response":"Enter","trial_type":"html-keyboard-response","trial_index":25,"plugin_version":"2.1.0","time_elapsed":329817,"response_angle_css":45,"response_angle_rdk":45,"angular_error_target":-30,"angular_error_distractor":-132,"target_direction":75,"target_group":"black","reward_points":4},{"rt":null,"stimulus":"\n          <p style=\"color: #00FF00;\">Your reward: 4 points</p>\n        ","response":null,"trial_type":"html-keyboard-response","trial_index":26,"plugin_version":"2.1.0","time_elapsed":331824},{"rt":null,"stimulus":"<div class=\"fixation\" style=\"font-size: 60px;\">+</div>","response":null,"trial_type":"html-keyboard-response","trial_index":27,"plugin_version":"2.1.0","time_elapsed":332841},{"target_group":"white","condition_label":"W_H_vs_B_L_rep8","target_direction":8,"distractor_direction":248,"session_rotation":337,"rt":-1,"response":"","correct":false,"choices":"ALL_KEYS","correct_choice":["a"],"trial_duration":2000,"flip_timestamps":[],"response_ends_trial":false,"number_of_apertures":200,"number_of_dots":[1,1,1,1,1,1,1,1,1,1,1,1,1,1,1,1,1,1,1,1,1,1,1,1,1,1,1,1,1,1,1,1,1,1,1,1,1,1,1,1,1,1,1,1,1,1,1,1,1,1,1,1,1,1,1,1,1,1,1,1,1,1,1,1,1,1,1,1,1,1,1,1,1,1,1,1,1,1,1,1,1,1,1,1,1,1,1,1,1,1,1,1,1,1,1,1,1,1,1,1,1,1,1,1,1,1,1,1,1,1,1,1,1,1,1,1,1,1,1,1,1,1,1,1,1,1,1,1,1,1,1,1,1,1,1,1,1,1,1,1,1,1,1,1,1,1,1,1,1,1,1,1,1,1,1,1,1,1,1,1,1,1,1,1,1,1,1,1,1,1,1,1,1,1,1,1,1,1,1,1,1,1,1,1,1,1,1,1,1,1,1,1,1,1,1,1,1,1,1,1],"number_of_sets":1,"coherent_direction":[8,8,248,8,248,8,8,248,248,248,8,8,248,248,248,8,8,248,248,8,8,8,248,248,248,248,248,248,248,248,8,248,8,8,8,248,8,8,8,8,248,248,248,8,8,8,8,248,8,248,8,248,248,248,8,8,8,8,248,248,8,248,8,248,8,8,248,8,8,248,8,248,8,8,8,8,8,248,248,248,8,248,248,8,248,8,8,8,248,8,248,8,248,248,8,8,248,8,8,248,248,8,8,8,8,248,8,248,8,8,248,8,8,8,248,8,8,248,248,8,248,248,8,248,8,248,8,248,248,8,248,248,8,248,248,248,8,248,8,248,248,248,248,8,8,8,8,248,248,248,8,8,8,248,248,8,248,248,248,248,248,8,248,8,8,8,248,248,8,248,248,8,248,8,248,248,8,248,8,8,248,248,248,8,8,8,248,248,8,248,8,248,248,248,8,8,248,8,248,8],"coherence":1,"opposite_coherence":0,"dot_radius":2,"dot_side_length":1,"dot_life":-1,"move_distance":1,"aperture_width":300,"aperture_height":300,"dot_color":["white","white","black","white","black","white","white","black","black","black","white","white","black","black","black","white","white","black","black","white","white","white","black","black","black","black","black","black","black","black","white","black","white","white","white","black","white","white","white","white","black","black","black","white","white","white","white","black","white","black","white","black","black","black","white","white","white","white","black","black","white","black","white","black","white","white","black","white","white","black","white","black","white","white","white","white","white","black","black","black","white","black","black","white","black","white","white","white","black","white","black","white","black","black","white","white","black","white","white","black","black","white","white","white","white","black","white","black","white","white","black","white","white","white","black","white","white","black","black","white","black","black","white","black","white","black","white","black","black","white","black","black","white","black","black","black","white","black","white","black","black","black","black","white","white","white","white","black","black","black","white","white","white","black","black","white","black","black","black","black","black","white","black","white","white","white","black","black","white","black","black","white","black","white","black","black","white","black","white","white","black","black","black","white","white","white","black","black","white","black","white","black","black","black","white","white","black","white","black","white"],"dot_shape":"circle","background_color":"#AAA","RDK_type":3,"aperture_type":2,"reinsert_type":2,"frame_rate":16.735537190082646,"frame_rate_array":[1,13,17,17,17,17,17,17,17,17,17,17,16,17,17,17,17,17,16,18,16,17,17,17,17,16,17,16,17,17,17,17,17,17,17,17,17,17,17,16,17,17,17,16,17,17,16,18,16,17,17,17,17,17,17,17,17,17,17,17,17,17,17,17,17,17,17,16,16,17,17,17,17,17,16,17,17,17,17,17,17,17,17,17,17,16,17,17,17,17,17,17,17,17,16,17,17,17,17,17,17,17,17,17,17,17,17,17,17,17,17,17,17,17,17,17,17,17,17,17,17],"number_of_frames":121,"aperture_center_x":683,"aperture_center_y":384,"fixation_cross":true,"fixation_cross_width":15,"fixation_cross_height":15,"fixation_cross_color":"#111","fixation_cross_thickness":1,"border":true,"border_thickness":2,"border_color":"transparent","canvas_width":1366,"canvas_height":768,"trial_type":"rdk","trial_index":28,"plugin_version":"2.0.0","time_elapsed":334845},{"rt":2926,"stimulus":"\n        <div class=\"response-container\">\n          <div class=\"response-instruction\">\n            <p>rotate the bar by using the left and right arrow keys.</p>\n            <p>when you are determined, press the Enter key.</p>\n          </div>\n          <div class=\"response-circle\">\n            <div class=\"response-fixation\"></div>\n            <div id=\"bar\" class=\"rotating-bar\"></div>\n          </div>\n        </div>\n      ","response":"Enter","trial_type":"html-keyboard-response","trial_index":29,"plugin_version":"2.1.0","time_elapsed":337771,"response_angle_css":446,"response_angle_rdk":4,"angular_error_target":-4,"angular_error_distractor":116,"target_direction":8,"target_group":"white","reward_points":9},{"rt":null,"stimulus":"\n          <p style=\"color: #00FF00;\">Your reward: 9 points</p>\n        ","response":null,"trial_type":"html-keyboard-response","trial_index":30,"plugin_version":"2.1.0","time_elapsed":339778},{"rt":null,"stimulus":"<div class=\"fixation\" style=\"font-size: 60px;\">+</div>","response":null,"trial_type":"html-keyboard-response","trial_index":31,"plugin_version":"2.1.0","time_elapsed":340789},{"target_group":"white","condition_label":"W_H_vs_B_L_rep13","target_direction":353,"distractor_direction":260,"session_rotation":337,"rt":-1,"response":"","correct":false,"choices":"ALL_KEYS","correct_choice":["a"],"trial_duration":2000,"flip_timestamps":[],"response_ends_trial":false,"number_of_apertures":200,"number_of_dots":[1,1,1,1,1,1,1,1,1,1,1,1,1,1,1,1,1,1,1,1,1,1,1,1,1,1,1,1,1,1,1,1,1,1,1,1,1,1,1,1,1,1,1,1,1,1,1,1,1,1,1,1,1,1,1,1,1,1,1,1,1,1,1,1,1,1,1,1,1,1,1,1,1,1,1,1,1,1,1,1,1,1,1,1,1,1,1,1,1,1,1,1,1,1,1,1,1,1,1,1,1,1,1,1,1,1,1,1,1,1,1,1,1,1,1,1,1,1,1,1,1,1,1,1,1,1,1,1,1,1,1,1,1,1,1,1,1,1,1,1,1,1,1,1,1,1,1,1,1,1,1,1,1,1,1,1,1,1,1,1,1,1,1,1,1,1,1,1,1,1,1,1,1,1,1,1,1,1,1,1,1,1,1,1,1,1,1,1,1,1,1,1,1,1,1,1,1,1,1,1],"number_of_sets":1,"coherent_direction":[260,353,260,260,260,260,353,260,353,353,260,260,260,260,260,353,353,353,353,260,353,353,353,260,353,353,353,260,260,353,353,353,353,260,260,353,260,353,260,353,260,353,353,260,353,260,353,353,260,260,260,353,260,353,260,260,353,260,353,260,260,260,260,260,353,260,260,260,353,353,260,260,260,353,260,260,260,353,260,260,260,260,260,353,260,260,260,353,260,353,260,260,260,260,353,353,353,260,353,260,260,353,353,353,353,260,353,353,353,353,260,353,260,353,353,260,260,353,260,260,260,260,260,353,353,260,353,353,260,353,260,353,260,353,260,353,353,353,353,353,353,353,260,260,353,353,353,353,353,260,353,353,260,353,353,260,353,353,353,260,260,353,353,260,260,353,353,260,353,260,260,260,353,260,260,260,353,353,353,353,260,260,260,353,260,353,353,260,353,353,260,353,260,353,353,260,260,260,353,353],"coherence":1,"opposite_coherence":0,"dot_radius":2,"dot_side_length":1,"dot_life":-1,"move_distance":1,"aperture_width":300,"aperture_height":300,"dot_color":["black","white","black","black","black","black","white","black","white","white","black","black","black","black","black","white","white","white","white","black","white","white","white","black","white","white","white","black","black","white","white","white","white","black","black","white","black","white","black","white","black","white","white","black","white","black","white","white","black","black","black","white","black","white","black","black","white","black","white","black","black","black","black","black","white","black","black","black","white","white","black","black","black","white","black","black","black","white","black","black","black","black","black","white","black","black","black","white","black","white","black","black","black","black","white","white","white","black","white","black","black","white","white","white","white","black","white","white","white","white","black","white","black","white","white","black","black","white","black","black","black","black","black","white","white","black","white","white","black","white","black","white","black","white","black","white","white","white","white","white","white","white","black","black","white","white","white","white","white","black","white","white","black","white","white","black","white","white","white","black","black","white","white","black","black","white","white","black","white","black","black","black","white","black","black","black","white","white","white","white","black","black","black","white","black","white","white","black","white","white","black","white","black","white","white","black","black","black","white","white"],"dot_shape":"circle","background_color":"#AAA","RDK_type":3,"aperture_type":2,"reinsert_type":2,"frame_rate":16.625,"frame_rate_array":[8,11,17,17,16,17,16,17,17,17,16,17,17,16,18,16,17,17,16,17,17,16,17,16,17,17,17,17,18,16,16,17,18,16,17,17,17,16,16,17,17,17,17,17,17,17,16,17,18,16,17,16,17,16,17,17,16,17,16,17,16,17,17,16,18,16,17,17,17,16,16,17,17,16,17,17,17,17,17,17,17,17,17,16,17,17,18,16,17,16,17,16,17,17,16,17,17,17,17,16,17,17,17,16,17,17,16,16,17,17,17,16,17,17,17,17,16,17,17,17],"number_of_frames":120,"aperture_center_x":683,"aperture_center_y":384,"fixation_cross":true,"fixation_cross_width":15,"fixation_cross_height":15,"fixation_cross_color":"#111","fixation_cross_thickness":1,"border":true,"border_thickness":2,"border_color":"transparent","canvas_width":1366,"canvas_height":768,"trial_type":"rdk","trial_index":32,"plugin_version":"2.0.0","time_elapsed":342792},{"rt":2250,"stimulus":"\n        <div class=\"response-container\">\n          <div class=\"response-instruction\">\n            <p>rotate the bar by using the left and right arrow keys.</p>\n            <p>when you are determined, press the Enter key.</p>\n          </div>\n          <div class=\"response-circle\">\n            <div class=\"response-fixation\"></div>\n            <div id=\"bar\" class=\"rotating-bar\"></div>\n          </div>\n        </div>\n      ","response":"Enter","trial_type":"html-keyboard-response","trial_index":33,"plugin_version":"2.1.0","time_elapsed":345043,"response_angle_css":222,"response_angle_rdk":228,"angular_error_target":-125,"angular_error_distractor":-32,"target_direction":353,"target_group":"white","reward_points":0},{"rt":null,"stimulus":"\n          <p style=\"color: #FF3333;\">Your reward: 0 points</p>\n        ","response":null,"trial_type":"html-keyboard-response","trial_index":34,"plugin_version":"2.1.0","time_elapsed":347043},{"rt":null,"stimulus":"<div class=\"fixation\" style=\"font-size: 60px;\">+</div>","response":null,"trial_type":"html-keyboard-response","trial_index":35,"plugin_version":"2.1.0","time_elapsed":348056},{"target_group":"white","condition_label":"W_H_vs_B_L_rep20","target_direction":15,"distractor_direction":280,"session_rotation":337,"rt":-1,"response":"","correct":false,"choices":"ALL_KEYS","correct_choice":["a"],"trial_duration":2000,"flip_timestamps":[],"response_ends_trial":false,"number_of_apertures":200,"number_of_dots":[1,1,1,1,1,1,1,1,1,1,1,1,1,1,1,1,1,1,1,1,1,1,1,1,1,1,1,1,1,1,1,1,1,1,1,1,1,1,1,1,1,1,1,1,1,1,1,1,1,1,1,1,1,1,1,1,1,1,1,1,1,1,1,1,1,1,1,1,1,1,1,1,1,1,1,1,1,1,1,1,1,1,1,1,1,1,1,1,1,1,1,1,1,1,1,1,1,1,1,1,1,1,1,1,1,1,1,1,1,1,1,1,1,1,1,1,1,1,1,1,1,1,1,1,1,1,1,1,1,1,1,1,1,1,1,1,1,1,1,1,1,1,1,1,1,1,1,1,1,1,1,1,1,1,1,1,1,1,1,1,1,1,1,1,1,1,1,1,1,1,1,1,1,1,1,1,1,1,1,1,1,1,1,1,1,1,1,1,1,1,1,1,1,1,1,1,1,1,1,1],"number_of_sets":1,"coherent_direction":[280,15,15,280,15,280,15,15,280,15,15,280,15,280,15,15,15,15,280,280,280,280,280,280,280,280,15,280,280,15,280,15,15,15,15,280,15,280,280,15,15,280,280,15,280,15,15,15,15,280,15,15,280,15,15,15,15,280,280,280,280,15,15,280,15,280,280,15,280,280,280,15,280,280,15,280,15,15,15,280,280,280,15,15,15,280,15,280,15,15,280,15,280,280,280,15,15,280,280,280,15,15,280,280,15,280,15,15,15,15,280,15,15,280,280,15,15,15,280,15,15,280,15,15,280,15,280,280,15,280,280,15,280,280,280,280,15,280,280,280,280,280,280,15,280,280,280,15,280,280,15,280,15,15,280,280,15,280,15,280,280,15,15,15,280,15,15,15,280,15,15,280,280,15,280,280,280,15,15,15,15,15,280,15,15,280,280,15,280,280,15,15,280,280,15,15,280,15,15,280],"coherence":1,"opposite_coherence":0,"dot_radius":2,"dot_side_length":1,"dot_life":-1,"move_distance":1,"aperture_width":300,"aperture_height":300,"dot_color":["black","white","white","black","white","black","white","white","black","white","white","black","white","black","white","white","white","white","black","black","black","black","black","black","black","black","white","black","black","white","black","white","white","white","white","black","white","black","black","white","white","black","black","white","black","white","white","white","white","black","white","white","black","white","white","white","white","black","black","black","black","white","white","black","white","black","black","white","black","black","black","white","black","black","white","black","white","white","white","black","black","black","white","white","white","black","white","black","white","white","black","white","black","black","black","white","white","black","black","black","white","white","black","black","white","black","white","white","white","white","black","white","white","black","black","white","white","white","black","white","white","black","white","white","black","white","black","black","white","black","black","white","black","black","black","black","white","black","black","black","black","black","black","white","black","black","black","white","black","black","white","black","white","white","black","black","white","black","white","black","black","white","white","white","black","white","white","white","black","white","white","black","black","white","black","black","black","white","white","white","white","white","black","white","white","black","black","white","black","black","white","white","black","black","white","white","black","white","white","black"],"dot_shape":"circle","background_color":"#AAA","RDK_type":3,"aperture_type":2,"reinsert_type":2,"frame_rate":16.60330578512397,"frame_rate_array":[3,15,17,17,17,17,16,17,16,17,16,17,16,17,17,17,16,17,16,17,17,17,16,17,16,17,17,17,17,17,16,17,17,17,16,16,17,17,17,17,16,17,17,17,17,17,19,16,16,18,17,16,18,16,16,17,17,16,17,17,17,17,17,17,17,17,16,16,16,16,16,17,17,17,17,17,17,17,16,17,17,17,17,16,17,17,17,17,17,16,17,16,16,17,17,16,17,16,17,16,17,17,17,17,17,17,17,17,16,17,17,17,17,16,17,16,17,17,17,16,16],"number_of_frames":121,"aperture_center_x":683,"aperture_center_y":384,"fixation_cross":true,"fixation_cross_width":15,"fixation_cross_height":15,"fixation_cross_color":"#111","fixation_cross_thickness":1,"border":true,"border_thickness":2,"border_color":"transparent","canvas_width":1366,"canvas_height":768,"trial_type":"rdk","trial_index":36,"plugin_version":"2.0.0","time_elapsed":350060},{"rt":7657,"stimulus":"\n        <div class=\"response-container\">\n          <div class=\"response-instruction\">\n            <p>rotate the bar by using the left and right arrow keys.</p>\n            <p>when you are determined, press the Enter key.</p>\n          </div>\n          <div class=\"response-circle\">\n            <div class=\"response-fixation\"></div>\n            <div id=\"bar\" class=\"rotating-bar\"></div>\n          </div>\n        </div>\n      ","response":"Enter","trial_type":"html-keyboard-response","trial_index":37,"plugin_version":"2.1.0","time_elapsed":357718,"response_angle_css":81,"response_angle_rdk":9,"angular_error_target":-6,"angular_error_distractor":89,"target_direction":15,"target_group":"white","reward_points":8},{"rt":null,"stimulus":"\n          <p style=\"color: #00FF00;\">Your reward: 8 points</p>\n        ","response":null,"trial_type":"html-keyboard-response","trial_index":38,"plugin_version":"2.1.0","time_elapsed":359728},{"rt":null,"stimulus":"<div class=\"fixation\" style=\"font-size: 60px;\">+</div>","response":null,"trial_type":"html-keyboard-response","trial_index":39,"plugin_version":"2.1.0","time_elapsed":360738},{"target_group":"black","condition_label":"B_H_vs_W_L_rep2","target_direction":85,"distractor_direction":187,"session_rotation":337,"rt":-1,"response":"","correct":false,"choices":"ALL_KEYS","correct_choice":["a"],"trial_duration":2000,"flip_timestamps":[],"response_ends_trial":false,"number_of_apertures":200,"number_of_dots":[1,1,1,1,1,1,1,1,1,1,1,1,1,1,1,1,1,1,1,1,1,1,1,1,1,1,1,1,1,1,1,1,1,1,1,1,1,1,1,1,1,1,1,1,1,1,1,1,1,1,1,1,1,1,1,1,1,1,1,1,1,1,1,1,1,1,1,1,1,1,1,1,1,1,1,1,1,1,1,1,1,1,1,1,1,1,1,1,1,1,1,1,1,1,1,1,1,1,1,1,1,1,1,1,1,1,1,1,1,1,1,1,1,1,1,1,1,1,1,1,1,1,1,1,1,1,1,1,1,1,1,1,1,1,1,1,1,1,1,1,1,1,1,1,1,1,1,1,1,1,1,1,1,1,1,1,1,1,1,1,1,1,1,1,1,1,1,1,1,1,1,1,1,1,1,1,1,1,1,1,1,1,1,1,1,1,1,1,1,1,1,1,1,1,1,1,1,1,1,1],"number_of_sets":1,"coherent_direction":[187,85,85,85,187,85,85,85,85,187,187,187,85,187,187,187,187,85,187,85,187,187,85,187,85,85,85,85,187,85,85,187,187,85,187,85,85,85,85,85,85,187,85,85,187,187,187,187,187,187,85,85,85,85,187,187,187,85,187,187,85,85,187,85,85,187,187,187,187,85,187,85,187,187,187,187,85,85,85,85,187,187,187,85,85,187,85,187,187,187,187,85,187,85,85,187,187,85,187,85,187,187,187,85,187,85,85,187,85,187,187,85,85,85,187,85,85,187,85,85,85,187,85,85,187,85,187,187,85,85,85,85,187,187,85,187,187,85,85,85,187,85,187,85,187,187,187,85,85,187,187,187,187,187,85,187,85,85,187,85,85,187,187,85,85,85,85,187,187,187,187,187,187,85,187,85,85,85,85,85,85,187,187,187,85,187,85,187,85,85,85,187,187,85,85,187,187,85,187,187],"coherence":1,"opposite_coherence":0,"dot_radius":2,"dot_side_length":1,"dot_life":-1,"move_distance":1,"aperture_width":300,"aperture_height":300,"dot_color":["white","black","black","black","white","black","black","black","black","white","white","white","black","white","white","white","white","black","white","black","white","white","black","white","black","black","black","black","white","black","black","white","white","black","white","black","black","black","black","black","black","white","black","black","white","white","white","white","white","white","black","black","black","black","white","white","white","black","white","white","black","black","white","black","black","white","white","white","white","black","white","black","white","white","white","white","black","black","black","black","white","white","white","black","black","white","black","white","white","white","white","black","white","black","black","white","white","black","white","black","white","white","white","black","white","black","black","white","black","white","white","black","black","black","white","black","black","white","black","black","black","white","black","black","white","black","white","white","black","black","black","black","white","white","black","white","white","black","black","black","white","black","white","black","white","white","white","black","black","white","white","white","white","white","black","white","black","black","white","black","black","white","white","black","black","black","black","white","white","white","white","white","white","black","white","black","black","black","black","black","black","white","white","white","black","white","black","white","black","black","black","white","white","black","black","white","white","black","white","white"],"dot_shape":"circle","background_color":"#AAA","RDK_type":3,"aperture_type":2,"reinsert_type":2,"frame_rate":16.658333333333335,"frame_rate_array":[4,17,17,17,17,17,17,17,16,17,17,17,17,17,17,17,17,16,17,16,17,18,16,16,16,17,17,17,17,17,17,17,17,16,16,17,17,16,17,16,16,16,17,16,17,16,17,16,17,17,17,16,17,17,17,17,17,16,17,17,17,17,17,16,17,16,17,17,17,17,16,17,17,16,18,16,16,17,17,17,17,17,17,17,17,16,17,17,17,17,18,16,16,16,17,17,17,17,17,17,17,17,17,17,16,17,16,17,17,17,16,17,17,17,16,17,17,17,17,17],"number_of_frames":120,"aperture_center_x":683,"aperture_center_y":384,"fixation_cross":true,"fixation_cross_width":15,"fixation_cross_height":15,"fixation_cross_color":"#111","fixation_cross_thickness":1,"border":true,"border_thickness":2,"border_color":"transparent","canvas_width":1366,"canvas_height":768,"trial_type":"rdk","trial_index":40,"plugin_version":"2.0.0","time_elapsed":362743},{"rt":2634,"stimulus":"\n        <div class=\"response-container\">\n          <div class=\"response-instruction\">\n            <p>rotate the bar by using the left and right arrow keys.</p>\n            <p>when you are determined, press the Enter key.</p>\n          </div>\n          <div class=\"response-circle\">\n            <div class=\"response-fixation\"></div>\n            <div id=\"bar\" class=\"rotating-bar\"></div>\n          </div>\n        </div>\n      ","response":"Enter","trial_type":"html-keyboard-response","trial_index":41,"plugin_version":"2.1.0","time_elapsed":365378,"response_angle_css":41,"response_angle_rdk":49,"angular_error_target":-36,"angular_error_distractor":-138,"target_direction":85,"target_group":"black","reward_points":2},{"rt":null,"stimulus":"\n          <p style=\"color: #FF3333;\">Your reward: 2 points</p>\n        ","response":null,"trial_type":"html-keyboard-response","trial_index":42,"plugin_version":"2.1.0","time_elapsed":367391},{"rt":null,"stimulus":"<div class=\"fixation\" style=\"font-size: 60px;\">+</div>","response":null,"trial_type":"html-keyboard-response","trial_index":43,"plugin_version":"2.1.0","time_elapsed":368406},{"target_group":"black","condition_label":"B_H_vs_W_L_rep25","target_direction":91,"distractor_direction":193,"session_rotation":337,"rt":-1,"response":"","correct":false,"choices":"ALL_KEYS","correct_choice":["a"],"trial_duration":2000,"flip_timestamps":[],"response_ends_trial":false,"number_of_apertures":200,"number_of_dots":[1,1,1,1,1,1,1,1,1,1,1,1,1,1,1,1,1,1,1,1,1,1,1,1,1,1,1,1,1,1,1,1,1,1,1,1,1,1,1,1,1,1,1,1,1,1,1,1,1,1,1,1,1,1,1,1,1,1,1,1,1,1,1,1,1,1,1,1,1,1,1,1,1,1,1,1,1,1,1,1,1,1,1,1,1,1,1,1,1,1,1,1,1,1,1,1,1,1,1,1,1,1,1,1,1,1,1,1,1,1,1,1,1,1,1,1,1,1,1,1,1,1,1,1,1,1,1,1,1,1,1,1,1,1,1,1,1,1,1,1,1,1,1,1,1,1,1,1,1,1,1,1,1,1,1,1,1,1,1,1,1,1,1,1,1,1,1,1,1,1,1,1,1,1,1,1,1,1,1,1,1,1,1,1,1,1,1,1,1,1,1,1,1,1,1,1,1,1,1,1],"number_of_sets":1,"coherent_direction":[193,193,91,91,193,193,193,193,91,91,193,193,91,91,91,193,193,193,193,193,91,193,91,91,193,91,91,91,91,193,91,91,193,91,91,193,91,193,91,91,193,91,91,193,91,91,91,193,91,193,193,91,91,193,193,193,91,91,91,91,91,91,91,91,91,193,91,91,193,193,91,193,193,193,193,193,91,193,91,91,193,193,91,91,193,193,193,91,91,91,193,91,193,91,193,193,193,193,91,193,193,91,193,193,91,91,193,91,193,193,193,91,91,193,193,193,91,91,193,91,91,91,193,91,193,193,91,193,91,91,91,91,193,193,193,91,91,193,193,91,193,193,193,193,193,91,91,91,193,193,193,91,193,193,193,91,193,91,193,91,193,91,91,193,91,91,193,91,193,193,193,91,193,193,91,91,193,91,91,91,91,193,91,193,193,91,91,193,91,91,193,193,91,193,91,193,91,193,91,193],"coherence":1,"opposite_coherence":0,"dot_radius":2,"dot_side_length":1,"dot_life":-1,"move_distance":1,"aperture_width":300,"aperture_height":300,"dot_color":["white","white","black","black","white","white","white","white","black","black","white","white","black","black","black","white","white","white","white","white","black","white","black","black","white","black","black","black","black","white","black","black","white","black","black","white","black","white","black","black","white","black","black","white","black","black","black","white","black","white","white","black","black","white","white","white","black","black","black","black","black","black","black","black","black","white","black","black","white","white","black","white","white","white","white","white","black","white","black","black","white","white","black","black","white","white","white","black","black","black","white","black","white","black","white","white","white","white","black","white","white","black","white","white","black","black","white","black","white","white","white","black","black","white","white","white","black","black","white","black","black","black","white","black","white","white","black","white","black","black","black","black","white","white","white","black","black","white","white","black","white","white","white","white","white","black","black","black","white","white","white","black","white","white","white","black","white","black","white","black","white","black","black","white","black","black","white","black","white","white","white","black","white","white","black","black","white","black","black","black","black","white","black","white","white","black","black","white","black","black","white","white","black","white","black","white","black","white","black","white"],"dot_shape":"circle","background_color":"#AAA","RDK_type":3,"aperture_type":2,"reinsert_type":2,"frame_rate":16.71900826446281,"frame_rate_array":[2,17,17,16,17,17,17,17,17,17,17,17,17,17,18,16,16,16,17,17,17,17,16,17,17,17,17,17,17,17,17,17,17,17,17,17,17,17,17,16,17,17,16,17,17,17,17,17,17,17,17,17,17,17,17,16,17,17,17,17,17,17,17,17,16,17,17,17,17,17,17,17,16,17,17,17,16,16,18,16,17,17,17,16,17,17,17,16,17,17,16,17,17,16,17,17,17,17,17,17,16,17,17,17,16,17,17,17,17,17,17,17,17,16,17,17,17,16,17,17,17],"number_of_frames":121,"aperture_center_x":683,"aperture_center_y":384,"fixation_cross":true,"fixation_cross_width":15,"fixation_cross_height":15,"fixation_cross_color":"#111","fixation_cross_thickness":1,"border":true,"border_thickness":2,"border_color":"transparent","canvas_width":1366,"canvas_height":768,"trial_type":"rdk","trial_index":44,"plugin_version":"2.0.0","time_elapsed":370413},{"rt":2056,"stimulus":"\n        <div class=\"response-container\">\n          <div class=\"response-instruction\">\n            <p>rotate the bar by using the left and right arrow keys.</p>\n            <p>when you are determined, press the Enter key.</p>\n          </div>\n          <div class=\"response-circle\">\n            <div class=\"response-fixation\"></div>\n            <div id=\"bar\" class=\"rotating-bar\"></div>\n          </div>\n        </div>\n      ","response":"Enter","trial_type":"html-keyboard-response","trial_index":45,"plugin_version":"2.1.0","time_elapsed":372469,"response_angle_css":367,"response_angle_rdk":83,"angular_error_target":-8,"angular_error_distractor":-110,"target_direction":91,"target_group":"black","reward_points":8},{"rt":null,"stimulus":"\n          <p style=\"color: #00FF00;\">Your reward: 8 points</p>\n        ","response":null,"trial_type":"html-keyboard-response","trial_index":46,"plugin_version":"2.1.0","time_elapsed":374477},{"rt":null,"stimulus":"<div class=\"fixation\" style=\"font-size: 60px;\">+</div>","response":null,"trial_type":"html-keyboard-response","trial_index":47,"plugin_version":"2.1.0","time_elapsed":375490},{"target_group":"black","condition_label":"B_H_vs_W_L_rep11","target_direction":68,"distractor_direction":169,"session_rotation":337,"rt":-1,"response":"","correct":false,"choices":"ALL_KEYS","correct_choice":["a"],"trial_duration":2000,"flip_timestamps":[],"response_ends_trial":false,"number_of_apertures":200,"number_of_dots":[1,1,1,1,1,1,1,1,1,1,1,1,1,1,1,1,1,1,1,1,1,1,1,1,1,1,1,1,1,1,1,1,1,1,1,1,1,1,1,1,1,1,1,1,1,1,1,1,1,1,1,1,1,1,1,1,1,1,1,1,1,1,1,1,1,1,1,1,1,1,1,1,1,1,1,1,1,1,1,1,1,1,1,1,1,1,1,1,1,1,1,1,1,1,1,1,1,1,1,1,1,1,1,1,1,1,1,1,1,1,1,1,1,1,1,1,1,1,1,1,1,1,1,1,1,1,1,1,1,1,1,1,1,1,1,1,1,1,1,1,1,1,1,1,1,1,1,1,1,1,1,1,1,1,1,1,1,1,1,1,1,1,1,1,1,1,1,1,1,1,1,1,1,1,1,1,1,1,1,1,1,1,1,1,1,1,1,1,1,1,1,1,1,1,1,1,1,1,1,1],"number_of_sets":1,"coherent_direction":[68,68,68,169,68,68,68,169,68,68,169,68,169,169,68,68,68,169,169,68,68,68,68,68,169,68,169,68,68,68,169,68,68,169,68,169,68,169,169,68,68,169,169,169,68,68,68,68,68,68,68,169,68,68,169,169,169,169,68,169,68,169,68,169,68,169,169,169,68,169,68,169,169,169,169,169,169,169,68,169,68,68,169,169,68,169,68,68,169,169,169,68,68,68,169,169,68,68,68,169,169,68,68,169,169,68,169,169,169,169,68,68,68,68,68,68,169,169,68,68,68,169,169,169,68,169,169,169,68,169,169,169,68,68,68,169,169,169,169,169,169,169,169,68,68,169,68,169,68,68,68,68,169,68,169,68,169,68,169,169,169,68,169,169,68,68,68,169,169,169,68,169,169,169,169,68,169,68,68,68,169,68,169,169,169,68,169,169,169,68,68,68,68,169,68,68,68,169,68,169],"coherence":1,"opposite_coherence":0,"dot_radius":2,"dot_side_length":1,"dot_life":-1,"move_distance":1,"aperture_width":300,"aperture_height":300,"dot_color":["black","black","black","white","black","black","black","white","black","black","white","black","white","white","black","black","black","white","white","black","black","black","black","black","white","black","white","black","black","black","white","black","black","white","black","white","black","white","white","black","black","white","white","white","black","black","black","black","black","black","black","white","black","black","white","white","white","white","black","white","black","white","black","white","black","white","white","white","black","white","black","white","white","white","white","white","white","white","black","white","black","black","white","white","black","white","black","black","white","white","white","black","black","black","white","white","black","black","black","white","white","black","black","white","white","black","white","white","white","white","black","black","black","black","black","black","white","white","black","black","black","white","white","white","black","white","white","white","black","white","white","white","black","black","black","white","white","white","white","white","white","white","white","black","black","white","black","white","black","black","black","black","white","black","white","black","white","black","white","white","white","black","white","white","black","black","black","white","white","white","black","white","white","white","white","black","white","black","black","black","white","black","white","white","white","black","white","white","white","black","black","black","black","white","black","black","black","white","black","white"],"dot_shape":"circle","background_color":"#AAA","RDK_type":3,"aperture_type":2,"reinsert_type":2,"frame_rate":16.641666666666666,"frame_rate_array":[2,17,17,17,17,17,16,17,17,17,17,16,16,17,17,17,17,17,17,17,16,17,16,16,18,17,16,17,16,17,17,17,17,17,17,16,16,17,17,17,16,17,17,16,17,17,17,17,16,17,17,17,17,16,17,16,17,17,17,17,16,17,18,16,16,17,18,15,17,17,16,17,17,17,17,17,17,17,16,17,17,17,17,17,17,16,17,17,16,17,17,16,16,17,17,16,17,16,17,17,17,16,17,17,17,16,17,17,17,16,17,17,17,18,16,17,17,17,17,17],"number_of_frames":120,"aperture_center_x":683,"aperture_center_y":384,"fixation_cross":true,"fixation_cross_width":15,"fixation_cross_height":15,"fixation_cross_color":"#111","fixation_cross_thickness":1,"border":true,"border_thickness":2,"border_color":"transparent","canvas_width":1366,"canvas_height":768,"trial_type":"rdk","trial_index":48,"plugin_version":"2.0.0","time_elapsed":377493},{"rt":12716,"stimulus":"\n        <div class=\"response-container\">\n          <div class=\"response-instruction\">\n            <p>rotate the bar by using the left and right arrow keys.</p>\n            <p>when you are determined, press the Enter key.</p>\n          </div>\n          <div class=\"response-circle\">\n            <div class=\"response-fixation\"></div>\n            <div id=\"bar\" class=\"rotating-bar\"></div>\n          </div>\n        </div>\n      ","response":"Enter","trial_type":"html-keyboard-response","trial_index":49,"plugin_version":"2.1.0","time_elapsed":390210,"response_angle_css":34,"response_angle_rdk":56,"angular_error_target":-12,"angular_error_distractor":-113,"target_direction":68,"target_group":"black","reward_points":7},{"rt":null,"stimulus":"\n          <p style=\"color: #00FF00;\">Your reward: 7 points</p>\n        ","response":null,"trial_type":"html-keyboard-response","trial_index":50,"plugin_version":"2.1.0","time_elapsed":392218},{"rt":null,"stimulus":"<div class=\"fixation\" style=\"font-size: 60px;\">+</div>","response":null,"trial_type":"html-keyboard-response","trial_index":51,"plugin_version":"2.1.0","time_elapsed":393223},{"target_group":"black","condition_label":"B_H_vs_W_L_rep19","target_direction":70,"distractor_direction":180,"session_rotation":337,"rt":-1,"response":"","correct":false,"choices":"ALL_KEYS","correct_choice":["a"],"trial_duration":2000,"flip_timestamps":[],"response_ends_trial":false,"number_of_apertures":200,"number_of_dots":[1,1,1,1,1,1,1,1,1,1,1,1,1,1,1,1,1,1,1,1,1,1,1,1,1,1,1,1,1,1,1,1,1,1,1,1,1,1,1,1,1,1,1,1,1,1,1,1,1,1,1,1,1,1,1,1,1,1,1,1,1,1,1,1,1,1,1,1,1,1,1,1,1,1,1,1,1,1,1,1,1,1,1,1,1,1,1,1,1,1,1,1,1,1,1,1,1,1,1,1,1,1,1,1,1,1,1,1,1,1,1,1,1,1,1,1,1,1,1,1,1,1,1,1,1,1,1,1,1,1,1,1,1,1,1,1,1,1,1,1,1,1,1,1,1,1,1,1,1,1,1,1,1,1,1,1,1,1,1,1,1,1,1,1,1,1,1,1,1,1,1,1,1,1,1,1,1,1,1,1,1,1,1,1,1,1,1,1,1,1,1,1,1,1,1,1,1,1,1,1],"number_of_sets":1,"coherent_direction":[180,180,180,180,180,180,180,70,70,70,180,70,70,180,180,180,70,180,180,180,180,70,180,70,180,180,70,70,180,180,70,70,70,180,180,180,70,70,180,180,70,70,70,70,180,180,180,180,70,180,70,180,70,180,70,70,180,180,70,70,70,70,70,70,70,70,180,180,70,70,70,70,180,180,70,70,70,70,70,70,70,70,180,180,70,70,180,180,180,180,70,180,180,70,70,70,180,180,70,180,70,70,180,180,180,70,180,70,70,70,70,70,180,180,70,70,70,180,180,180,180,70,70,180,70,180,70,180,180,180,70,180,180,70,180,180,180,180,180,70,70,180,180,70,180,180,70,180,70,70,180,70,70,70,180,180,70,70,70,70,180,180,180,70,180,70,180,70,180,180,70,70,70,180,180,70,70,70,180,180,180,70,180,70,180,180,70,180,70,70,70,180,70,180,70,180,70,180,180,70],"coherence":1,"opposite_coherence":0,"dot_radius":2,"dot_side_length":1,"dot_life":-1,"move_distance":1,"aperture_width":300,"aperture_height":300,"dot_color":["white","white","white","white","white","white","white","black","black","black","white","black","black","white","white","white","black","white","white","white","white","black","white","black","white","white","black","black","white","white","black","black","black","white","white","white","black","black","white","white","black","black","black","black","white","white","white","white","black","white","black","white","black","white","black","black","white","white","black","black","black","black","black","black","black","black","white","white","black","black","black","black","white","white","black","black","black","black","black","black","black","black","white","white","black","black","white","white","white","white","black","white","white","black","black","black","white","white","black","white","black","black","white","white","white","black","white","black","black","black","black","black","white","white","black","black","black","white","white","white","white","black","black","white","black","white","black","white","white","white","black","white","white","black","white","white","white","white","white","black","black","white","white","black","white","white","black","white","black","black","white","black","black","black","white","white","black","black","black","black","white","white","white","black","white","black","white","black","white","white","black","black","black","white","white","black","black","black","white","white","white","black","white","black","white","white","black","white","black","black","black","white","black","white","black","white","black","white","white","black"],"dot_shape":"circle","background_color":"#AAA","RDK_type":3,"aperture_type":2,"reinsert_type":2,"frame_rate":16.735537190082646,"frame_rate_array":[1,16,17,17,17,17,17,17,17,17,17,16,16,17,17,17,17,17,17,17,17,17,17,17,17,17,17,17,16,16,17,17,17,17,17,17,16,17,16,17,16,17,17,17,17,17,17,17,17,17,17,17,17,17,17,17,17,17,17,17,17,17,17,17,17,16,17,16,17,17,17,17,17,17,17,17,17,17,17,17,17,17,17,16,17,17,17,17,17,17,17,17,17,17,17,17,17,16,17,17,17,17,17,17,17,17,17,17,17,17,16,17,17,16,16,17,17,17,16,17,17],"number_of_frames":121,"aperture_center_x":683,"aperture_center_y":384,"fixation_cross":true,"fixation_cross_width":15,"fixation_cross_height":15,"fixation_cross_color":"#111","fixation_cross_thickness":1,"border":true,"border_thickness":2,"border_color":"transparent","canvas_width":1366,"canvas_height":768,"trial_type":"rdk","trial_index":52,"plugin_version":"2.0.0","time_elapsed":395229},{"rt":992,"stimulus":"\n        <div class=\"response-container\">\n          <div class=\"response-instruction\">\n            <p>rotate the bar by using the left and right arrow keys.</p>\n            <p>when you are determined, press the Enter key.</p>\n          </div>\n          <div class=\"response-circle\">\n            <div class=\"response-fixation\"></div>\n            <div id=\"bar\" class=\"rotating-bar\"></div>\n          </div>\n        </div>\n      ","response":"Enter","trial_type":"html-keyboard-response","trial_index":53,"plugin_version":"2.1.0","time_elapsed":396222,"response_angle_css":33,"response_angle_rdk":57,"angular_error_target":-13,"angular_error_distractor":-123,"target_direction":70,"target_group":"black","reward_points":7},{"rt":null,"stimulus":"\n          <p style=\"color: #00FF00;\">Your reward: 7 points</p>\n        ","response":null,"trial_type":"html-keyboard-response","trial_index":54,"plugin_version":"2.1.0","time_elapsed":398234},{"rt":null,"stimulus":"<div class=\"fixation\" style=\"font-size: 60px;\">+</div>","response":null,"trial_type":"html-keyboard-response","trial_index":55,"plugin_version":"2.1.0","time_elapsed":399249},{"target_group":"white","condition_label":"W_H_vs_B_L_rep23","target_direction":16,"distractor_direction":253,"session_rotation":337,"rt":-1,"response":"","correct":false,"choices":"ALL_KEYS","correct_choice":["a"],"trial_duration":2000,"flip_timestamps":[],"response_ends_trial":false,"number_of_apertures":200,"number_of_dots":[1,1,1,1,1,1,1,1,1,1,1,1,1,1,1,1,1,1,1,1,1,1,1,1,1,1,1,1,1,1,1,1,1,1,1,1,1,1,1,1,1,1,1,1,1,1,1,1,1,1,1,1,1,1,1,1,1,1,1,1,1,1,1,1,1,1,1,1,1,1,1,1,1,1,1,1,1,1,1,1,1,1,1,1,1,1,1,1,1,1,1,1,1,1,1,1,1,1,1,1,1,1,1,1,1,1,1,1,1,1,1,1,1,1,1,1,1,1,1,1,1,1,1,1,1,1,1,1,1,1,1,1,1,1,1,1,1,1,1,1,1,1,1,1,1,1,1,1,1,1,1,1,1,1,1,1,1,1,1,1,1,1,1,1,1,1,1,1,1,1,1,1,1,1,1,1,1,1,1,1,1,1,1,1,1,1,1,1,1,1,1,1,1,1,1,1,1,1,1,1],"number_of_sets":1,"coherent_direction":[16,253,253,16,253,16,16,253,16,16,16,16,16,253,253,16,16,16,16,16,253,16,253,16,253,253,16,16,16,16,16,16,16,253,16,253,253,16,16,16,253,16,16,16,16,253,253,16,253,253,16,253,16,16,253,16,16,16,16,253,16,253,253,16,16,16,16,16,16,16,253,16,16,16,253,253,16,16,253,253,253,16,253,253,253,253,253,253,16,16,253,253,253,253,253,16,253,16,253,253,253,16,253,16,16,253,253,16,253,253,16,16,16,16,253,253,16,16,16,253,253,253,16,253,253,253,253,253,16,253,16,16,253,16,253,253,253,253,253,253,16,253,253,253,16,16,253,253,16,253,253,16,253,253,16,16,16,16,16,253,16,253,253,253,16,253,253,253,253,253,16,16,253,253,253,253,253,16,16,16,16,253,16,253,16,253,253,253,253,16,253,253,16,16,16,16,16,253,253,16],"coherence":1,"opposite_coherence":0,"dot_radius":2,"dot_side_length":1,"dot_life":-1,"move_distance":1,"aperture_width":300,"aperture_height":300,"dot_color":["white","black","black","white","black","white","white","black","white","white","white","white","white","black","black","white","white","white","white","white","black","white","black","white","black","black","white","white","white","white","white","white","white","black","white","black","black","white","white","white","black","white","white","white","white","black","black","white","black","black","white","black","white","white","black","white","white","white","white","black","white","black","black","white","white","white","white","white","white","white","black","white","white","white","black","black","white","white","black","black","black","white","black","black","black","black","black","black","white","white","black","black","black","black","black","white","black","white","black","black","black","white","black","white","white","black","black","white","black","black","white","white","white","white","black","black","white","white","white","black","black","black","white","black","black","black","black","black","white","black","white","white","black","white","black","black","black","black","black","black","white","black","black","black","white","white","black","black","white","black","black","white","black","black","white","white","white","white","white","black","white","black","black","black","white","black","black","black","black","black","white","white","black","black","black","black","black","white","white","white","white","black","white","black","white","black","black","black","black","white","black","black","white","white","white","white","white","black","black","white"],"dot_shape":"circle","background_color":"#AAA","RDK_type":3,"aperture_type":2,"reinsert_type":2,"frame_rate":16.85,"frame_rate_array":[10,17,16,17,17,17,16,17,17,16,17,17,17,17,17,17,17,16,17,17,17,17,17,17,17,17,17,17,17,17,17,18,15,17,17,16,17,17,17,17,17,16,17,17,17,17,18,16,16,17,17,17,17,17,17,17,17,17,17,17,16,17,17,17,17,17,17,17,17,17,17,17,17,17,17,17,17,17,17,17,16,17,17,17,17,17,17,17,17,17,17,17,17,17,17,17,17,17,17,17,17,17,17,17,17,17,16,17,17,17,17,17,17,17,17,17,17,17,17,17],"number_of_frames":120,"aperture_center_x":683,"aperture_center_y":384,"fixation_cross":true,"fixation_cross_width":15,"fixation_cross_height":15,"fixation_cross_color":"#111","fixation_cross_thickness":1,"border":true,"border_thickness":2,"border_color":"transparent","canvas_width":1366,"canvas_height":768,"trial_type":"rdk","trial_index":56,"plugin_version":"2.0.0","time_elapsed":401255},{"rt":3165,"stimulus":"\n        <div class=\"response-container\">\n          <div class=\"response-instruction\">\n            <p>rotate the bar by using the left and right arrow keys.</p>\n            <p>when you are determined, press the Enter key.</p>\n          </div>\n          <div class=\"response-circle\">\n            <div class=\"response-fixation\"></div>\n            <div id=\"bar\" class=\"rotating-bar\"></div>\n          </div>\n        </div>\n      ","response":"Enter","trial_type":"html-keyboard-response","trial_index":57,"plugin_version":"2.1.0","time_elapsed":404421,"response_angle_css":259,"response_angle_rdk":191,"angular_error_target":175,"angular_error_distractor":-62,"target_direction":16,"target_group":"white","reward_points":0},{"rt":null,"stimulus":"\n          <p style=\"color: #FF3333;\">Your reward: 0 points</p>\n        ","response":null,"trial_type":"html-keyboard-response","trial_index":58,"plugin_version":"2.1.0","time_elapsed":406423},{"rt":null,"stimulus":"<div class=\"fixation\" style=\"font-size: 60px;\">+</div>","response":null,"trial_type":"html-keyboard-response","trial_index":59,"plugin_version":"2.1.0","time_elapsed":407433},{"target_group":"white","condition_label":"W_H_vs_B_L_rep15","target_direction":10,"distractor_direction":249,"session_rotation":337,"rt":-1,"response":"","correct":false,"choices":"ALL_KEYS","correct_choice":["a"],"trial_duration":2000,"flip_timestamps":[],"response_ends_trial":false,"number_of_apertures":200,"number_of_dots":[1,1,1,1,1,1,1,1,1,1,1,1,1,1,1,1,1,1,1,1,1,1,1,1,1,1,1,1,1,1,1,1,1,1,1,1,1,1,1,1,1,1,1,1,1,1,1,1,1,1,1,1,1,1,1,1,1,1,1,1,1,1,1,1,1,1,1,1,1,1,1,1,1,1,1,1,1,1,1,1,1,1,1,1,1,1,1,1,1,1,1,1,1,1,1,1,1,1,1,1,1,1,1,1,1,1,1,1,1,1,1,1,1,1,1,1,1,1,1,1,1,1,1,1,1,1,1,1,1,1,1,1,1,1,1,1,1,1,1,1,1,1,1,1,1,1,1,1,1,1,1,1,1,1,1,1,1,1,1,1,1,1,1,1,1,1,1,1,1,1,1,1,1,1,1,1,1,1,1,1,1,1,1,1,1,1,1,1,1,1,1,1,1,1,1,1,1,1,1,1],"number_of_sets":1,"coherent_direction":[249,10,10,10,10,249,249,10,10,10,10,10,249,249,249,10,249,10,10,249,10,249,249,249,249,10,10,249,10,249,249,10,249,10,249,249,10,10,10,249,10,249,249,249,249,249,10,10,10,249,249,249,10,10,249,249,10,10,10,10,10,249,249,249,10,10,249,10,249,10,10,10,249,10,10,10,249,249,10,10,10,249,10,10,10,249,10,249,249,10,249,249,249,249,10,249,10,249,249,249,10,10,10,249,249,10,249,249,249,249,10,249,10,249,249,249,249,10,249,249,10,10,249,10,249,10,10,249,10,249,249,249,249,10,10,10,10,249,249,249,10,249,249,249,10,249,10,10,10,249,249,10,10,249,249,10,249,10,10,10,10,249,249,10,10,10,249,10,10,249,249,249,249,249,249,10,10,10,10,10,10,10,10,249,249,10,10,10,10,10,10,249,249,249,249,249,249,249,249,10],"coherence":1,"opposite_coherence":0,"dot_radius":2,"dot_side_length":1,"dot_life":-1,"move_distance":1,"aperture_width":300,"aperture_height":300,"dot_color":["black","white","white","white","white","black","black","white","white","white","white","white","black","black","black","white","black","white","white","black","white","black","black","black","black","white","white","black","white","black","black","white","black","white","black","black","white","white","white","black","white","black","black","black","black","black","white","white","white","black","black","black","white","white","black","black","white","white","white","white","white","black","black","black","white","white","black","white","black","white","white","white","black","white","white","white","black","black","white","white","white","black","white","white","white","black","white","black","black","white","black","black","black","black","white","black","white","black","black","black","white","white","white","black","black","white","black","black","black","black","white","black","white","black","black","black","black","white","black","black","white","white","black","white","black","white","white","black","white","black","black","black","black","white","white","white","white","black","black","black","white","black","black","black","white","black","white","white","white","black","black","white","white","black","black","white","black","white","white","white","white","black","black","white","white","white","black","white","white","black","black","black","black","black","black","white","white","white","white","white","white","white","white","black","black","white","white","white","white","white","white","black","black","black","black","black","black","black","black","white"],"dot_shape":"circle","background_color":"#AAA","RDK_type":3,"aperture_type":2,"reinsert_type":2,"frame_rate":16.766666666666666,"frame_rate_array":[10,17,17,17,17,17,16,17,17,17,16,17,17,17,17,17,17,17,16,17,17,17,17,17,18,16,16,16,17,16,17,17,17,17,17,16,17,16,17,17,17,17,17,16,17,17,16,17,17,17,17,17,17,17,16,17,17,17,17,16,17,17,17,17,17,17,17,17,17,17,17,17,16,17,17,16,17,17,17,17,16,17,17,16,17,17,17,17,17,17,16,17,17,17,16,17,17,17,17,17,16,17,16,17,17,17,17,17,17,17,17,16,17,17,17,17,17,17,17,17],"number_of_frames":120,"aperture_center_x":683,"aperture_center_y":384,"fixation_cross":true,"fixation_cross_width":15,"fixation_cross_height":15,"fixation_cross_color":"#111","fixation_cross_thickness":1,"border":true,"border_thickness":2,"border_color":"transparent","canvas_width":1366,"canvas_height":768,"trial_type":"rdk","trial_index":60,"plugin_version":"2.0.0","time_elapsed":409436},{"rt":8574,"stimulus":"\n        <div class=\"response-container\">\n          <div class=\"response-instruction\">\n            <p>rotate the bar by using the left and right arrow keys.</p>\n            <p>when you are determined, press the Enter key.</p>\n          </div>\n          <div class=\"response-circle\">\n            <div class=\"response-fixation\"></div>\n            <div id=\"bar\" class=\"rotating-bar\"></div>\n          </div>\n        </div>\n      ","response":"Enter","trial_type":"html-keyboard-response","trial_index":61,"plugin_version":"2.1.0","time_elapsed":418011,"response_angle_css":39,"response_angle_rdk":51,"angular_error_target":41,"angular_error_distractor":162,"target_direction":10,"target_group":"white","reward_points":1},{"rt":null,"stimulus":"\n          <p style=\"color: #FF3333;\">Your reward: 1 points</p>\n        ","response":null,"trial_type":"html-keyboard-response","trial_index":62,"plugin_version":"2.1.0","time_elapsed":420025},{"rt":null,"stimulus":"<div class=\"fixation\" style=\"font-size: 60px;\">+</div>","response":null,"trial_type":"html-keyboard-response","trial_index":63,"plugin_version":"2.1.0","time_elapsed":421033},{"target_group":"white","condition_label":"W_H_vs_B_L_rep18","target_direction":20,"distractor_direction":278,"session_rotation":337,"rt":-1,"response":"","correct":false,"choices":"ALL_KEYS","correct_choice":["a"],"trial_duration":2000,"flip_timestamps":[],"response_ends_trial":false,"number_of_apertures":200,"number_of_dots":[1,1,1,1,1,1,1,1,1,1,1,1,1,1,1,1,1,1,1,1,1,1,1,1,1,1,1,1,1,1,1,1,1,1,1,1,1,1,1,1,1,1,1,1,1,1,1,1,1,1,1,1,1,1,1,1,1,1,1,1,1,1,1,1,1,1,1,1,1,1,1,1,1,1,1,1,1,1,1,1,1,1,1,1,1,1,1,1,1,1,1,1,1,1,1,1,1,1,1,1,1,1,1,1,1,1,1,1,1,1,1,1,1,1,1,1,1,1,1,1,1,1,1,1,1,1,1,1,1,1,1,1,1,1,1,1,1,1,1,1,1,1,1,1,1,1,1,1,1,1,1,1,1,1,1,1,1,1,1,1,1,1,1,1,1,1,1,1,1,1,1,1,1,1,1,1,1,1,1,1,1,1,1,1,1,1,1,1,1,1,1,1,1,1,1,1,1,1,1,1],"number_of_sets":1,"coherent_direction":[20,278,20,278,278,278,20,20,278,278,278,20,278,20,20,278,20,20,20,20,278,20,278,278,20,20,20,20,278,20,20,278,278,20,278,278,20,20,20,278,20,278,278,20,20,20,278,20,278,20,278,278,20,278,278,278,278,278,20,20,20,278,20,20,20,278,20,20,278,20,278,278,20,20,20,278,20,278,20,20,278,278,278,20,20,278,278,278,278,278,278,278,278,278,278,278,20,278,278,20,20,278,278,278,20,20,278,20,20,278,20,20,20,278,20,20,20,20,278,20,278,20,20,278,20,278,278,20,278,20,20,20,20,20,20,20,20,278,278,20,278,278,278,20,20,20,278,278,20,20,278,20,278,278,278,278,20,20,278,20,278,278,278,278,20,20,278,278,278,20,278,278,278,278,20,20,20,278,278,278,20,20,20,20,278,20,278,20,20,278,20,278,20,278,278,20,20,278,278,278],"coherence":1,"opposite_coherence":0,"dot_radius":2,"dot_side_length":1,"dot_life":-1,"move_distance":1,"aperture_width":300,"aperture_height":300,"dot_color":["white","black","white","black","black","black","white","white","black","black","black","white","black","white","white","black","white","white","white","white","black","white","black","black","white","white","white","white","black","white","white","black","black","white","black","black","white","white","white","black","white","black","black","white","white","white","black","white","black","white","black","black","white","black","black","black","black","black","white","white","white","black","white","white","white","black","white","white","black","white","black","black","white","white","white","black","white","black","white","white","black","black","black","white","white","black","black","black","black","black","black","black","black","black","black","black","white","black","black","white","white","black","black","black","white","white","black","white","white","black","white","white","white","black","white","white","white","white","black","white","black","white","white","black","white","black","black","white","black","white","white","white","white","white","white","white","white","black","black","white","black","black","black","white","white","white","black","black","white","white","black","white","black","black","black","black","white","white","black","white","black","black","black","black","white","white","black","black","black","white","black","black","black","black","white","white","white","black","black","black","white","white","white","white","black","white","black","white","white","black","white","black","white","black","black","white","white","black","black","black"],"dot_shape":"circle","background_color":"#AAA","RDK_type":3,"aperture_type":2,"reinsert_type":2,"frame_rate":16.758333333333333,"frame_rate_array":[10,15,17,17,17,16,17,17,17,17,17,17,17,17,17,16,17,17,17,17,16,17,17,17,17,17,17,17,17,17,17,17,17,17,17,17,17,17,17,17,17,17,17,17,16,17,16,17,17,16,17,16,17,17,17,17,17,17,16,17,17,17,16,17,17,17,17,16,17,17,17,17,17,16,17,17,17,16,17,16,17,17,16,17,17,17,17,17,17,16,17,17,17,16,18,16,17,17,17,17,17,18,16,16,18,17,17,16,16,17,16,17,17,17,17,17,17,17,17,16],"number_of_frames":120,"aperture_center_x":683,"aperture_center_y":384,"fixation_cross":true,"fixation_cross_width":15,"fixation_cross_height":15,"fixation_cross_color":"#111","fixation_cross_thickness":1,"border":true,"border_thickness":2,"border_color":"transparent","canvas_width":1366,"canvas_height":768,"trial_type":"rdk","trial_index":64,"plugin_version":"2.0.0","time_elapsed":423042},{"rt":5212,"stimulus":"\n        <div class=\"response-container\">\n          <div class=\"response-instruction\">\n            <p>rotate the bar by using the left and right arrow keys.</p>\n            <p>when you are determined, press the Enter key.</p>\n          </div>\n          <div class=\"response-circle\">\n            <div class=\"response-fixation\"></div>\n            <div id=\"bar\" class=\"rotating-bar\"></div>\n          </div>\n        </div>\n      ","response":"Enter","trial_type":"html-keyboard-response","trial_index":65,"plugin_version":"2.1.0","time_elapsed":428254,"response_angle_css":452,"response_angle_rdk":358,"angular_error_target":-22,"angular_error_distractor":80,"target_direction":20,"target_group":"white","reward_points":5},{"rt":null,"stimulus":"\n          <p style=\"color: #00FF00;\">Your reward: 5 points</p>\n        ","response":null,"trial_type":"html-keyboard-response","trial_index":66,"plugin_version":"2.1.0","time_elapsed":430266},{"rt":null,"stimulus":"<div class=\"fixation\" style=\"font-size: 60px;\">+</div>","response":null,"trial_type":"html-keyboard-response","trial_index":67,"plugin_version":"2.1.0","time_elapsed":431274},{"target_group":"black","condition_label":"B_H_vs_W_L_rep18","target_direction":69,"distractor_direction":175,"session_rotation":337,"rt":-1,"response":"","correct":false,"choices":"ALL_KEYS","correct_choice":["a"],"trial_duration":2000,"flip_timestamps":[],"response_ends_trial":false,"number_of_apertures":200,"number_of_dots":[1,1,1,1,1,1,1,1,1,1,1,1,1,1,1,1,1,1,1,1,1,1,1,1,1,1,1,1,1,1,1,1,1,1,1,1,1,1,1,1,1,1,1,1,1,1,1,1,1,1,1,1,1,1,1,1,1,1,1,1,1,1,1,1,1,1,1,1,1,1,1,1,1,1,1,1,1,1,1,1,1,1,1,1,1,1,1,1,1,1,1,1,1,1,1,1,1,1,1,1,1,1,1,1,1,1,1,1,1,1,1,1,1,1,1,1,1,1,1,1,1,1,1,1,1,1,1,1,1,1,1,1,1,1,1,1,1,1,1,1,1,1,1,1,1,1,1,1,1,1,1,1,1,1,1,1,1,1,1,1,1,1,1,1,1,1,1,1,1,1,1,1,1,1,1,1,1,1,1,1,1,1,1,1,1,1,1,1,1,1,1,1,1,1,1,1,1,1,1,1],"number_of_sets":1,"coherent_direction":[69,175,69,175,175,69,69,175,69,69,175,175,175,175,69,175,175,69,175,175,69,69,69,69,175,69,69,175,69,175,69,175,69,175,175,175,69,175,175,69,175,69,175,175,69,175,175,69,69,175,175,69,175,175,69,69,69,175,69,69,69,69,175,175,175,175,175,175,175,69,69,175,69,69,69,69,69,69,175,69,69,175,69,69,175,69,69,69,175,175,69,175,69,69,175,175,175,175,69,69,175,69,175,175,69,69,175,69,175,69,175,175,175,175,69,69,175,69,175,175,69,175,175,69,69,175,175,175,69,175,175,175,175,69,175,175,69,69,69,175,69,69,175,175,69,175,175,69,175,69,69,69,69,69,175,175,175,175,69,69,69,175,69,175,69,69,175,69,175,69,69,175,175,69,69,69,69,69,69,175,175,69,69,69,175,175,69,175,175,175,175,175,175,69,69,69,175,69,69,175],"coherence":1,"opposite_coherence":0,"dot_radius":2,"dot_side_length":1,"dot_life":-1,"move_distance":1,"aperture_width":300,"aperture_height":300,"dot_color":["black","white","black","white","white","black","black","white","black","black","white","white","white","white","black","white","white","black","white","white","black","black","black","black","white","black","black","white","black","white","black","white","black","white","white","white","black","white","white","black","white","black","white","white","black","white","white","black","black","white","white","black","white","white","black","black","black","white","black","black","black","black","white","white","white","white","white","white","white","black","black","white","black","black","black","black","black","black","white","black","black","white","black","black","white","black","black","black","white","white","black","white","black","black","white","white","white","white","black","black","white","black","white","white","black","black","white","black","white","black","white","white","white","white","black","black","white","black","white","white","black","white","white","black","black","white","white","white","black","white","white","white","white","black","white","white","black","black","black","white","black","black","white","white","black","white","white","black","white","black","black","black","black","black","white","white","white","white","black","black","black","white","black","white","black","black","white","black","white","black","black","white","white","black","black","black","black","black","black","white","white","black","black","black","white","white","black","white","white","white","white","white","white","black","black","black","white","black","black","white"],"dot_shape":"circle","background_color":"#AAA","RDK_type":3,"aperture_type":2,"reinsert_type":2,"frame_rate":16.68595041322314,"frame_rate_array":[5,17,16,16,17,16,17,17,17,16,17,17,16,17,17,16,17,17,17,17,17,17,17,17,17,17,16,17,17,17,16,17,17,17,16,17,19,16,16,19,17,16,16,16,17,16,17,16,19,17,16,17,19,15,16,16,17,16,19,17,17,15,16,16,17,18,16,17,17,17,16,17,17,17,17,16,17,18,16,17,17,16,17,17,17,17,17,17,17,18,16,17,17,17,16,17,17,16,17,17,16,17,17,16,17,17,17,17,17,16,17,16,17,17,17,19,17,16,16,17,16],"number_of_frames":121,"aperture_center_x":683,"aperture_center_y":384,"fixation_cross":true,"fixation_cross_width":15,"fixation_cross_height":15,"fixation_cross_color":"#111","fixation_cross_thickness":1,"border":true,"border_thickness":2,"border_color":"transparent","canvas_width":1366,"canvas_height":768,"trial_type":"rdk","trial_index":68,"plugin_version":"2.0.0","time_elapsed":433280},{"rt":3161,"stimulus":"\n        <div class=\"response-container\">\n          <div class=\"response-instruction\">\n            <p>rotate the bar by using the left and right arrow keys.</p>\n            <p>when you are determined, press the Enter key.</p>\n          </div>\n          <div class=\"response-circle\">\n            <div class=\"response-fixation\"></div>\n            <div id=\"bar\" class=\"rotating-bar\"></div>\n          </div>\n        </div>\n      ","response":"Enter","trial_type":"html-keyboard-response","trial_index":69,"plugin_version":"2.1.0","time_elapsed":436442,"response_angle_css":-94,"response_angle_rdk":184,"angular_error_target":115,"angular_error_distractor":9,"target_direction":69,"target_group":"black","reward_points":0},{"rt":null,"stimulus":"\n          <p style=\"color: #FF3333;\">Your reward: 0 points</p>\n        ","response":null,"trial_type":"html-keyboard-response","trial_index":70,"plugin_version":"2.1.0","time_elapsed":438446},{"rt":null,"stimulus":"<div class=\"fixation\" style=\"font-size: 60px;\">+</div>","response":null,"trial_type":"html-keyboard-response","trial_index":71,"plugin_version":"2.1.0","time_elapsed":439452},{"target_group":"black","condition_label":"B_H_vs_W_L_rep12","target_direction":67,"distractor_direction":172,"session_rotation":337,"rt":-1,"response":"","correct":false,"choices":"ALL_KEYS","correct_choice":["a"],"trial_duration":2000,"flip_timestamps":[],"response_ends_trial":false,"number_of_apertures":200,"number_of_dots":[1,1,1,1,1,1,1,1,1,1,1,1,1,1,1,1,1,1,1,1,1,1,1,1,1,1,1,1,1,1,1,1,1,1,1,1,1,1,1,1,1,1,1,1,1,1,1,1,1,1,1,1,1,1,1,1,1,1,1,1,1,1,1,1,1,1,1,1,1,1,1,1,1,1,1,1,1,1,1,1,1,1,1,1,1,1,1,1,1,1,1,1,1,1,1,1,1,1,1,1,1,1,1,1,1,1,1,1,1,1,1,1,1,1,1,1,1,1,1,1,1,1,1,1,1,1,1,1,1,1,1,1,1,1,1,1,1,1,1,1,1,1,1,1,1,1,1,1,1,1,1,1,1,1,1,1,1,1,1,1,1,1,1,1,1,1,1,1,1,1,1,1,1,1,1,1,1,1,1,1,1,1,1,1,1,1,1,1,1,1,1,1,1,1,1,1,1,1,1,1],"number_of_sets":1,"coherent_direction":[67,172,67,67,172,67,67,67,172,67,172,172,172,67,67,172,67,67,67,67,172,67,172,172,67,67,67,67,67,172,172,172,67,172,67,172,172,67,67,67,67,67,67,172,172,172,172,67,67,67,172,67,172,172,67,172,172,67,67,67,67,172,67,67,172,67,172,172,172,172,67,67,67,67,172,172,172,172,172,67,67,172,67,67,172,67,67,172,67,172,172,172,67,67,67,172,172,172,67,67,172,67,172,172,67,172,172,172,172,67,172,172,172,172,67,67,172,67,67,172,67,172,172,67,67,172,172,172,172,172,67,67,172,172,67,172,67,67,172,172,172,172,172,67,67,67,172,172,67,172,67,67,172,172,172,172,172,67,67,172,67,67,67,172,172,172,67,172,67,67,67,67,67,172,67,172,172,67,67,172,67,67,67,172,172,172,172,67,67,172,67,67,67,172,172,67,172,67,172,172],"coherence":1,"opposite_coherence":0,"dot_radius":2,"dot_side_length":1,"dot_life":-1,"move_distance":1,"aperture_width":300,"aperture_height":300,"dot_color":["black","white","black","black","white","black","black","black","white","black","white","white","white","black","black","white","black","black","black","black","white","black","white","white","black","black","black","black","black","white","white","white","black","white","black","white","white","black","black","black","black","black","black","white","white","white","white","black","black","black","white","black","white","white","black","white","white","black","black","black","black","white","black","black","white","black","white","white","white","white","black","black","black","black","white","white","white","white","white","black","black","white","black","black","white","black","black","white","black","white","white","white","black","black","black","white","white","white","black","black","white","black","white","white","black","white","white","white","white","black","white","white","white","white","black","black","white","black","black","white","black","white","white","black","black","white","white","white","white","white","black","black","white","white","black","white","black","black","white","white","white","white","white","black","black","black","white","white","black","white","black","black","white","white","white","white","white","black","black","white","black","black","black","white","white","white","black","white","black","black","black","black","black","white","black","white","white","black","black","white","black","black","black","white","white","white","white","black","black","white","black","black","black","white","white","black","white","black","white","white"],"dot_shape":"circle","background_color":"#AAA","RDK_type":3,"aperture_type":2,"reinsert_type":2,"frame_rate":16.816666666666666,"frame_rate_array":[8,17,17,17,17,17,17,17,17,17,17,17,17,16,17,16,17,17,16,17,17,17,17,17,17,17,17,17,16,17,17,17,17,17,17,17,17,17,17,17,17,17,16,17,17,17,17,16,17,17,17,17,17,17,17,17,16,17,17,17,17,16,17,17,17,17,17,17,17,17,17,16,17,17,16,17,18,17,17,17,17,17,17,16,16,17,17,17,17,17,17,17,17,17,17,18,16,17,17,17,17,17,17,17,17,17,17,17,17,17,16,16,17,17,17,17,17,17,17,17],"number_of_frames":120,"aperture_center_x":683,"aperture_center_y":384,"fixation_cross":true,"fixation_cross_width":15,"fixation_cross_height":15,"fixation_cross_color":"#111","fixation_cross_thickness":1,"border":true,"border_thickness":2,"border_color":"transparent","canvas_width":1366,"canvas_height":768,"trial_type":"rdk","trial_index":72,"plugin_version":"2.0.0","time_elapsed":441457},{"rt":6516,"stimulus":"\n        <div class=\"response-container\">\n          <div class=\"response-instruction\">\n            <p>rotate the bar by using the left and right arrow keys.</p>\n            <p>when you are determined, press the Enter key.</p>\n          </div>\n          <div class=\"response-circle\">\n            <div class=\"response-fixation\"></div>\n            <div id=\"bar\" class=\"rotating-bar\"></div>\n          </div>\n        </div>\n      ","response":"Enter","trial_type":"html-keyboard-response","trial_index":73,"plugin_version":"2.1.0","time_elapsed":447975,"response_angle_css":-76,"response_angle_rdk":166,"angular_error_target":99,"angular_error_distractor":-6,"target_direction":67,"target_group":"black","reward_points":0},{"rt":null,"stimulus":"\n          <p style=\"color: #FF3333;\">Your reward: 0 points</p>\n        ","response":null,"trial_type":"html-keyboard-response","trial_index":74,"plugin_version":"2.1.0","time_elapsed":449982},{"rt":null,"stimulus":"<div class=\"fixation\" style=\"font-size: 60px;\">+</div>","response":null,"trial_type":"html-keyboard-response","trial_index":75,"plugin_version":"2.1.0","time_elapsed":450988},{"target_group":"white","condition_label":"W_H_vs_B_L_rep3","target_direction":359,"distractor_direction":254,"session_rotation":337,"rt":1322,"response":"ArrowRight","correct":false,"choices":"ALL_KEYS","correct_choice":["a"],"trial_duration":2000,"flip_timestamps":[],"response_ends_trial":false,"number_of_apertures":200,"number_of_dots":[1,1,1,1,1,1,1,1,1,1,1,1,1,1,1,1,1,1,1,1,1,1,1,1,1,1,1,1,1,1,1,1,1,1,1,1,1,1,1,1,1,1,1,1,1,1,1,1,1,1,1,1,1,1,1,1,1,1,1,1,1,1,1,1,1,1,1,1,1,1,1,1,1,1,1,1,1,1,1,1,1,1,1,1,1,1,1,1,1,1,1,1,1,1,1,1,1,1,1,1,1,1,1,1,1,1,1,1,1,1,1,1,1,1,1,1,1,1,1,1,1,1,1,1,1,1,1,1,1,1,1,1,1,1,1,1,1,1,1,1,1,1,1,1,1,1,1,1,1,1,1,1,1,1,1,1,1,1,1,1,1,1,1,1,1,1,1,1,1,1,1,1,1,1,1,1,1,1,1,1,1,1,1,1,1,1,1,1,1,1,1,1,1,1,1,1,1,1,1,1],"number_of_sets":1,"coherent_direction":[254,359,359,359,359,359,359,254,359,359,254,359,359,254,254,254,359,254,359,359,359,254,254,254,359,254,359,254,254,359,359,359,359,359,359,359,254,254,254,254,359,254,254,359,359,254,254,359,359,359,254,254,359,359,359,359,359,254,359,254,254,359,254,359,254,359,359,254,254,359,359,254,359,359,254,254,254,254,254,254,254,359,359,359,359,359,254,254,359,359,254,359,359,359,254,359,359,359,254,254,359,359,359,254,254,254,359,254,254,254,359,359,254,254,359,359,254,254,254,254,359,359,254,254,359,254,359,359,359,254,254,359,254,254,359,359,359,359,254,254,359,254,254,359,254,359,254,359,254,359,359,359,359,254,254,254,254,359,359,254,359,254,254,254,254,359,359,254,359,254,359,254,254,254,359,359,359,254,254,359,254,359,254,254,254,359,359,254,254,254,254,359,254,254,359,359,254,254,254,254],"coherence":1,"opposite_coherence":0,"dot_radius":2,"dot_side_length":1,"dot_life":-1,"move_distance":1,"aperture_width":300,"aperture_height":300,"dot_color":["black","white","white","white","white","white","white","black","white","white","black","white","white","black","black","black","white","black","white","white","white","black","black","black","white","black","white","black","black","white","white","white","white","white","white","white","black","black","black","black","white","black","black","white","white","black","black","white","white","white","black","black","white","white","white","white","white","black","white","black","black","white","black","white","black","white","white","black","black","white","white","black","white","white","black","black","black","black","black","black","black","white","white","white","white","white","black","black","white","white","black","white","white","white","black","white","white","white","black","black","white","white","white","black","black","black","white","black","black","black","white","white","black","black","white","white","black","black","black","black","white","white","black","black","white","black","white","white","white","black","black","white","black","black","white","white","white","white","black","black","white","black","black","white","black","white","black","white","black","white","white","white","white","black","black","black","black","white","white","black","white","black","black","black","black","white","white","black","white","black","white","black","black","black","white","white","white","black","black","white","black","white","black","black","black","white","white","black","black","black","black","white","black","black","white","white","black","black","black","black"],"dot_shape":"circle","background_color":"#AAA","RDK_type":3,"aperture_type":2,"reinsert_type":2,"frame_rate":16.775,"frame_rate_array":[7,17,17,17,17,16,17,17,17,16,16,17,17,17,18,17,17,16,16,17,17,17,17,17,16,17,17,17,17,17,17,17,17,17,17,17,17,17,17,17,17,17,17,17,17,17,17,17,17,17,16,16,17,17,17,17,17,17,17,17,17,17,17,17,17,17,17,17,17,16,16,17,17,17,17,17,17,17,17,17,17,17,17,17,17,17,17,17,16,16,17,17,17,17,17,17,17,17,18,17,17,16,17,17,17,15,22,11,17,17,17,16,17,16,17,17,17,17,17,16],"number_of_frames":120,"aperture_center_x":683,"aperture_center_y":384,"fixation_cross":true,"fixation_cross_width":15,"fixation_cross_height":15,"fixation_cross_color":"#111","fixation_cross_thickness":1,"border":true,"border_thickness":2,"border_color":"transparent","canvas_width":1366,"canvas_height":768,"trial_type":"rdk","trial_index":76,"plugin_version":"2.0.0","time_elapsed":452994},{"rt":2878,"stimulus":"\n        <div class=\"response-container\">\n          <div class=\"response-instruction\">\n            <p>rotate the bar by using the left and right arrow keys.</p>\n            <p>when you are determined, press the Enter key.</p>\n          </div>\n          <div class=\"response-circle\">\n            <div class=\"response-fixation\"></div>\n            <div id=\"bar\" class=\"rotating-bar\"></div>\n          </div>\n        </div>\n      ","response":"Enter","trial_type":"html-keyboard-response","trial_index":77,"plugin_version":"2.1.0","time_elapsed":455873,"response_angle_css":448,"response_angle_rdk":2,"angular_error_target":3,"angular_error_distractor":108,"target_direction":359,"target_group":"white","reward_points":9},{"rt":null,"stimulus":"\n          <p style=\"color: #00FF00;\">Your reward: 9 points</p>\n        ","response":null,"trial_type":"html-keyboard-response","trial_index":78,"plugin_version":"2.1.0","time_elapsed":457877},{"rt":null,"stimulus":"<div class=\"fixation\" style=\"font-size: 60px;\">+</div>","response":null,"trial_type":"html-keyboard-response","trial_index":79,"plugin_version":"2.1.0","time_elapsed":458887},{"target_group":"white","condition_label":"W_H_vs_B_L_rep21","target_direction":11,"distractor_direction":278,"session_rotation":337,"rt":1910,"response":"ArrowDown","correct":false,"choices":"ALL_KEYS","correct_choice":["a"],"trial_duration":2000,"flip_timestamps":[],"response_ends_trial":false,"number_of_apertures":200,"number_of_dots":[1,1,1,1,1,1,1,1,1,1,1,1,1,1,1,1,1,1,1,1,1,1,1,1,1,1,1,1,1,1,1,1,1,1,1,1,1,1,1,1,1,1,1,1,1,1,1,1,1,1,1,1,1,1,1,1,1,1,1,1,1,1,1,1,1,1,1,1,1,1,1,1,1,1,1,1,1,1,1,1,1,1,1,1,1,1,1,1,1,1,1,1,1,1,1,1,1,1,1,1,1,1,1,1,1,1,1,1,1,1,1,1,1,1,1,1,1,1,1,1,1,1,1,1,1,1,1,1,1,1,1,1,1,1,1,1,1,1,1,1,1,1,1,1,1,1,1,1,1,1,1,1,1,1,1,1,1,1,1,1,1,1,1,1,1,1,1,1,1,1,1,1,1,1,1,1,1,1,1,1,1,1,1,1,1,1,1,1,1,1,1,1,1,1,1,1,1,1,1,1],"number_of_sets":1,"coherent_direction":[278,11,11,11,278,11,11,11,278,278,11,278,11,278,278,11,278,11,11,11,11,278,278,11,278,11,11,278,278,11,278,11,278,278,278,11,278,11,278,278,278,11,278,11,278,278,278,11,11,11,278,11,278,11,11,11,11,278,11,278,11,11,11,278,278,278,11,11,11,278,278,11,11,11,11,11,278,11,278,278,11,278,11,11,11,11,11,278,11,11,278,278,11,278,278,11,11,278,278,278,278,11,278,11,11,278,278,11,11,11,11,11,278,11,278,278,11,11,278,278,11,278,278,11,11,11,11,11,278,11,11,11,278,278,11,278,278,278,11,11,278,278,11,278,278,11,11,278,11,11,11,278,278,278,278,278,11,278,278,278,11,11,278,11,278,278,278,278,278,278,278,278,11,278,278,278,278,11,278,278,11,11,278,11,278,11,278,11,278,11,278,11,278,11,11,278,11,278,278,11],"coherence":1,"opposite_coherence":0,"dot_radius":2,"dot_side_length":1,"dot_life":-1,"move_distance":1,"aperture_width":300,"aperture_height":300,"dot_color":["black","white","white","white","black","white","white","white","black","black","white","black","white","black","black","white","black","white","white","white","white","black","black","white","black","white","white","black","black","white","black","white","black","black","black","white","black","white","black","black","black","white","black","white","black","black","black","white","white","white","black","white","black","white","white","white","white","black","white","black","white","white","white","black","black","black","white","white","white","black","black","white","white","white","white","white","black","white","black","black","white","black","white","white","white","white","white","black","white","white","black","black","white","black","black","white","white","black","black","black","black","white","black","white","white","black","black","white","white","white","white","white","black","white","black","black","white","white","black","black","white","black","black","white","white","white","white","white","black","white","white","white","black","black","white","black","black","black","white","white","black","black","white","black","black","white","white","black","white","white","white","black","black","black","black","black","white","black","black","black","white","white","black","white","black","black","black","black","black","black","black","black","white","black","black","black","black","white","black","black","white","white","black","white","black","white","black","white","black","white","black","white","black","white","white","black","white","black","black","white"],"dot_shape":"circle","background_color":"#AAA","RDK_type":3,"aperture_type":2,"reinsert_type":2,"frame_rate":16.801652892561982,"frame_rate_array":[8,17,17,17,17,17,16,17,17,17,17,17,17,17,17,16,17,16,17,17,17,17,17,17,17,17,17,16,17,17,17,17,16,17,17,17,17,17,17,17,17,17,17,17,16,17,17,16,17,17,17,17,17,17,17,17,17,17,17,17,17,17,17,17,17,16,16,16,16,17,17,17,17,17,17,17,17,16,17,17,17,17,17,17,17,17,17,17,17,17,17,17,17,17,16,16,17,17,17,17,17,17,17,17,17,17,17,17,17,17,17,17,17,17,17,17,17,17,17,17,16],"number_of_frames":121,"aperture_center_x":683,"aperture_center_y":384,"fixation_cross":true,"fixation_cross_width":15,"fixation_cross_height":15,"fixation_cross_color":"#111","fixation_cross_thickness":1,"border":true,"border_thickness":2,"border_color":"transparent","canvas_width":1366,"canvas_heigh