"rt","stimulus","response","trial_type","trial_index","plugin_version","time_elapsed","target_group","target_index","condition_label","correct","choices","correct_choice","trial_duration","flip_timestamps","response_ends_trial","number_of_apertures","number_of_dots","number_of_sets","coherent_direction","coherence","opposite_coherence","dot_radius","dot_side_length","dot_life","move_distance","aperture_width","aperture_height","dot_color","dot_shape","background_color","RDK_type","aperture_type","reinsert_type","frame_rate","frame_rate_array","number_of_frames","aperture_center_x","aperture_center_y","fixation_cross","fixation_cross_width","fixation_cross_height","fixation_cross_color","fixation_cross_thickness","border","border_thickness","border_color","canvas_width","canvas_height","target_direction","distractor_direction","response_angle_css","response_angle_rdk","angular_error","reward_points","rotation_angle","key_press"
"88049","Welcome to the experiment. Press any key to begin.","Enter","html-keyboard-response","0","2.1.0","88051","","","","","","","","","","","","","","","","","","","","","","","","","","","","","","","","","","","","","","","","","","","","","","","","","",""
"98735","
        <div class=""instructions-container"">
          <h2>Instructions</h2>
          <p>In this experiment, you will see <strong>two random dot kinematograms (RDKs)</strong> simultaneously.</p>
          <p>RDK consists of white dots or black dots moving in a specific direction.</p>
          <p>Your task is to determine the direction of the <strong>target RDK</strong> based on the <strong>number of dots</strong>.</p>
          <p>For instance, if the white RDK has more dots than the black RDK, the white RDK is the target so you should respond to the direction of the white RDK.</p>
          <p>After viewing the RDKs, you will rotate a bar to indicate the perceived direction of the target RDK using the <strong>left and right arrow keys</strong>. <strong>Press Enter</strong> when you are ready to submit your response.</p>
          <p>You will receive points based on the <strong>accuracy of your response</strong>. Try to be as accurate as possible!</p>
          <p>You will have three practice trials. Press <strong>Enter</strong> key to start the practice phase.</p>
        </div>
      ","Enter","html-keyboard-response","1","2.1.0","186787","","","","","","","","","","","","","","","","","","","","","","","","","","","","","","","","","","","","","","","","","","","","","","","","","",""
"null","<div class=""fixation"" style=""font-size: 60px;"">+</div>","null","html-keyboard-response","2","2.1.0","187790","","","","","","","","","","","","","","","","","","","","","","","","","","","","","","","","","","","","","","","","","","","","","","","","","",""
"-1","","","rdk","3","2.0.0","189797","black","1","B_H_vs_W_L","false","ALL_KEYS","[""a""]","2000","[]","false","2","[50,100]","1","[10,100]","1","0","2","1","-1","1","300","300","[""white"",""black""]","circle","#AAA","3","2","2","16.908333333333335","[13,16,25,9,17,17,17,17,17,17,17,17,17,17,17,17,16,18,17,17,17,16,17,17,17,17,17,16,17,17,17,17,17,17,17,17,17,17,17,16,17,17,17,17,17,17,17,17,17,17,17,17,17,17,17,17,17,17,17,17,17,17,17,17,17,17,17,17,17,17,17,17,17,17,17,17,17,17,17,17,17,16,17,17,17,17,17,16,17,17,17,17,17,17,17,17,17,17,17,17,17,17,17,17,17,17,17,17,16,17,16,18,17,17,17,16,18,17,17,17]","120","735","461.5","true","15","15","#111","1","true","2","transparent","1470","923","100","10","","","","","",""
"18726","
        <div class=""response-container"">
          <div class=""response-instruction"">
            <p>rotate the bar by using the left and right arrow keys.</p>
            <p>when you are determined, press the Enter key.</p>
          </div>
          <div class=""response-circle"">
            <div class=""response-fixation""></div>
            <div id=""bar"" class=""rotating-bar""></div>
          </div>
        </div>
      ","Enter","html-keyboard-response","4","2.1.0","208526","black","","","","","","","","","","","","","","","","","","","","","","","","","","","","","","","","","","","","","","","","","","100","","14","76","-24","4","59",""
"null","
          <p style=""color: #00FF00;"">Your reward: 4 points</p>
        ","null","html-keyboard-response","5","2.1.0","210530","","","","","","","","","","","","","","","","","","","","","","","","","","","","","","","","","","","","","","","","","","","","","","","","","",""
"null","<div class=""fixation"" style=""font-size: 60px;"">+</div>","null","html-keyboard-response","6","2.1.0","211532","","","","","","","","","","","","","","","","","","","","","","","","","","","","","","","","","","","","","","","","","","","","","","","","","",""
"-1","","","rdk","7","2.0.0","213538","white","0","W_H_vs_B_L","false","ALL_KEYS","[""a""]","2000","[]","false","2","[100,50]","1","[150,30]","1","0","2","1","-1","1","300","300","[""white"",""black""]","circle","#AAA","3","2","2","16.858333333333334","[7,17,17,17,17,17,17,17,17,17,17,17,17,17,17,17,17,17,17,17,17,17,17,17,17,17,17,17,17,17,17,17,17,17,17,17,17,16,17,17,17,17,17,16,17,17,17,17,17,17,17,17,17,17,17,17,17,17,17,17,17,16,17,17,17,17,17,16,17,17,16,17,17,17,17,17,17,17,17,17,17,17,17,17,17,17,17,17,17,17,17,17,17,17,17,17,17,16,17,17,17,17,17,16,17,17,17,17,17,17,17,17,17,17,17,17,17,17,17,17]","120","735","461.5","true","15","15","#111","1","true","2","transparent","1470","923","150","30","","","","","",""
"5896","
        <div class=""response-container"">
          <div class=""response-instruction"">
            <p>rotate the bar by using the left and right arrow keys.</p>
            <p>when you are determined, press the Enter key.</p>
          </div>
          <div class=""response-circle"">
            <div class=""response-fixation""></div>
            <div id=""bar"" class=""rotating-bar""></div>
          </div>
        </div>
      ","Enter","html-keyboard-response","8","2.1.0","219436","white","","","","","","","","","","","","","","","","","","","","","","","","","","","","","","","","","","","","","","","","","","150","","-72","162","12","7","59",""
"null","
          <p style=""color: #00FF00;"">Your reward: 7 points</p>
        ","null","html-keyboard-response","9","2.1.0","221440","","","","","","","","","","","","","","","","","","","","","","","","","","","","","","","","","","","","","","","","","","","","","","","","","",""
"null","<div class=""fixation"" style=""font-size: 60px;"">+</div>","null","html-keyboard-response","10","2.1.0","222443","","","","","","","","","","","","","","","","","","","","","","","","","","","","","","","","","","","","","","","","","","","","","","","","","",""
"-1","","","rdk","11","2.0.0","224447","black","1","B_H_vs_W_L","false","ALL_KEYS","[""a""]","2000","[]","false","2","[50,100]","1","[270,180]","1","0","2","1","-1","1","300","300","[""white"",""black""]","circle","#AAA","3","2","2","16.9","[13,17,17,17,16,17,16,17,17,17,17,17,16,17,16,17,17,17,17,17,17,17,17,17,17,17,17,17,17,17,17,17,17,17,17,17,17,17,17,17,17,17,17,17,17,17,17,17,16,17,17,17,17,17,17,17,17,17,17,17,17,17,17,17,17,17,16,17,17,17,17,17,17,17,17,17,17,17,17,17,17,17,17,17,17,17,17,17,17,17,17,17,17,17,17,17,17,17,17,17,17,17,16,17,17,17,17,17,16,17,17,17,17,17,17,17,17,17,17,17]","120","735","461.5","true","15","15","#111","1","true","2","transparent","1470","923","180","270","","","","","",""
"3507","
        <div class=""response-container"">
          <div class=""response-instruction"">
            <p>rotate the bar by using the left and right arrow keys.</p>
            <p>when you are determined, press the Enter key.</p>
          </div>
          <div class=""response-circle"">
            <div class=""response-fixation""></div>
            <div id=""bar"" class=""rotating-bar""></div>
          </div>
        </div>
      ","Enter","html-keyboard-response","12","2.1.0","227956","black","","","","","","","","","","","","","","","","","","","","","","","","","","","","","","","","","","","","","","","","","","180","","285","165","-15","6","59",""
"null","
          <p style=""color: #00FF00;"">Your reward: 6 points</p>
        ","null","html-keyboard-response","13","2.1.0","229959","","","","","","","","","","","","","","","","","","","","","","","","","","","","","","","","","","","","","","","","","","","","","","","","","",""
"12674","
        <div class=""instructions-container"">
          <h2>End of Practice</h2>
          <p>You have completed the practice trials.</p>
          <p>Press <strong>Enter</strong> key to begin the main experiment.</p>
        </div>
      ","Enter","html-keyboard-response","14","2.1.0","242634","","","","","","","","","","","","","","","","","","","","","","","","","","","","","","","","","","","","","","","","","","","","","","","","","",""
"null","<div class=""fixation"" style=""font-size: 60px;"">+</div>","null","html-keyboard-response","15","2.1.0","243637","","","","","","","","","","","","","","","","","","","","","","","","","","","","","","","","","","","","","","","","","","","","","","","","","",""
"-1","","","rdk","16","2.0.0","245642","black","0","B_H_vs_W_L_rep7","false","ALL_KEYS","[""a""]","2000","[]","false","2","[100,100]","1","[160,249]","1","0","2","1","-1","1","300","300","[""black"",""white""]","circle","#AAA","3","2","2","16.949579831932773","[19,17,16,17,17,16,17,17,16,18,16,18,17,17,17,17,17,17,17,17,16,17,17,17,17,17,17,17,17,17,17,17,17,17,17,17,16,17,17,17,17,17,17,17,17,17,17,17,17,17,17,16,16,17,17,17,17,17,17,17,17,17,17,17,17,17,17,17,17,17,17,17,17,17,17,17,17,17,17,17,17,17,17,17,17,17,17,17,17,17,17,17,17,17,17,17,16,17,16,18,17,17,17,17,17,17,17,17,17,17,17,17,17,17,16,17,17,17,17]","119","735","461.5","true","15","15","#111","1","true","2","transparent","1470","923","160","249","","","","","",""
"1538","
        <div class=""response-container"">
          <div class=""response-instruction"">
            <p>rotate the bar by using the left and right arrow keys.</p>
            <p>when you are determined, press the Enter key.</p>
          </div>
          <div class=""response-circle"">
            <div class=""response-fixation""></div>
            <div id=""bar"" class=""rotating-bar""></div>
          </div>
        </div>
      ","Enter","html-keyboard-response","17","2.1.0","247181","black","","","","","","","","","","","","","","","","","","","","","","","","","","","","","","","","","","","","","","","","","","160","","328","122","-38","1","59",""
"null","
          <p style=""color: #FF3333;"">Your reward: 1 points</p>
        ","null","html-keyboard-response","18","2.1.0","249183","","","","","","","","","","","","","","","","","","","","","","","","","","","","","","","","","","","","","","","","","","","","","","","","","",""
"null","<div class=""fixation"" style=""font-size: 60px;"">+</div>","null","html-keyboard-response","19","2.1.0","250186","","","","","","","","","","","","","","","","","","","","","","","","","","","","","","","","","","","","","","","","","","","","","","","","","",""
"-1","","","rdk","20","2.0.0","252191","white","0","W_H_vs_B_L_rep9","false","ALL_KEYS","[""a""]","2000","[]","false","2","[100,100]","1","[82,4]","1","0","2","1","-1","1","300","300","[""white"",""black""]","circle","#AAA","3","2","2","16.949579831932773","[20,16,18,16,17,17,17,17,17,17,17,17,17,17,17,16,18,17,17,17,17,17,17,17,17,17,17,17,17,17,17,17,17,17,17,17,17,17,17,17,17,17,17,17,17,17,17,17,17,17,17,17,17,17,17,17,17,16,17,17,17,17,17,16,17,17,17,17,17,17,17,17,17,17,17,16,17,17,17,17,17,17,17,17,17,17,17,16,18,17,17,16,16,17,17,17,17,17,17,17,17,17,17,17,17,17,16,17,17,17,16,17,17,17,17,17,17,16,17]","119","735","461.5","true","15","15","#111","1","true","2","transparent","1470","923","82","4","","","","","",""
"6582","
        <div class=""response-container"">
          <div class=""response-instruction"">
            <p>rotate the bar by using the left and right arrow keys.</p>
            <p>when you are determined, press the Enter key.</p>
          </div>
          <div class=""response-circle"">
            <div class=""response-fixation""></div>
            <div id=""bar"" class=""rotating-bar""></div>
          </div>
        </div>
      ","Enter","html-keyboard-response","21","2.1.0","258774","white","","","","","","","","","","","","","","","","","","","","","","","","","","","","","","","","","","","","","","","","","","82","","18","72","-10","7","59",""
"null","
          <p style=""color: #00FF00;"">Your reward: 7 points</p>
        ","null","html-keyboard-response","22","2.1.0","260776","","","","","","","","","","","","","","","","","","","","","","","","","","","","","","","","","","","","","","","","","","","","","","","","","",""
"null","<div class=""fixation"" style=""font-size: 60px;"">+</div>","null","html-keyboard-response","23","2.1.0","261779","","","","","","","","","","","","","","","","","","","","","","","","","","","","","","","","","","","","","","","","","","","","","","","","","",""
"-1","","","rdk","24","2.0.0","263783","black","0","B_H_vs_W_L_rep1","false","ALL_KEYS","[""a""]","2000","[]","false","2","[100,100]","1","[171,247]","1","0","2","1","-1","1","300","300","[""black"",""white""]","circle","#AAA","3","2","2","16.891666666666666","[11,17,17,17,17,16,17,17,17,17,17,17,17,17,17,17,17,17,17,17,16,18,17,17,17,17,17,17,16,17,17,17,17,17,17,17,17,17,17,17,17,17,17,17,17,17,16,17,17,17,17,17,17,17,17,17,17,17,17,17,17,17,17,17,17,17,17,17,17,17,17,17,17,17,17,17,17,17,17,17,17,17,16,17,17,17,17,17,16,17,17,17,17,17,16,18,17,17,17,17,17,17,17,17,17,17,16,17,17,17,16,17,17,17,17,17,17,17,17,17]","120","735","461.5","true","15","15","#111","1","true","2","transparent","1470","923","171","247","","","","","",""
"6541","
        <div class=""response-container"">
          <div class=""response-instruction"">
            <p>rotate the bar by using the left and right arrow keys.</p>
            <p>when you are determined, press the Enter key.</p>
          </div>
          <div class=""response-circle"">
            <div class=""response-fixation""></div>
            <div id=""bar"" class=""rotating-bar""></div>
          </div>
        </div>
      ","Enter","html-keyboard-response","25","2.1.0","270325","black","","","","","","","","","","","","","","","","","","","","","","","","","","","","","","","","","","","","","","","","","","171","","293","157","-14","6","59",""
"null","
          <p style=""color: #00FF00;"">Your reward: 6 points</p>
        ","null","html-keyboard-response","26","2.1.0","272328","","","","","","","","","","","","","","","","","","","","","","","","","","","","","","","","","","","","","","","","","","","","","","","","","",""
"null","<div class=""fixation"" style=""font-size: 60px;"">+</div>","null","html-keyboard-response","27","2.1.0","273330","","","","","","","","","","","","","","","","","","","","","","","","","","","","","","","","","","","","","","","","","","","","","","","","","",""
"-1","","","rdk","28","2.0.0","275334","white","1","W_H_vs_B_L_rep13","false","ALL_KEYS","[""a""]","2000","[]","false","2","[100,100]","1","[340,53]","1","0","2","1","-1","1","300","300","[""black"",""white""]","circle","#AAA","3","2","2","16.808333333333334","[7,17,17,17,17,17,17,17,17,17,17,17,17,16,17,17,17,17,17,17,17,16,17,17,17,17,17,17,17,16,17,17,17,16,17,17,17,17,17,17,17,17,17,17,17,17,17,17,17,16,17,17,17,17,17,16,17,17,17,16,17,17,17,17,17,16,17,17,17,17,17,17,17,16,17,17,17,16,17,17,17,17,17,17,17,17,17,17,17,17,17,17,17,17,17,17,17,16,17,17,17,17,17,17,17,17,17,17,16,17,17,17,17,17,17,17,17,17,17,16]","120","735","461.5","true","15","15","#111","1","true","2","transparent","1470","923","53","340","","","","","",""
"3596","
        <div class=""response-container"">
          <div class=""response-instruction"">
            <p>rotate the bar by using the left and right arrow keys.</p>
            <p>when you are determined, press the Enter key.</p>
          </div>
          <div class=""response-circle"">
            <div class=""response-fixation""></div>
            <div id=""bar"" class=""rotating-bar""></div>
          </div>
        </div>
      ","Enter","html-keyboard-response","29","2.1.0","278931","white","","","","","","","","","","","","","","","","","","","","","","","","","","","","","","","","","","","","","","","","","","53","","56","34","-19","5","59",""
"null","
          <p style=""color: #00FF00;"">Your reward: 5 points</p>
        ","null","html-keyboard-response","30","2.1.0","280934","","","","","","","","","","","","","","","","","","","","","","","","","","","","","","","","","","","","","","","","","","","","","","","","","",""
"null","<div class=""fixation"" style=""font-size: 60px;"">+</div>","null","html-keyboard-response","31","2.1.0","281937","","","","","","","","","","","","","","","","","","","","","","","","","","","","","","","","","","","","","","","","","","","","","","","","","",""
"-1","","","rdk","32","2.0.0","283941","white","0","W_H_vs_B_L_rep5","false","ALL_KEYS","[""a""]","2000","[]","false","2","[100,100]","1","[88,4]","1","0","2","1","-1","1","300","300","[""white"",""black""]","circle","#AAA","3","2","2","16.96638655462185","[19,17,17,17,16,17,17,17,17,17,17,17,16,17,17,17,17,17,16,17,17,17,17,17,17,16,17,17,17,17,17,17,17,17,17,17,16,17,17,17,17,17,17,17,17,17,17,17,17,17,17,17,17,17,17,17,17,17,17,17,17,17,17,17,17,17,17,17,17,17,17,17,16,17,17,17,17,17,17,17,17,17,17,17,17,17,17,17,17,17,17,17,17,17,17,17,17,17,17,17,17,17,17,17,17,17,17,17,17,17,17,17,17,17,17,17,17,17,17]","119","735","461.5","true","15","15","#111","1","true","2","transparent","1470","923","88","4","","","","","",""
"1926","
        <div class=""response-container"">
          <div class=""response-instruction"">
            <p>rotate the bar by using the left and right arrow keys.</p>
            <p>when you are determined, press the Enter key.</p>
          </div>
          <div class=""response-circle"">
            <div class=""response-fixation""></div>
            <div id=""bar"" class=""rotating-bar""></div>
          </div>
        </div>
      ","Enter","html-keyboard-response","33","2.1.0","285868","white","","","","","","","","","","","","","","","","","","","","","","","","","","","","","","","","","","","","","","","","","","88","","92","358","-6","0","59",""
"null","
          <p style=""color: #FF3333;"">Your reward: 0 points</p>
        ","null","html-keyboard-response","34","2.1.0","287871","","","","","","","","","","","","","","","","","","","","","","","","","","","","","","","","","","","","","","","","","","","","","","","","","",""
"null","<div class=""fixation"" style=""font-size: 60px;"">+</div>","null","html-keyboard-response","35","2.1.0","288873","","","","","","","","","","","","","","","","","","","","","","","","","","","","","","","","","","","","","","","","","","","","","","","","","",""
"-1","","","rdk","36","2.0.0","290876","black","0","B_H_vs_W_L_rep3","false","ALL_KEYS","[""a""]","2000","[]","false","2","[100,100]","1","[176,254]","1","0","2","1","-1","1","300","300","[""black"",""white""]","circle","#AAA","3","2","2","16.966666666666665","[16,17,17,16,17,17,17,17,17,17,17,17,17,17,17,17,17,17,17,17,17,17,17,17,17,17,17,17,17,17,17,17,17,17,17,17,17,17,16,18,17,17,17,17,17,17,17,17,17,17,17,16,18,17,17,17,17,17,17,17,17,17,17,17,17,17,17,17,17,16,18,17,17,17,17,17,16,17,17,17,17,17,17,17,17,17,17,17,17,17,17,17,17,17,17,17,17,17,17,17,17,17,17,17,17,17,17,17,17,17,17,16,18,17,16,17,17,17,17,17]","120","735","461.5","true","15","15","#111","1","true","2","transparent","1470","923","176","254","","","","","",""
"4607","
        <div class=""response-container"">
          <div class=""response-instruction"">
            <p>rotate the bar by using the left and right arrow keys.</p>
            <p>when you are determined, press the Enter key.</p>
          </div>
          <div class=""response-circle"">
            <div class=""response-fixation""></div>
            <div id=""bar"" class=""rotating-bar""></div>
          </div>
        </div>
      ","Enter","html-keyboard-response","37","2.1.0","295484","black","","","","","","","","","","","","","","","","","","","","","","","","","","","","","","","","","","","","","","","","","","176","","-80","170","-6","8","59",""
"null","
          <p style=""color: #00FF00;"">Your reward: 8 points</p>
        ","null","html-keyboard-response","38","2.1.0","297487","","","","","","","","","","","","","","","","","","","","","","","","","","","","","","","","","","","","","","","","","","","","","","","","","",""
"null","<div class=""fixation"" style=""font-size: 60px;"">+</div>","null","html-keyboard-response","39","2.1.0","298489","","","","","","","","","","","","","","","","","","","","","","","","","","","","","","","","","","","","","","","","","","","","","","","","","",""
"-1","","","rdk","40","2.0.0","300493","white","1","W_H_vs_B_L_rep7","false","ALL_KEYS","[""a""]","2000","[]","false","2","[100,100]","1","[7,72]","1","0","2","1","-1","1","300","300","[""black"",""white""]","circle","#AAA","3","2","2","16.941666666666666","[16,17,17,16,17,17,17,17,17,17,16,17,17,17,17,17,17,17,17,17,17,17,17,17,17,17,17,17,17,17,17,17,17,17,16,16,18,17,17,16,17,17,17,17,17,16,17,17,17,17,17,17,17,17,17,17,17,17,17,17,17,17,17,16,17,17,17,17,17,17,17,17,17,17,17,17,17,17,17,17,17,17,17,17,17,17,17,17,17,17,17,17,17,17,17,17,17,17,17,17,17,17,17,17,17,17,17,17,17,17,17,17,17,17,17,17,17,17,17,17]","120","735","461.5","true","15","15","#111","1","true","2","transparent","1470","923","72","7","","","","","",""
"2793","
        <div class=""response-container"">
          <div class=""response-instruction"">
            <p>rotate the bar by using the left and right arrow keys.</p>
            <p>when you are determined, press the Enter key.</p>
          </div>
          <div class=""response-circle"">
            <div class=""response-fixation""></div>
            <div id=""bar"" class=""rotating-bar""></div>
          </div>
        </div>
      ","Enter","html-keyboard-response","41","2.1.0","303288","white","","","","","","","","","","","","","","","","","","","","","","","","","","","","","","","","","","","","","","","","","","72","","381","69","-3","9","59",""
"null","
          <p style=""color: #00FF00;"">Your reward: 9 points</p>
        ","null","html-keyboard-response","42","2.1.0","305290","","","","","","","","","","","","","","","","","","","","","","","","","","","","","","","","","","","","","","","","","","","","","","","","","",""
"null","<div class=""fixation"" style=""font-size: 60px;"">+</div>","null","html-keyboard-response","43","2.1.0","306293","","","","","","","","","","","","","","","","","","","","","","","","","","","","","","","","","","","","","","","","","","","","","","","","","",""
"-1","","","rdk","44","2.0.0","308296","black","0","B_H_vs_W_L_rep10","false","ALL_KEYS","[""a""]","2000","[]","false","2","[100,100]","1","[179,246]","1","0","2","1","-1","1","300","300","[""black"",""white""]","circle","#AAA","3","2","2","16.891666666666666","[13,16,18,17,17,17,17,17,17,17,17,17,17,17,16,17,17,17,16,17,17,17,17,17,17,17,17,17,17,17,17,17,17,17,17,17,16,17,17,17,17,17,17,17,17,17,17,17,17,17,17,16,17,17,17,17,17,16,17,17,17,16,18,17,17,17,17,17,17,17,17,17,17,17,17,17,17,17,17,17,17,17,17,17,17,17,16,17,17,17,16,17,17,17,17,17,17,17,16,17,17,17,17,17,17,17,17,17,17,17,17,16,17,17,17,17,17,16,18,17]","120","735","461.5","true","15","15","#111","1","true","2","transparent","1470","923","179","246","","","","","",""
"2040","
        <div class=""response-container"">
          <div class=""response-instruction"">
            <p>rotate the bar by using the left and right arrow keys.</p>
            <p>when you are determined, press the Enter key.</p>
          </div>
          <div class=""response-circle"">
            <div class=""response-fixation""></div>
            <div id=""bar"" class=""rotating-bar""></div>
          </div>
        </div>
      ","Enter","html-keyboard-response","45","2.1.0","310338","black","","","","","","","","","","","","","","","","","","","","","","","","","","","","","","","","","","","","","","","","","","179","","303","147","-32","2","59",""
"null","
          <p style=""color: #FF3333;"">Your reward: 2 points</p>
        ","null","html-keyboard-response","46","2.1.0","312340","","","","","","","","","","","","","","","","","","","","","","","","","","","","","","","","","","","","","","","","","","","","","","","","","",""
"null","<div class=""fixation"" style=""font-size: 60px;"">+</div>","null","html-keyboard-response","47","2.1.0","313342","","","","","","","","","","","","","","","","","","","","","","","","","","","","","","","","","","","","","","","","","","","","","","","","","",""
"-1","","","rdk","48","2.0.0","315345","black","0","B_H_vs_W_L_rep2","false","ALL_KEYS","[""a""]","2000","[]","false","2","[100,100]","1","[186,243]","1","0","2","1","-1","1","300","300","[""black"",""white""]","circle","#AAA","3","2","2","16.841666666666665","[12,17,17,17,17,17,17,17,17,17,17,17,16,18,17,17,17,16,17,17,17,17,17,16,17,17,17,17,17,17,17,17,17,17,17,17,17,17,17,17,17,17,16,17,17,17,17,17,16,17,16,18,17,17,17,17,17,17,17,17,17,17,17,17,17,17,16,17,17,17,17,16,17,17,16,17,16,17,17,17,16,17,17,17,16,17,17,17,17,17,17,17,17,17,17,17,17,16,17,17,17,17,17,16,17,17,17,17,16,17,17,17,17,17,16,17,17,17,17,17]","120","735","461.5","true","15","15","#111","1","true","2","transparent","1470","923","186","243","","","","","",""
"2743","
        <div class=""response-container"">
          <div class=""response-instruction"">
            <p>rotate the bar by using the left and right arrow keys.</p>
            <p>when you are determined, press the Enter key.</p>
          </div>
          <div class=""response-circle"">
            <div class=""response-fixation""></div>
            <div id=""bar"" class=""rotating-bar""></div>
          </div>
        </div>
      ","Enter","html-keyboard-response","49","2.1.0","318090","black","","","","","","","","","","","","","","","","","","","","","","","","","","","","","","","","","","","","","","","","","","186","","-53","143","-43","0","59",""
"null","
          <p style=""color: #FF3333;"">Your reward: 0 points</p>
        ","null","html-keyboard-response","50","2.1.0","320092","","","","","","","","","","","","","","","","","","","","","","","","","","","","","","","","","","","","","","","","","","","","","","","","","",""
"null","<div class=""fixation"" style=""font-size: 60px;"">+</div>","null","html-keyboard-response","51","2.1.0","321095","","","","","","","","","","","","","","","","","","","","","","","","","","","","","","","","","","","","","","","","","","","","","","","","","",""
"-1","","","rdk","52","2.0.0","323099","white","1","W_H_vs_B_L_rep14","false","ALL_KEYS","[""a""]","2000","[]","false","2","[100,100]","1","[6,86]","1","0","2","1","-1","1","300","300","[""black"",""white""]","circle","#AAA","3","2","2","16.875","[10,17,17,17,17,17,17,17,17,17,17,17,17,17,17,17,17,17,17,17,17,17,17,17,17,17,17,16,17,17,17,17,17,17,17,16,17,17,17,17,17,17,17,16,17,17,17,17,17,17,17,17,17,17,17,17,17,17,17,17,17,17,17,16,17,17,16,17,17,16,17,17,17,17,17,17,17,17,17,17,17,17,17,17,17,17,17,17,17,17,17,17,17,17,17,16,17,17,17,16,18,17,16,18,17,17,17,17,17,17,17,17,16,17,17,17,17,17,17,17]","120","735","461.5","true","15","15","#111","1","true","2","transparent","1470","923","86","6","","","","","",""
"2648","
        <div class=""response-container"">
          <div class=""response-instruction"">
            <p>rotate the bar by using the left and right arrow keys.</p>
            <p>when you are determined, press the Enter key.</p>
          </div>
          <div class=""response-circle"">
            <div class=""response-fixation""></div>
            <div id=""bar"" class=""rotating-bar""></div>
          </div>
        </div>
      ","Enter","html-keyboard-response","53","2.1.0","325748","white","","","","","","","","","","","","","","","","","","","","","","","","","","","","","","","","","","","","","","","","","","86","","346","104","18","6","59",""
"null","
          <p style=""color: #00FF00;"">Your reward: 6 points</p>
        ","null","html-keyboard-response","54","2.1.0","327751","","","","","","","","","","","","","","","","","","","","","","","","","","","","","","","","","","","","","","","","","","","","","","","","","",""
"null","<div class=""fixation"" style=""font-size: 60px;"">+</div>","null","html-keyboard-response","55","2.1.0","328754","","","","","","","","","","","","","","","","","","","","","","","","","","","","","","","","","","","","","","","","","","","","","","","","","",""
"-1","","","rdk","56","2.0.0","330757","white","0","W_H_vs_B_L_rep6","false","ALL_KEYS","[""a""]","2000","[]","false","2","[100,100]","1","[54,1]","1","0","2","1","-1","1","300","300","[""white"",""black""]","circle","#AAA","3","2","2","16.92436974789916","[19,16,17,17,17,17,17,17,17,17,16,18,17,17,17,17,17,17,17,17,17,16,17,16,17,17,17,17,17,16,17,17,17,17,17,17,17,17,17,17,17,17,17,17,16,17,17,16,17,17,17,17,17,17,17,17,17,17,17,16,17,17,17,17,17,17,17,17,17,17,17,17,17,17,17,17,16,17,17,17,17,17,17,16,17,17,17,17,17,17,17,17,17,17,17,17,17,17,17,17,17,17,16,17,17,17,17,17,17,17,17,17,17,17,17,17,17,17,16]","119","735","461.5","true","15","15","#111","1","true","2","transparent","1470","923","54","1","","","","","",""
"5202","
        <div class=""response-container"">
          <div class=""response-instruction"">
            <p>rotate the bar by using the left and right arrow keys.</p>
            <p>when you are determined, press the Enter key.</p>
          </div>
          <div class=""response-circle"">
            <div class=""response-fixation""></div>
            <div id=""bar"" class=""rotating-bar""></div>
          </div>
        </div>
      ","Enter","html-keyboard-response","57","2.1.0","335961","white","","","","","","","","","","","","","","","","","","","","","","","","","","","","","","","","","","","","","","","","","","54","","91","359","-2","0","59",""
"null","
          <p style=""color: #FF3333;"">Your reward: 0 points</p>
        ","null","html-keyboard-response","58","2.1.0","337963","","","","","","","","","","","","","","","","","","","","","","","","","","","","","","","","","","","","","","","","","","","","","","","","","",""
"null","<div class=""fixation"" style=""font-size: 60px;"">+</div>","null","html-keyboard-response","59","2.1.0","338965","","","","","","","","","","","","","","","","","","","","","","","","","","","","","","","","","","","","","","","","","","","","","","","","","",""
"-1","","","rdk","60","2.0.0","340969","black","0","B_H_vs_W_L_rep8","false","ALL_KEYS","[""a""]","2000","[]","false","2","[100,100]","1","[182,240]","1","0","2","1","-1","1","300","300","[""black"",""white""]","circle","#AAA","3","2","2","16.974789915966387","[24,16,17,17,17,17,17,17,17,17,17,17,17,17,17,17,16,17,17,17,17,17,16,17,17,17,17,17,17,17,17,16,17,17,17,17,17,17,17,17,17,17,16,18,17,16,17,17,17,17,17,17,17,17,17,17,17,17,17,16,18,17,16,17,17,17,17,17,17,17,16,17,17,17,17,17,16,17,17,17,17,17,17,17,17,17,17,17,17,17,17,17,17,17,17,17,17,17,17,17,16,17,17,17,16,17,17,17,17,17,17,17,17,17,17,17,17,17,17]","119","735","461.5","true","15","15","#111","1","true","2","transparent","1470","923","182","240","","","","","",""
"4531","
        <div class=""response-container"">
          <div class=""response-instruction"">
            <p>rotate the bar by using the left and right arrow keys.</p>
            <p>when you are determined, press the Enter key.</p>
          </div>
          <div class=""response-circle"">
            <div class=""response-fixation""></div>
            <div id=""bar"" class=""rotating-bar""></div>
          </div>
        </div>
      ","Enter","html-keyboard-response","61","2.1.0","345500","black","","","","","","","","","","","","","","","","","","","","","","","","","","","","","","","","","","","","","","","","","","182","","260","190","8","8","59",""
"null","
          <p style=""color: #00FF00;"">Your reward: 8 points</p>
        ","null","html-keyboard-response","62","2.1.0","347503","","","","","","","","","","","","","","","","","","","","","","","","","","","","","","","","","","","","","","","","","","","","","","","","","",""
"null","<div class=""fixation"" style=""font-size: 60px;"">+</div>","null","html-keyboard-response","63","2.1.0","348505","","","","","","","","","","","","","","","","","","","","","","","","","","","","","","","","","","","","","","","","","","","","","","","","","",""
"-1","","","rdk","64","2.0.0","350508","white","1","W_H_vs_B_L_rep10","false","ALL_KEYS","[""a""]","2000","[]","false","2","[100,100]","1","[5,61]","1","0","2","1","-1","1","300","300","[""black"",""white""]","circle","#AAA","3","2","2","16.916666666666668","[16,17,17,17,17,17,17,17,17,17,16,17,17,17,17,17,17,17,17,17,17,17,17,17,17,17,17,17,17,17,17,17,17,17,17,17,17,17,17,17,17,17,17,17,16,17,17,16,17,17,16,17,16,17,17,17,17,17,17,17,17,17,16,16,17,17,17,17,17,17,17,17,17,17,17,17,17,17,17,17,17,17,17,17,17,17,17,17,17,17,17,17,17,17,17,17,17,17,16,17,17,17,17,17,16,17,17,17,17,17,17,17,17,17,17,17,17,17,17,17]","120","735","461.5","true","15","15","#111","1","true","2","transparent","1470","923","61","5","","","","","",""
"3930","
        <div class=""response-container"">
          <div class=""response-instruction"">
            <p>rotate the bar by using the left and right arrow keys.</p>
            <p>when you are determined, press the Enter key.</p>
          </div>
          <div class=""response-circle"">
            <div class=""response-fixation""></div>
            <div id=""bar"" class=""rotating-bar""></div>
          </div>
        </div>
      ","Enter","html-keyboard-response","65","2.1.0","354440","white","","","","","","","","","","","","","","","","","","","","","","","","","","","","","","","","","","","","","","","","","","61","","41","49","-12","7","59",""
"null","
          <p style=""color: #00FF00;"">Your reward: 7 points</p>
        ","null","html-keyboard-response","66","2.1.0","356443","","","","","","","","","","","","","","","","","","","","","","","","","","","","","","","","","","","","","","","","","","","","","","","","","",""
"null","<div class=""fixation"" style=""font-size: 60px;"">+</div>","null","html-keyboard-response","67","2.1.0","357446","","","","","","","","","","","","","","","","","","","","","","","","","","","","","","","","","","","","","","","","","","","","","","","","","",""
"-1","","","rdk","68","2.0.0","359451","black","0","B_H_vs_W_L_rep13","false","ALL_KEYS","[""a""]","2000","[]","false","2","[100,100]","1","[164,234]","1","0","2","1","-1","1","300","300","[""black"",""white""]","circle","#AAA","3","2","2","16.825","[8,16,17,17,17,16,17,17,17,17,17,17,17,16,17,17,17,17,17,17,17,17,17,17,17,17,17,17,17,17,17,17,17,17,17,17,17,17,17,17,17,17,16,17,17,17,17,17,16,17,17,17,17,16,18,17,17,17,17,17,17,17,17,16,17,17,17,17,17,17,16,17,16,17,17,17,17,16,17,17,17,17,17,17,16,17,17,17,17,17,17,17,17,16,18,17,17,17,17,17,17,17,16,17,17,17,17,17,16,17,17,17,17,17,17,17,17,17,17,17]","120","735","461.5","true","15","15","#111","1","true","2","transparent","1470","923","164","234","","","","","",""
"4176","
        <div class=""response-container"">
          <div class=""response-instruction"">
            <p>rotate the bar by using the left and right arrow keys.</p>
            <p>when you are determined, press the Enter key.</p>
          </div>
          <div class=""response-circle"">
            <div class=""response-fixation""></div>
            <div id=""bar"" class=""rotating-bar""></div>
          </div>
        </div>
      ","Enter","html-keyboard-response","69","2.1.0","363628","black","","","","","","","","","","","","","","","","","","","","","","","","","","","","","","","","","","","","","","","","","","164","","-76","166","2","9","59",""
"null","
          <p style=""color: #00FF00;"">Your reward: 9 points</p>
        ","null","html-keyboard-response","70","2.1.0","365631","","","","","","","","","","","","","","","","","","","","","","","","","","","","","","","","","","","","","","","","","","","","","","","","","",""
"null","<div class=""fixation"" style=""font-size: 60px;"">+</div>","null","html-keyboard-response","71","2.1.0","366634","","","","","","","","","","","","","","","","","","","","","","","","","","","","","","","","","","","","","","","","","","","","","","","","","",""
"-1","","","rdk","72","2.0.0","368638","white","1","W_H_vs_B_L_rep1","false","ALL_KEYS","[""a""]","2000","[]","false","2","[100,100]","1","[352,74]","1","0","2","1","-1","1","300","300","[""black"",""white""]","circle","#AAA","3","2","2","16.974789915966387","[21,17,17,17,17,17,17,17,17,17,17,17,17,17,17,17,17,17,17,17,17,17,17,17,17,17,17,17,17,17,16,17,17,17,17,17,16,17,17,17,17,17,17,17,17,17,17,17,17,17,16,17,17,17,17,17,17,17,17,17,17,16,18,17,17,17,17,17,17,17,17,17,17,17,17,17,17,17,16,17,17,17,16,18,17,17,17,17,17,17,16,17,17,17,17,17,16,17,17,17,17,17,17,17,17,17,17,17,17,17,17,17,17,16,17,17,17,17,17]","119","735","461.5","true","15","15","#111","1","true","2","transparent","1470","923","74","352","","","","","",""
"4569","
        <div class=""response-container"">
          <div class=""response-instruction"">
            <p>rotate the bar by using the left and right arrow keys.</p>
            <p>when you are determined, press the Enter key.</p>
          </div>
          <div class=""response-circle"">
            <div class=""response-fixation""></div>
            <div id=""bar"" class=""rotating-bar""></div>
          </div>
        </div>
      ","Enter","html-keyboard-response","73","2.1.0","373208","white","","","","","","","","","","","","","","","","","","","","","","","","","","","","","","","","","","","","","","","","","","74","","12","78","4","9","59",""
"null","
          <p style=""color: #00FF00;"">Your reward: 9 points</p>
        ","null","html-keyboard-response","74","2.1.0","375211","","","","","","","","","","","","","","","","","","","","","","","","","","","","","","","","","","","","","","","","","","","","","","","","","",""
"null","<div class=""fixation"" style=""font-size: 60px;"">+</div>","null","html-keyboard-response","75","2.1.0","376214","","","","","","","","","","","","","","","","","","","","","","","","","","","","","","","","","","","","","","","","","","","","","","","","","",""
"-1","","","rdk","76","2.0.0","378217","black","0","B_H_vs_W_L_rep16","false","ALL_KEYS","[""a""]","2000","[]","false","2","[100,100]","1","[180,244]","1","0","2","1","-1","1","300","300","[""black"",""white""]","circle","#AAA","3","2","2","16.974789915966387","[24,17,17,17,17,17,17,17,17,17,17,17,17,17,17,17,17,17,17,16,17,17,17,17,17,17,17,17,17,17,17,17,17,17,17,17,17,16,17,17,17,17,17,17,17,16,17,17,17,17,17,17,17,17,17,16,17,17,17,17,17,16,17,17,17,17,17,17,17,17,16,17,17,17,17,17,17,17,17,16,17,16,18,17,17,16,17,17,17,17,17,17,17,17,17,17,17,17,17,17,17,17,17,16,17,17,17,17,17,17,17,17,16,17,17,17,17,17,17]","119","735","461.5","true","15","15","#111","1","true","2","transparent","1470","923","180","244","","","","","",""
"2332","
        <div class=""response-container"">
          <div class=""response-instruction"">
            <p>rotate the bar by using the left and right arrow keys.</p>
            <p>when you are determined, press the Enter key.</p>
          </div>
          <div class=""response-circle"">
            <div class=""response-fixation""></div>
            <div id=""bar"" class=""rotating-bar""></div>
          </div>
        </div>
      ","Enter","html-keyboard-response","77","2.1.0","380550","black","","","","","","","","","","","","","","","","","","","","","","","","","","","","","","","","","","","","","","","","","","180","","284","166","-14","6","59",""
"null","
          <p style=""color: #00FF00;"">Your reward: 6 points</p>
        ","null","html-keyboard-response","78","2.1.0","382553","","","","","","","","","","","","","","","","","","","","","","","","","","","","","","","","","","","","","","","","","","","","","","","","","",""
"null","<div class=""fixation"" style=""font-size: 60px;"">+</div>","null","html-keyboard-response","79","2.1.0","383555","","","","","","","","","","","","","","","","","","","","","","","","","","","","","","","","","","","","","","","","","","","","","","","","","",""
"-1","","","rdk","80","2.0.0","385558","white","1","W_H_vs_B_L_rep8","false","ALL_KEYS","[""a""]","2000","[]","false","2","[100,100]","1","[349,58]","1","0","2","1","-1","1","300","300","[""black"",""white""]","circle","#AAA","3","2","2","16.908333333333335","[16,17,17,16,17,17,17,16,18,17,17,17,17,17,17,17,17,17,17,17,17,17,17,17,17,17,16,18,17,17,17,17,17,17,16,16,17,17,17,17,17,16,17,16,18,17,16,18,17,17,17,17,17,17,17,17,16,18,17,17,17,17,17,17,17,16,17,16,16,18,17,17,16,18,17,17,17,16,17,18,16,17,17,17,17,17,17,17,17,17,16,18,17,16,16,17,16,18,16,18,17,17,17,17,17,17,17,17,17,17,16,18,17,17,17,17,17,17,17,16]","120","735","461.5","true","15","15","#111","1","true","2","transparent","1470","923","58","349","","","","","",""
"4215","
        <div class=""response-container"">
          <div class=""response-instruction"">
            <p>rotate the bar by using the left and right arrow keys.</p>
            <p>when you are determined, press the Enter key.</p>
          </div>
          <div class=""response-circle"">
            <div class=""response-fixation""></div>
            <div id=""bar"" class=""rotating-bar""></div>
          </div>
        </div>
      ","Enter","html-keyboard-response","81","2.1.0","389775","white","","","","","","","","","","","","","","","","","","","","","","","","","","","","","","","","","","","","","","","","","","58","","104","346","-3","0","59",""
"null","
          <p style=""color: #FF3333;"">Your reward: 0 points</p>
        ","null","html-keyboard-response","82","2.1.0","391777","","","","","","","","","","","","","","","","","","","","","","","","","","","","","","","","","","","","","","","","","","","","","","","","","",""
"null","<div class=""fixation"" style=""font-size: 60px;"">+</div>","null","html-keyboard-response","83","2.1.0","392780","","","","","","","","","","","","","","","","","","","","","","","","","","","","","","","","","","","","","","","","","","","","","","","","","",""
"-1","","","rdk","84","2.0.0","394783","black","1","B_H_vs_W_L_rep9","false","ALL_KEYS","[""a""]","2000","[]","false","2","[100,100]","1","[235,176]","1","0","2","1","-1","1","300","300","[""white"",""black""]","circle","#AAA","3","2","2","16.858333333333334","[8,17,17,17,17,17,17,17,17,17,17,17,17,17,17,17,17,17,17,17,17,17,16,17,17,17,17,17,16,17,17,17,17,17,17,17,17,17,17,17,17,17,16,17,17,17,17,17,17,17,17,16,18,17,16,17,16,17,16,18,17,17,16,17,17,17,17,17,17,17,17,17,17,17,17,17,17,16,18,17,17,17,16,18,17,17,17,17,16,17,17,17,17,17,17,17,17,17,17,17,17,17,17,17,17,17,16,17,17,16,18,17,17,17,17,17,17,17,17,17]","120","735","461.5","true","15","15","#111","1","true","2","transparent","1470","923","176","235","","","","","",""
"3620","
        <div class=""response-container"">
          <div class=""response-instruction"">
            <p>rotate the bar by using the left and right arrow keys.</p>
            <p>when you are determined, press the Enter key.</p>
          </div>
          <div class=""response-circle"">
            <div class=""response-fixation""></div>
            <div id=""bar"" class=""rotating-bar""></div>
          </div>
        </div>
      ","Enter","html-keyboard-response","85","2.1.0","398404","black","","","","","","","","","","","","","","","","","","","","","","","","","","","","","","","","","","","","","","","","","","176","","189","261","26","0","59",""
"null","
          <p style=""color: #FF3333;"">Your reward: 0 points</p>
        ","null","html-keyboard-response","86","2.1.0","400407","","","","","","","","","","","","","","","","","","","","","","","","","","","","","","","","","","","","","","","","","","","","","","","","","",""
"null","<div class=""fixation"" style=""font-size: 60px;"">+</div>","null","html-keyboard-response","87","2.1.0","401410","","","","","","","","","","","","","","","","","","","","","","","","","","","","","","","","","","","","","","","","","","","","","","","","","",""
"-1","","","rdk","88","2.0.0","403414","black","1","B_H_vs_W_L_rep11","false","ALL_KEYS","[""a""]","2000","[]","false","2","[100,100]","1","[265,184]","1","0","2","1","-1","1","300","300","[""white"",""black""]","circle","#AAA","3","2","2","16.858333333333334","[9,17,17,17,17,16,17,17,17,17,17,17,17,17,17,17,17,17,17,17,17,16,17,17,17,17,17,17,17,17,17,17,17,17,17,16,17,17,17,17,17,17,17,17,17,17,17,17,17,17,16,17,17,17,17,16,17,17,16,18,17,17,17,17,17,17,17,16,17,17,17,17,17,17,17,17,17,17,17,17,17,17,17,17,17,17,17,17,17,17,17,17,17,16,17,17,16,17,17,17,17,17,17,17,17,17,17,17,17,17,16,17,17,17,17,17,17,17,17,17]","120","735","461.5","true","15","15","#111","1","true","2","transparent","1470","923","184","265","","","","","",""
"3412","
        <div class=""response-container"">
          <div class=""response-instruction"">
            <p>rotate the bar by using the left and right arrow keys.</p>
            <p>when you are determined, press the Enter key.</p>
          </div>
          <div class=""response-circle"">
            <div class=""response-fixation""></div>
            <div id=""bar"" class=""rotating-bar""></div>
          </div>
        </div>
      ","Enter","html-keyboard-response","89","2.1.0","406827","black","","","","","","","","","","","","","","","","","","","","","","","","","","","","","","","","","","","","","","","","","","184","","277","173","-11","7","59",""
"null","
          <p style=""color: #00FF00;"">Your reward: 7 points</p>
        ","null","html-keyboard-response","90","2.1.0","408830","","","","","","","","","","","","","","","","","","","","","","","","","","","","","","","","","","","","","","","","","","","","","","","","","",""
"null","<div class=""fixation"" style=""font-size: 60px;"">+</div>","null","html-keyboard-response","91","2.1.0","409832","","","","","","","","","","","","","","","","","","","","","","","","","","","","","","","","","","","","","","","","","","","","","","","","","",""
"-1","","","rdk","92","2.0.0","411836","white","1","W_H_vs_B_L_rep16","false","ALL_KEYS","[""a""]","2000","[]","false","2","[100,100]","1","[349,64]","1","0","2","1","-1","1","300","300","[""black"",""white""]","circle","#AAA","3","2","2","16.941176470588236","[21,18,17,17,17,17,17,16,17,17,17,15,18,17,17,17,17,17,16,17,17,17,17,17,16,17,17,17,17,17,17,17,17,17,17,17,17,17,17,16,17,17,16,17,16,16,18,17,17,17,17,17,17,17,17,16,17,17,17,16,18,17,17,17,17,17,16,18,17,17,17,17,16,18,17,17,17,17,16,17,17,17,17,17,16,18,17,16,17,17,17,17,17,17,17,16,17,17,17,17,17,17,17,17,17,17,17,17,17,17,16,17,17,17,17,17,17,17,17]","119","735","461.5","true","15","15","#111","1","true","2","transparent","1470","923","64","349","","","","","",""
"2727","
        <div class=""response-container"">
          <div class=""response-instruction"">
            <p>rotate the bar by using the left and right arrow keys.</p>
            <p>when you are determined, press the Enter key.</p>
          </div>
          <div class=""response-circle"">
            <div class=""response-fixation""></div>
            <div id=""bar"" class=""rotating-bar""></div>
          </div>
        </div>
      ","Enter","html-keyboard-response","93","2.1.0","414565","white","","","","","","","","","","","","","","","","","","","","","","","","","","","","","","","","","","","","","","","","","","64","","20","70","6","8","59",""
"null","
          <p style=""color: #00FF00;"">Your reward: 8 points</p>
        ","null","html-keyboard-response","94","2.1.0","416566","","","","","","","","","","","","","","","","","","","","","","","","","","","","","","","","","","","","","","","","","","","","","","","","","",""
"null","<div class=""fixation"" style=""font-size: 60px;"">+</div>","null","html-keyboard-response","95","2.1.0","417569","","","","","","","","","","","","","","","","","","","","","","","","","","","","","","","","","","","","","","","","","","","","","","","","","",""
"-1","","","rdk","96","2.0.0","419573","white","0","W_H_vs_B_L_rep12","false","ALL_KEYS","[""a""]","2000","[]","false","2","[100,100]","1","[61,335]","1","0","2","1","-1","1","300","300","[""white"",""black""]","circle","#AAA","3","2","2","16.92436974789916","[19,17,17,17,17,17,17,17,17,17,17,17,17,17,17,16,18,17,17,17,17,17,17,17,17,17,17,17,16,17,17,17,17,17,16,16,18,16,17,17,16,17,17,17,17,17,17,17,17,17,16,17,17,17,17,17,17,17,17,16,17,17,17,17,17,16,18,16,18,17,17,17,17,17,17,17,17,17,17,17,17,17,17,16,17,17,17,17,17,17,17,17,16,17,16,17,17,17,17,17,17,17,17,16,17,17,17,17,17,17,17,17,17,17,17,17,17,17,16]","119","735","461.5","true","15","15","#111","1","true","2","transparent","1470","923","61","335","","","","","",""
"5009","
        <div class=""response-container"">
          <div class=""response-instruction"">
            <p>rotate the bar by using the left and right arrow keys.</p>
            <p>when you are determined, press the Enter key.</p>
          </div>
          <div class=""response-circle"">
            <div class=""response-fixation""></div>
            <div id=""bar"" class=""rotating-bar""></div>
          </div>
        </div>
      ","Enter","html-keyboard-response","97","2.1.0","424583","white","","","","","","","","","","","","","","","","","","","","","","","","","","","","","","","","","","","","","","","","","","61","","85","5","30","0","59",""
"null","
          <p style=""color: #FF3333;"">Your reward: 0 points</p>
        ","null","html-keyboard-response","98","2.1.0","426586","","","","","","","","","","","","","","","","","","","","","","","","","","","","","","","","","","","","","","","","","","","","","","","","","",""
"null","<div class=""fixation"" style=""font-size: 60px;"">+</div>","null","html-keyboard-response","99","2.1.0","427589","","","","","","","","","","","","","","","","","","","","","","","","","","","","","","","","","","","","","","","","","","","","","","","","","",""
"-1","","","rdk","100","2.0.0","429592","white","0","W_H_vs_B_L_rep2","false","ALL_KEYS","[""a""]","2000","[]","false","2","[100,100]","1","[59,2]","1","0","2","1","-1","1","300","300","[""white"",""black""]","circle","#AAA","3","2","2","16.941666666666666","[15,17,17,17,17,17,17,17,17,17,17,17,17,17,17,17,17,17,17,17,17,17,17,17,17,17,17,17,17,17,17,17,17,16,17,17,17,17,17,16,17,17,17,17,17,17,17,17,17,17,17,17,17,17,17,17,17,16,17,17,17,17,17,17,16,17,17,17,17,17,17,17,17,17,17,17,17,17,17,17,17,17,17,17,17,17,17,17,17,17,17,17,17,17,17,17,17,17,17,17,17,17,17,17,17,17,17,17,17,17,17,17,17,17,16,18,17,16,17,17]","120","735","461.5","true","15","15","#111","1","true","2","transparent","1470","923","59","2","","","","","",""
"2761","
        <div class=""response-container"">
          <div class=""response-instruction"">
            <p>rotate the bar by using the left and right arrow keys.</p>
            <p>when you are determined, press the Enter key.</p>
          </div>
          <div class=""response-circle"">
            <div class=""response-fixation""></div>
            <div id=""bar"" class=""rotating-bar""></div>
          </div>
        </div>
      ","Enter","html-keyboard-response","101","2.1.0","432354","white","","","","","","","","","","","","","","","","","","","","","","","","","","","","","","","","","","","","","","","","","","59","","13","77","18","6","59",""
"null","
          <p style=""color: #00FF00;"">Your reward: 6 points</p>
        ","null","html-keyboard-response","102","2.1.0","434357","","","","","","","","","","","","","","","","","","","","","","","","","","","","","","","","","","","","","","","","","","","","","","","","","",""
"null","<div class=""fixation"" style=""font-size: 60px;"">+</div>","null","html-keyboard-response","103","2.1.0","435360","","","","","","","","","","","","","","","","","","","","","","","","","","","","","","","","","","","","","","","","","","","","","","","","","",""
"-1","","","rdk","104","2.0.0","437363","black","1","B_H_vs_W_L_rep5","false","ALL_KEYS","[""a""]","2000","[]","false","2","[100,100]","1","[235,178]","1","0","2","1","-1","1","300","300","[""white"",""black""]","circle","#AAA","3","2","2","16.891666666666666","[11,17,17,17,17,17,17,17,17,17,17,16,17,17,17,17,17,17,16,17,17,17,17,17,17,16,17,17,17,17,17,17,17,17,17,17,17,16,17,17,17,17,17,17,17,17,17,17,17,17,17,17,17,16,17,17,17,17,17,17,17,17,17,17,17,17,16,18,17,17,17,16,17,17,17,17,17,17,17,17,17,17,17,17,17,17,17,17,17,17,17,17,17,17,17,17,17,17,17,17,17,17,17,17,17,17,17,17,17,17,17,17,17,16,17,17,17,17,17,17]","120","735","461.5","true","15","15","#111","1","true","2","transparent","1470","923","178","235","","","","","",""
"2119","
        <div class=""response-container"">
          <div class=""response-instruction"">
            <p>rotate the bar by using the left and right arrow keys.</p>
            <p>when you are determined, press the Enter key.</p>
          </div>
          <div class=""response-circle"">
            <div class=""response-fixation""></div>
            <div id=""bar"" class=""rotating-bar""></div>
          </div>
        </div>
      ","Enter","html-keyboard-response","105","2.1.0","439483","black","","","","","","","","","","","","","","","","","","","","","","","","","","","","","","","","","","","","","","","","","","178","","281","169","-9","8","59",""
"null","
          <p style=""color: #00FF00;"">Your reward: 8 points</p>
        ","null","html-keyboard-response","106","2.1.0","441485","","","","","","","","","","","","","","","","","","","","","","","","","","","","","","","","","","","","","","","","","","","","","","","","","",""
"null","<div class=""fixation"" style=""font-size: 60px;"">+</div>","null","html-keyboard-response","107","2.1.0","442487","","","","","","","","","","","","","","","","","","","","","","","","","","","","","","","","","","","","","","","","","","","","","","","","","",""
"-1","","","rdk","108","2.0.0","444490","black","0","B_H_vs_W_L_rep6","false","ALL_KEYS","[""a""]","2000","[]","false","2","[100,100]","1","[168,238]","1","0","2","1","-1","1","300","300","[""black"",""white""]","circle","#AAA","3","2","2","16.933333333333334","[15,16,17,17,17,17,17,17,17,16,17,17,17,17,16,17,17,17,17,17,17,17,17,17,17,17,17,17,17,17,17,17,17,17,17,17,17,17,17,16,17,17,17,17,16,17,17,17,17,17,17,17,17,17,17,17,17,17,17,17,17,17,17,17,17,17,17,17,17,17,17,17,17,17,17,17,17,17,17,17,17,17,17,17,17,17,17,17,17,17,17,17,17,17,17,17,17,17,17,16,17,17,17,17,17,17,17,17,17,17,17,17,17,17,17,17,16,18,17,17]","120","735","461.5","true","15","15","#111","1","true","2","transparent","1470","923","168","238","","","","","",""
"5028","
        <div class=""response-container"">
          <div class=""response-instruction"">
            <p>rotate the bar by using the left and right arrow keys.</p>
            <p>when you are determined, press the Enter key.</p>
          </div>
          <div class=""response-circle"">
            <div class=""response-fixation""></div>
            <div id=""bar"" class=""rotating-bar""></div>
          </div>
        </div>
      ","Enter","html-keyboard-response","109","2.1.0","449519","black","","","","","","","","","","","","","","","","","","","","","","","","","","","","","","","","","","","","","","","","","","168","","-79","169","1","9","59",""
"null","
          <p style=""color: #00FF00;"">Your reward: 9 points</p>
        ","null","html-keyboard-response","110","2.1.0","451522","","","","","","","","","","","","","","","","","","","","","","","","","","","","","","","","","","","","","","","","","","","","","","","","","",""
"null","<div class=""fixation"" style=""font-size: 60px;"">+</div>","null","html-keyboard-response","111","2.1.0","452524","","","","","","","","","","","","","","","","","","","","","","","","","","","","","","","","","","","","","","","","","","","","","","","","","",""
"-1","","","rdk","112","2.0.0","454528","black","0","B_H_vs_W_L_rep15","false","ALL_KEYS","[""a""]","2000","[]","false","2","[100,100]","1","[186,262]","1","0","2","1","-1","1","300","300","[""black"",""white""]","circle","#AAA","3","2","2","16.908333333333335","[12,17,17,17,17,17,17,17,16,17,17,17,17,17,17,17,17,16,17,17,17,17,17,17,17,17,17,17,17,17,17,17,17,17,17,17,17,17,17,16,18,16,18,16,17,17,17,17,17,16,18,17,17,17,17,17,17,17,17,17,17,16,17,17,17,17,17,17,17,17,17,17,17,17,17,17,17,17,17,17,17,17,17,17,17,17,17,17,17,17,17,17,17,17,17,17,17,16,17,17,17,17,16,17,17,17,17,17,16,18,17,17,17,17,17,17,17,17,17,17]","120","735","461.5","true","15","15","#111","1","true","2","transparent","1470","923","186","262","","","","","",""
"2945","
        <div class=""response-container"">
          <div class=""response-instruction"">
            <p>rotate the bar by using the left and right arrow keys.</p>
            <p>when you are determined, press the Enter key.</p>
          </div>
          <div class=""response-circle"">
            <div class=""response-fixation""></div>
            <div id=""bar"" class=""rotating-bar""></div>
          </div>
        </div>
      ","Enter","html-keyboard-response","113","2.1.0","457473","black","","","","","","","","","","","","","","","","","","","","","","","","","","","","","","","","","","","","","","","","","","186","","181","269","7","0","59",""
"null","
          <p style=""color: #FF3333;"">Your reward: 0 points</p>
        ","null","html-keyboard-response","114","2.1.0","459476","","","","","","","","","","","","","","","","","","","","","","","","","","","","","","","","","","","","","","","","","","","","","","","","","",""
"null","<div class=""fixation"" style=""font-size: 60px;"">+</div>","null","html-keyboard-response","115","2.1.0","460478","","","","","","","","","","","","","","","","","","","","","","","","","","","","","","","","","","","","","","","","","","","","","","","","","",""
"-1","","","rdk","116","2.0.0","462482","white","1","W_H_vs_B_L_rep4","false","ALL_KEYS","[""a""]","2000","[]","false","2","[100,100]","1","[1,61]","1","0","2","1","-1","1","300","300","[""black"",""white""]","circle","#AAA","3","2","2","16.85","[8,17,17,17,16,17,17,17,17,17,17,17,17,17,17,17,17,17,16,18,17,17,17,17,17,17,17,17,17,17,17,17,17,17,17,17,17,17,17,16,17,17,17,17,17,17,16,17,17,17,16,18,17,17,17,17,17,17,17,17,17,17,17,17,16,18,16,17,17,17,17,16,17,17,17,17,17,17,16,18,17,17,17,17,17,17,17,17,17,17,17,16,16,18,17,17,17,17,17,17,16,17,17,17,17,17,16,17,17,17,17,17,17,17,17,17,17,16,17,17]","120","735","461.5","true","15","15","#111","1","true","2","transparent","1470","923","61","1","","","","","",""
"2773","
        <div class=""response-container"">
          <div class=""response-instruction"">
            <p>rotate the bar by using the left and right arrow keys.</p>
            <p>when you are determined, press the Enter key.</p>
          </div>
          <div class=""response-circle"">
            <div class=""response-fixation""></div>
            <div id=""bar"" class=""rotating-bar""></div>
          </div>
        </div>
      ","Enter","html-keyboard-response","117","2.1.0","465257","white","","","","","","","","","","","","","","","","","","","","","","","","","","","","","","","","","","","","","","","","","","61","","371","79","18","6","59",""
"null","
          <p style=""color: #00FF00;"">Your reward: 6 points</p>
        ","null","html-keyboard-response","118","2.1.0","467259","","","","","","","","","","","","","","","","","","","","","","","","","","","","","","","","","","","","","","","","","","","","","","","","","",""
"null","<div class=""fixation"" style=""font-size: 60px;"">+</div>","null","html-keyboard-response","119","2.1.0","468262","","","","","","","","","","","","","","","","","","","","","","","","","","","","","","","","","","","","","","","","","","","","","","","","","",""
"-1","","","rdk","120","2.0.0","470266","white","0","W_H_vs_B_L_rep15","false","ALL_KEYS","[""a""]","2000","[]","false","2","[100,100]","1","[62,347]","1","0","2","1","-1","1","300","300","[""white"",""black""]","circle","#AAA","3","2","2","16.825","[8,17,17,17,17,17,17,17,17,17,17,17,17,17,17,16,17,16,17,17,17,17,16,17,17,17,17,17,17,17,17,17,17,17,17,17,17,17,16,17,17,16,17,17,17,17,17,16,17,17,17,17,17,16,17,17,17,17,17,17,17,17,17,17,17,17,17,17,17,17,17,17,17,17,17,17,17,16,17,17,17,17,17,17,17,17,17,17,17,17,17,16,17,17,17,17,16,17,17,17,17,17,17,17,17,17,17,17,16,17,17,17,17,17,17,16,17,17,17,17]","120","735","461.5","true","15","15","#111","1","true","2","transparent","1470","923","62","347","","","","","",""
"4835","
        <div class=""response-container"">
          <div class=""response-instruction"">
            <p>rotate the bar by using the left and right arrow keys.</p>
            <p>when you are determined, press the Enter key.</p>
          </div>
          <div class=""response-circle"">
            <div class=""response-fixation""></div>
            <div id=""bar"" class=""rotating-bar""></div>
          </div>
        </div>
      ","Enter","html-keyboard-response","121","2.1.0","475102","white","","","","","","","","","","","","","","","","","","","","","","","","","","","","","","","","","","","","","","","","","","62","","367","83","21","5","59",""
"null","
          <p style=""color: #00FF00;"">Your reward: 5 points</p>
        ","null","html-keyboard-response","122","2.1.0","477105","","","","","","","","","","","","","","","","","","","","","","","","","","","","","","","","","","","","","","","","","","","","","","","","","",""
"null","<div class=""fixation"" style=""font-size: 60px;"">+</div>","null","html-keyboard-response","123","2.1.0","478107","","","","","","","","","","","","","","","","","","","","","","","","","","","","","","","","","","","","","","","","","","","","","","","","","",""
"-1","","","rdk","124","2.0.0","480110","white","0","W_H_vs_B_L_rep11","false","ALL_KEYS","[""a""]","2000","[]","false","2","[100,100]","1","[61,344]","1","0","2","1","-1","1","300","300","[""white"",""black""]","circle","#AAA","3","2","2","16.875","[12,16,17,17,17,17,17,17,16,17,17,17,17,17,17,16,17,17,17,17,17,17,17,17,17,17,16,18,17,17,17,17,17,17,16,18,17,17,17,17,16,17,17,17,17,17,17,17,17,16,17,17,17,17,17,17,17,17,17,16,17,17,17,17,17,17,17,17,16,17,17,17,17,17,17,16,17,17,17,17,17,17,17,17,17,16,17,17,17,17,17,17,17,17,17,17,17,17,17,17,17,17,17,16,17,17,17,17,17,17,17,17,17,17,17,17,17,17,17,17]","120","735","461.5","true","15","15","#111","1","true","2","transparent","1470","923","61","344","","","","","",""
"2645","
        <div class=""response-container"">
          <div class=""response-instruction"">
            <p>rotate the bar by using the left and right arrow keys.</p>
            <p>when you are determined, press the Enter key.</p>
          </div>
          <div class=""response-circle"">
            <div class=""response-fixation""></div>
            <div id=""bar"" class=""rotating-bar""></div>
          </div>
        </div>
      ","Enter","html-keyboard-response","125","2.1.0","482757","white","","","","","","","","","","","","","","","","","","","","","","","","","","","","","","","","","","","","","","","","","","61","","372","78","17","6","59",""
"null","
          <p style=""color: #00FF00;"">Your reward: 6 points</p>
        ","null","html-keyboard-response","126","2.1.0","484759","","","","","","","","","","","","","","","","","","","","","","","","","","","","","","","","","","","","","","","","","","","","","","","","","",""
"null","<div class=""fixation"" style=""font-size: 60px;"">+</div>","null","html-keyboard-response","127","2.1.0","485762","","","","","","","","","","","","","","","","","","","","","","","","","","","","","","","","","","","","","","","","","","","","","","","","","",""
"-1","","","rdk","128","2.0.0","487767","black","1","B_H_vs_W_L_rep4","false","ALL_KEYS","[""a""]","2000","[]","false","2","[100,100]","1","[241,163]","1","0","2","1","-1","1","300","300","[""white"",""black""]","circle","#AAA","3","2","2","16.983193277310924","[23,17,17,17,16,17,17,17,17,17,17,17,17,17,16,17,17,17,17,17,17,17,16,17,17,17,17,17,17,17,17,17,17,17,17,17,17,17,17,17,17,17,17,17,17,17,17,17,17,17,17,17,17,17,16,17,17,17,17,17,17,17,17,17,17,17,17,17,16,17,17,17,17,17,17,17,17,17,17,17,17,16,17,17,17,17,17,17,16,17,17,17,17,17,17,17,17,17,17,17,17,17,17,17,17,17,16,17,17,17,17,17,17,17,17,17,17,17,17]","119","735","461.5","true","15","15","#111","1","true","2","transparent","1470","923","163","241","","","","","",""
"4976","
        <div class=""response-container"">
          <div class=""response-instruction"">
            <p>rotate the bar by using the left and right arrow keys.</p>
            <p>when you are determined, press the Enter key.</p>
          </div>
          <div class=""response-circle"">
            <div class=""response-fixation""></div>
            <div id=""bar"" class=""rotating-bar""></div>
          </div>
        </div>
      ","Enter","html-keyboard-response","129","2.1.0","492744","black","","","","","","","","","","","","","","","","","","","","","","","","","","","","","","","","","","","","","","","","","","163","","276","174","11","7","59",""
"null","
          <p style=""color: #00FF00;"">Your reward: 7 points</p>
        ","null","html-keyboard-response","130","2.1.0","494746","","","","","","","","","","","","","","","","","","","","","","","","","","","","","","","","","","","","","","","","","","","","","","","","","",""
"null","<div class=""fixation"" style=""font-size: 60px;"">+</div>","null","html-keyboard-response","131","2.1.0","495749","","","","","","","","","","","","","","","","","","","","","","","","","","","","","","","","","","","","","","","","","","","","","","","","","",""
"-1","","","rdk","132","2.0.0","497752","black","0","B_H_vs_W_L_rep12","false","ALL_KEYS","[""a""]","2000","[]","false","2","[100,100]","1","[183,269]","1","0","2","1","-1","1","300","300","[""black"",""white""]","circle","#AAA","3","2","2","16.95798319327731","[20,17,17,17,17,17,17,17,17,17,17,17,17,17,16,17,17,17,16,18,17,17,17,16,17,17,17,17,17,16,17,17,17,17,17,17,17,17,17,17,17,17,17,17,17,17,17,16,18,17,16,17,17,17,17,16,17,17,17,16,17,17,17,16,17,17,17,17,17,17,17,17,17,17,17,17,17,17,17,17,17,17,17,16,17,17,17,17,17,17,17,17,17,17,17,17,17,17,17,17,17,17,17,17,17,17,17,17,17,17,17,17,17,17,17,17,17,17,17]","119","735","461.5","true","15","15","#111","1","true","2","transparent","1470","923","183","269","","","","","",""
"3925","
        <div class=""response-container"">
          <div class=""response-instruction"">
            <p>rotate the bar by using the left and right arrow keys.</p>
            <p>when you are determined, press the Enter key.</p>
          </div>
          <div class=""response-circle"">
            <div class=""response-fixation""></div>
            <div id=""bar"" class=""rotating-bar""></div>
          </div>
        </div>
      ","Enter","html-keyboard-response","133","2.1.0","501679","black","","","","","","","","","","","","","","","","","","","","","","","","","","","","","","","","","","","","","","","","","","183","","282","168","-15","6","59",""
"null","
          <p style=""color: #00FF00;"">Your reward: 6 points</p>
        ","null","html-keyboard-response","134","2.1.0","503681","","","","","","","","","","","","","","","","","","","","","","","","","","","","","","","","","","","","","","","","","","","","","","","","","",""
"null","<div class=""fixation"" style=""font-size: 60px;"">+</div>","null","html-keyboard-response","135","2.1.0","504683","","","","","","","","","","","","","","","","","","","","","","","","","","","","","","","","","","","","","","","","","","","","","","","","","",""
"-1","","","rdk","136","2.0.0","506687","black","0","B_H_vs_W_L_rep14","false","ALL_KEYS","[""a""]","2000","[]","false","2","[100,100]","1","[185,248]","1","0","2","1","-1","1","300","300","[""black"",""white""]","circle","#AAA","3","2","2","16.92436974789916","[20,17,17,16,17,17,17,17,17,17,17,17,17,17,17,17,17,16,17,17,17,17,16,17,17,16,17,16,17,17,17,17,17,16,17,17,17,17,17,17,17,17,17,17,17,17,17,17,17,17,17,16,17,17,17,17,17,17,17,17,17,17,17,17,17,17,17,17,17,17,17,17,17,17,17,17,17,17,17,17,17,17,17,17,17,17,17,16,17,17,17,17,16,17,17,17,17,17,17,17,17,17,17,16,17,16,17,17,17,17,17,16,17,17,17,17,17,17,17]","119","735","461.5","true","15","15","#111","1","true","2","transparent","1470","923","185","248","","","","","",""
"3741","
        <div class=""response-container"">
          <div class=""response-instruction"">
            <p>rotate the bar by using the left and right arrow keys.</p>
            <p>when you are determined, press the Enter key.</p>
          </div>
          <div class=""response-circle"">
            <div class=""response-fixation""></div>
            <div id=""bar"" class=""rotating-bar""></div>
          </div>
        </div>
      ","Enter","html-keyboard-response","137","2.1.0","510429","black","","","","","","","","","","","","","","","","","","","","","","","","","","","","","","","","","","","","","","","","","","185","","174","276","28","0","59",""
"null","
          <p style=""color: #FF3333;"">Your reward: 0 points</p>
        ","null","html-keyboard-response","138","2.1.0","512431","","","","","","","","","","","","","","","","","","","","","","","","","","","","","","","","","","","","","","","","","","","","","","","","","",""
"null","<div class=""fixation"" style=""font-size: 60px;"">+</div>","null","html-keyboard-response","139","2.1.0","513434","","","","","","","","","","","","","","","","","","","","","","","","","","","","","","","","","","","","","","","","","","","","","","","","","",""
"-1","","","rdk","140","2.0.0","515438","white","0","W_H_vs_B_L_rep3","false","ALL_KEYS","[""a""]","2000","[]","false","2","[100,100]","1","[60,355]","1","0","2","1","-1","1","300","300","[""white"",""black""]","circle","#AAA","3","2","2","16.88235294117647","[18,17,17,17,17,17,17,17,17,16,17,16,17,17,17,17,17,17,17,17,17,17,17,17,16,18,17,17,17,17,17,17,17,17,17,17,17,17,16,17,17,17,17,16,17,17,17,17,16,17,17,17,17,17,16,17,17,17,17,17,17,17,17,17,17,17,16,17,16,17,17,16,17,17,16,17,17,17,17,17,17,17,17,17,16,17,17,17,17,17,17,17,17,17,17,16,17,17,17,17,17,17,16,17,17,17,17,17,16,17,17,17,17,17,17,17,17,16,17]","119","735","461.5","true","15","15","#111","1","true","2","transparent","1470","923","60","355","","","","","",""
"2375","
        <div class=""response-container"">
          <div class=""response-instruction"">
            <p>rotate the bar by using the left and right arrow keys.</p>
            <p>when you are determined, press the Enter key.</p>
          </div>
          <div class=""response-circle"">
            <div class=""response-fixation""></div>
            <div id=""bar"" class=""rotating-bar""></div>
          </div>
        </div>
      ","Enter","html-keyboard-response","141","2.1.0","517815","white","","","","","","","","","","","","","","","","","","","","","","","","","","","","","","","","","","","","","","","","","","60","","54","36","-24","4","59",""
"null","
          <p style=""color: #00FF00;"">Your reward: 4 points</p>
        ","null","html-keyboard-response","142","2.1.0","519818","","","","","","","","","","","","","","","","","","","","","","","","","","","","","","","","","","","","","","","","","","","","","","","","","",""
"2822","","","html-keyboard-response","143","2.1.0","552644","","","","","","","","","","","","","","","","","","","","","","","","","","","","","","","","","","","","","","","","","","","","","","","","","","Enter"
"null","<div class=""fixation"" style=""font-size: 60px;"">+</div>","null","html-keyboard-response","144","2.1.0","553648","","","","","","","","","","","","","","","","","","","","","","","","","","","","","","","","","","","","","","","","","","","","","","","","","",""
"-1","","","rdk","145","2.0.0","555653","black","1","B_H_vs_W_L_rep16","false","ALL_KEYS","[""a""]","2000","[]","false","2","[100,100]","1","[178,103]","1","0","2","1","-1","1","300","300","[""white"",""black""]","circle","#AAA","3","2","2","16.873949579831933","[21,16,17,17,16,17,17,17,17,17,17,17,17,16,16,17,17,17,17,17,17,17,17,17,17,17,17,17,17,16,17,17,17,17,17,16,17,17,17,17,17,17,17,17,17,17,16,17,17,17,16,17,17,16,17,17,17,17,17,17,17,17,17,17,17,17,16,17,17,17,17,17,16,17,17,17,17,17,17,17,17,17,17,17,16,17,16,17,17,16,17,17,16,17,17,16,17,17,17,17,17,16,17,16,17,17,17,17,17,17,17,17,17,17,17,17,17,16,17]","119","735","461.5","true","15","15","#111","1","true","2","transparent","1470","923","103","178","","","","","",""
"3144","
        <div class=""response-container"">
          <div class=""response-instruction"">
            <p>rotate the bar by using the left and right arrow keys.</p>
            <p>when you are determined, press the Enter key.</p>
          </div>
          <div class=""response-circle"">
            <div class=""response-fixation""></div>
            <div id=""bar"" class=""rotating-bar""></div>
          </div>
        </div>
      ","Enter","html-keyboard-response","146","2.1.0","558798","black","","","","","","","","","","","","","","","","","","","","","","","","","","","","","","","","","","","","","","","","","","103","","4","86","-17","6","59",""
"null","
          <p style=""color: #00FF00;"">Your reward: 6 points</p>
        ","null","html-keyboard-response","147","2.1.0","560801","","","","","","","","","","","","","","","","","","","","","","","","","","","","","","","","","","","","","","","","","","","","","","","","","",""
"null","<div class=""fixation"" style=""font-size: 60px;"">+</div>","null","html-keyboard-response","148","2.1.0","561803","","","","","","","","","","","","","","","","","","","","","","","","","","","","","","","","","","","","","","","","","","","","","","","","","",""
"-1","","","rdk","149","2.0.0","563806","black","1","B_H_vs_W_L_rep5","false","ALL_KEYS","[""a""]","2000","[]","false","2","[100,100]","1","[168,92]","1","0","2","1","-1","1","300","300","[""white"",""black""]","circle","#AAA","3","2","2","16.95","[15,17,17,17,17,17,17,17,17,17,17,17,17,17,17,17,17,17,17,17,17,17,17,17,17,17,16,17,17,17,17,17,17,17,17,17,17,17,17,17,17,17,17,17,17,17,17,17,17,17,17,17,16,18,17,17,17,17,17,17,17,17,17,17,17,17,16,17,17,17,17,17,17,17,17,17,17,17,17,17,17,17,17,17,17,16,17,17,17,17,17,17,17,17,17,17,17,17,17,17,17,17,17,17,16,17,17,17,17,17,17,17,17,17,17,17,17,17,17,17]","120","735","461.5","true","15","15","#111","1","true","2","transparent","1470","923","92","168","","","","","",""
"4437","
        <div class=""response-container"">
          <div class=""response-instruction"">
            <p>rotate the bar by using the left and right arrow keys.</p>
            <p>when you are determined, press the Enter key.</p>
          </div>
          <div class=""response-circle"">
            <div class=""response-fixation""></div>
            <div id=""bar"" class=""rotating-bar""></div>
          </div>
        </div>
      ","Enter","html-keyboard-response","150","2.1.0","568244","black","","","","","","","","","","","","","","","","","","","","","","","","","","","","","","","","","","","","","","","","","","92","","3","87","-5","8","59",""
"null","
          <p style=""color: #00FF00;"">Your reward: 8 points</p>
        ","null","html-keyboard-response","151","2.1.0","570247","","","","","","","","","","","","","","","","","","","","","","","","","","","","","","","","","","","","","","","","","","","","","","","","","",""
"null","<div class=""fixation"" style=""font-size: 60px;"">+</div>","null","html-keyboard-response","152","2.1.0","571249","","","","","","","","","","","","","","","","","","","","","","","","","","","","","","","","","","","","","","","","","","","","","","","","","",""
"-1","","","rdk","153","2.0.0","573253","black","0","B_H_vs_W_L_rep6","false","ALL_KEYS","[""a""]","2000","[]","false","2","[100,100]","1","[79,159]","1","0","2","1","-1","1","300","300","[""black"",""white""]","circle","#AAA","3","2","2","16.949579831932773","[20,17,17,17,17,17,17,17,17,17,17,17,17,17,17,16,17,17,17,17,17,17,17,17,17,17,17,17,17,16,17,17,17,16,17,18,17,17,17,17,17,16,18,17,17,17,17,17,17,16,17,16,17,18,17,17,17,17,17,16,17,17,17,17,16,17,17,16,18,17,17,16,18,17,17,17,17,17,17,16,18,16,18,17,16,18,17,17,17,17,16,18,17,17,17,17,17,17,17,16,17,17,16,17,16,18,16,18,17,17,17,17,17,17,17,17,16,17,16]","119","735","461.5","true","15","15","#111","1","true","2","transparent","1470","923","79","159","","","","","",""
"3684","
        <div class=""response-container"">
          <div class=""response-instruction"">
            <p>rotate the bar by using the left and right arrow keys.</p>
            <p>when you are determined, press the Enter key.</p>
          </div>
          <div class=""response-circle"">
            <div class=""response-fixation""></div>
            <div id=""bar"" class=""rotating-bar""></div>
          </div>
        </div>
      ","Enter","html-keyboard-response","154","2.1.0","576938","black","","","","","","","","","","","","","","","","","","","","","","","","","","","","","","","","","","","","","","","","","","79","","273","177","18","0","59",""
"null","
          <p style=""color: #FF3333;"">Your reward: 0 points</p>
        ","null","html-keyboard-response","155","2.1.0","578940","","","","","","","","","","","","","","","","","","","","","","","","","","","","","","","","","","","","","","","","","","","","","","","","","",""
"null","<div class=""fixation"" style=""font-size: 60px;"">+</div>","null","html-keyboard-response","156","2.1.0","579942","","","","","","","","","","","","","","","","","","","","","","","","","","","","","","","","","","","","","","","","","","","","","","","","","",""
"-1","","","rdk","157","2.0.0","581947","black","0","B_H_vs_W_L_rep4","false","ALL_KEYS","[""a""]","2000","[]","false","2","[100,100]","1","[90,161]","1","0","2","1","-1","1","300","300","[""black"",""white""]","circle","#AAA","3","2","2","16.875","[8,17,17,17,17,17,17,17,17,17,17,17,17,17,17,16,18,17,16,17,17,17,17,16,18,17,17,16,17,17,17,17,17,17,17,17,16,17,17,17,17,17,17,16,17,17,17,17,17,17,17,17,17,17,17,17,17,17,17,17,17,17,17,17,17,17,17,17,17,17,17,17,17,17,17,17,16,18,16,17,17,17,17,17,17,17,17,17,17,17,17,17,17,17,17,17,17,17,17,17,17,17,17,16,18,17,17,17,17,17,17,17,17,17,17,17,17,16,17,17]","120","735","461.5","true","15","15","#111","1","true","2","transparent","1470","923","90","161","","","","","",""
"3711","
        <div class=""response-container"">
          <div class=""response-instruction"">
            <p>rotate the bar by using the left and right arrow keys.</p>
            <p>when you are determined, press the Enter key.</p>
          </div>
          <div class=""response-circle"">
            <div class=""response-fixation""></div>
            <div id=""bar"" class=""rotating-bar""></div>
          </div>
        </div>
      ","Enter","html-keyboard-response","158","2.1.0","585659","black","","","","","","","","","","","","","","","","","","","","","","","","","","","","","","","","","","","","","","","","","","90","","3","87","-3","9","59",""
"null","
          <p style=""color: #00FF00;"">Your reward: 9 points</p>
        ","null","html-keyboard-response","159","2.1.0","587662","","","","","","","","","","","","","","","","","","","","","","","","","","","","","","","","","","","","","","","","","","","","","","","","","",""
"null","<div class=""fixation"" style=""font-size: 60px;"">+</div>","null","html-keyboard-response","160","2.1.0","588664","","","","","","","","","","","","","","","","","","","","","","","","","","","","","","","","","","","","","","","","","","","","","","","","","",""
"-1","","","rdk","161","2.0.0","590668","white","0","W_H_vs_B_L_rep16","false","ALL_KEYS","[""a""]","2000","[]","false","2","[100,100]","1","[337,264]","1","0","2","1","-1","1","300","300","[""white"",""black""]","circle","#AAA","3","2","2","16.983193277310924","[19,18,17,17,17,17,17,17,17,16,17,17,17,17,17,17,17,17,17,17,17,17,17,17,17,17,17,17,17,17,17,17,17,17,16,17,17,17,17,17,17,17,17,17,17,17,17,17,17,17,17,17,16,17,17,17,17,17,17,17,17,17,17,17,17,17,17,17,17,17,16,18,17,17,17,17,17,16,18,17,17,16,18,17,17,17,17,17,16,17,17,17,17,17,16,17,17,17,16,18,17,17,17,17,17,17,17,17,17,17,17,17,17,17,17,17,17,17,17]","119","735","461.5","true","15","15","#111","1","true","2","transparent","1470","923","337","264","","","","","",""
"5140","
        <div class=""response-container"">
          <div class=""response-instruction"">
            <p>rotate the bar by using the left and right arrow keys.</p>
            <p>when you are determined, press the Enter key.</p>
          </div>
          <div class=""response-circle"">
            <div class=""response-fixation""></div>
            <div id=""bar"" class=""rotating-bar""></div>
          </div>
        </div>
      ","Enter","html-keyboard-response","162","2.1.0","595809","white","","","","","","","","","","","","","","","","","","","","","","","","","","","","","","","","","","","","","","","","","","337","","65","25","48","0","59",""
"null","
          <p style=""color: #FF3333;"">Your reward: 0 points</p>
        ","null","html-keyboard-response","163","2.1.0","597812","","","","","","","","","","","","","","","","","","","","","","","","","","","","","","","","","","","","","","","","","","","","","","","","","",""
"null","<div class=""fixation"" style=""font-size: 60px;"">+</div>","null","html-keyboard-response","164","2.1.0","598814","","","","","","","","","","","","","","","","","","","","","","","","","","","","","","","","","","","","","","","","","","","","","","","","","",""
"-1","","","rdk","165","2.0.0","600819","white","0","W_H_vs_B_L_rep12","false","ALL_KEYS","[""a""]","2000","[]","false","2","[100,100]","1","[338,261]","1","0","2","1","-1","1","300","300","[""white"",""black""]","circle","#AAA","3","2","2","16.95798319327731","[20,17,17,17,17,17,17,17,17,17,17,16,17,17,17,17,17,17,17,16,18,17,17,17,17,16,17,17,17,17,17,17,17,17,17,17,17,17,17,17,16,17,17,17,17,17,16,18,17,17,17,17,17,17,17,17,17,17,17,17,17,17,17,17,17,17,17,17,17,17,17,17,17,17,17,17,17,17,17,17,17,16,18,17,17,17,17,17,17,17,17,17,17,17,17,16,17,17,17,17,17,17,17,16,17,17,17,17,16,17,16,17,17,17,17,17,17,16,17]","119","735","461.5","true","15","15","#111","1","true","2","transparent","1470","923","338","261","","","","","",""
"5782","
        <div class=""response-container"">
          <div class=""response-instruction"">
            <p>rotate the bar by using the left and right arrow keys.</p>
            <p>when you are determined, press the Enter key.</p>
          </div>
          <div class=""response-circle"">
            <div class=""response-fixation""></div>
            <div id=""bar"" class=""rotating-bar""></div>
          </div>
        </div>
      ","Enter","html-keyboard-response","166","2.1.0","606602","white","","","","","","","","","","","","","","","","","","","","","","","","","","","","","","","","","","","","","","","","","","338","","194","256","-5","0","59",""
"null","
          <p style=""color: #FF3333;"">Your reward: 0 points</p>
        ","null","html-keyboard-response","167","2.1.0","608605","","","","","","","","","","","","","","","","","","","","","","","","","","","","","","","","","","","","","","","","","","","","","","","","","",""
"null","<div class=""fixation"" style=""font-size: 60px;"">+</div>","null","html-keyboard-response","168","2.1.0","609607","","","","","","","","","","","","","","","","","","","","","","","","","","","","","","","","","","","","","","","","","","","","","","","","","",""
"-1","","","rdk","169","2.0.0","611611","black","0","B_H_vs_W_L_rep3","false","ALL_KEYS","[""a""]","2000","[]","false","2","[100,100]","1","[76,164]","1","0","2","1","-1","1","300","300","[""black"",""white""]","circle","#AAA","3","2","2","16.833333333333332","[9,17,17,17,17,17,17,17,17,17,17,17,16,17,17,17,17,17,17,16,18,17,16,17,17,17,17,17,17,17,17,17,16,17,17,17,17,17,16,17,17,17,16,17,17,16,17,17,17,16,17,17,17,17,17,17,16,17,16,17,17,17,17,17,17,17,17,16,18,17,17,17,17,17,17,17,17,17,17,17,17,17,17,17,17,17,16,17,17,17,17,17,16,18,17,17,17,17,16,17,17,17,17,17,17,17,17,17,17,17,17,17,17,17,17,17,16,17,17,17]","120","735","461.5","true","15","15","#111","1","true","2","transparent","1470","923","76","164","","","","","",""
"3007","
        <div class=""response-container"">
          <div class=""response-instruction"">
            <p>rotate the bar by using the left and right arrow keys.</p>
            <p>when you are determined, press the Enter key.</p>
          </div>
          <div class=""response-circle"">
            <div class=""response-fixation""></div>
            <div id=""bar"" class=""rotating-bar""></div>
          </div>
        </div>
      ","Enter","html-keyboard-response","170","2.1.0","614619","black","","","","","","","","","","","","","","","","","","","","","","","","","","","","","","","","","","","","","","","","","","76","","274","176","12","0","59",""
"null","
          <p style=""color: #FF3333;"">Your reward: 0 points</p>
        ","null","html-keyboard-response","171","2.1.0","616622","","","","","","","","","","","","","","","","","","","","","","","","","","","","","","","","","","","","","","","","","","","","","","","","","",""
"null","<div class=""fixation"" style=""font-size: 60px;"">+</div>","null","html-keyboard-response","172","2.1.0","617625","","","","","","","","","","","","","","","","","","","","","","","","","","","","","","","","","","","","","","","","","","","","","","","","","",""
"-1","","","rdk","173","2.0.0","619629","white","0","W_H_vs_B_L_rep2","false","ALL_KEYS","[""a""]","2000","[]","false","2","[100,100]","1","[352,273]","1","0","2","1","-1","1","300","300","[""white"",""black""]","circle","#AAA","3","2","2","16.841666666666665","[9,17,17,17,17,17,17,17,17,17,17,17,17,16,17,17,16,18,16,17,17,16,17,17,17,17,17,16,17,17,17,17,16,18,17,17,17,17,17,17,17,17,17,17,17,17,17,17,17,17,17,17,17,17,17,16,17,17,17,17,16,18,17,16,17,17,16,17,17,17,17,16,17,17,17,17,17,17,17,17,17,17,17,17,17,17,17,17,17,17,17,16,17,17,17,17,17,17,17,17,16,17,17,17,17,17,17,16,17,17,17,17,17,17,17,17,17,17,17,17]","120","735","461.5","true","15","15","#111","1","true","2","transparent","1470","923","352","273","","","","","",""
"6977","
        <div class=""response-container"">
          <div class=""response-instruction"">
            <p>rotate the bar by using the left and right arrow keys.</p>
            <p>when you are determined, press the Enter key.</p>
          </div>
          <div class=""response-circle"">
            <div class=""response-fixation""></div>
            <div id=""bar"" class=""rotating-bar""></div>
          </div>
        </div>
      ","Enter","html-keyboard-response","174","2.1.0","626607","white","","","","","","","","","","","","","","","","","","","","","","","","","","","","","","","","","","","","","","","","","","352","","553","257","-16","0","59",""
"null","
          <p style=""color: #FF3333;"">Your reward: 0 points</p>
        ","null","html-keyboard-response","175","2.1.0","628610","","","","","","","","","","","","","","","","","","","","","","","","","","","","","","","","","","","","","","","","","","","","","","","","","",""
"null","<div class=""fixation"" style=""font-size: 60px;"">+</div>","null","html-keyboard-response","176","2.1.0","629612","","","","","","","","","","","","","","","","","","","","","","","","","","","","","","","","","","","","","","","","","","","","","","","","","",""
"-1","","","rdk","177","2.0.0","631617","black","0","B_H_vs_W_L_rep15","false","ALL_KEYS","[""a""]","2000","[]","false","2","[100,100]","1","[79,160]","1","0","2","1","-1","1","300","300","[""black"",""white""]","circle","#AAA","3","2","2","16.991596638655462","[21,17,17,17,17,17,17,17,17,17,17,17,17,17,16,18,17,17,17,17,17,17,17,17,17,17,17,17,17,17,17,17,17,17,17,17,17,16,17,17,17,17,17,17,17,17,17,17,17,17,17,17,17,17,17,16,17,17,17,17,17,17,17,17,17,17,17,17,17,17,17,17,17,17,17,17,17,17,17,17,17,17,17,16,18,17,17,17,17,17,17,17,17,17,17,16,17,17,17,17,17,17,17,17,17,17,16,17,17,17,17,17,17,17,17,16,17,17,17]","119","735","461.5","true","15","15","#111","1","true","2","transparent","1470","923","79","160","","","","","",""
"2158","
        <div class=""response-container"">
          <div class=""response-instruction"">
            <p>rotate the bar by using the left and right arrow keys.</p>
            <p>when you are determined, press the Enter key.</p>
          </div>
          <div class=""response-circle"">
            <div class=""response-fixation""></div>
            <div id=""bar"" class=""rotating-bar""></div>
          </div>
        </div>
      ","Enter","html-keyboard-response","178","2.1.0","633776","black","","","","","","","","","","","","","","","","","","","","","","","","","","","","","","","","","","","","","","","","","","79","","361","89","10","7","59",""
"null","
          <p style=""color: #00FF00;"">Your reward: 7 points</p>
        ","null","html-keyboard-response","179","2.1.0","635779","","","","","","","","","","","","","","","","","","","","","","","","","","","","","","","","","","","","","","","","","","","","","","","","","",""
"null","<div class=""fixation"" style=""font-size: 60px;"">+</div>","null","html-keyboard-response","180","2.1.0","636782","","","","","","","","","","","","","","","","","","","","","","","","","","","","","","","","","","","","","","","","","","","","","","","","","",""
"-1","","","rdk","181","2.0.0","638786","white","1","W_H_vs_B_L_rep15","false","ALL_KEYS","[""a""]","2000","[]","false","2","[100,100]","1","[244,334]","1","0","2","1","-1","1","300","300","[""black"",""white""]","circle","#AAA","3","2","2","16.932773109243698","[19,17,17,17,17,17,17,17,17,17,16,17,17,17,17,17,17,16,18,17,17,17,17,16,17,17,17,16,17,17,16,17,17,17,17,17,17,17,17,17,17,17,17,17,17,17,17,17,17,17,15,18,17,17,17,17,17,17,17,17,16,17,17,17,17,17,17,17,17,17,16,17,17,17,17,17,17,17,17,17,17,17,17,17,17,17,17,16,17,17,16,17,17,17,17,17,17,17,17,17,17,17,17,17,17,16,17,17,17,17,17,17,17,17,17,17,17,17,17]","119","735","461.5","true","15","15","#111","1","true","2","transparent","1470","923","334","244","","","","","",""
"4574","
        <div class=""response-container"">
          <div class=""response-instruction"">
            <p>rotate the bar by using the left and right arrow keys.</p>
            <p>when you are determined, press the Enter key.</p>
          </div>
          <div class=""response-circle"">
            <div class=""response-fixation""></div>
            <div id=""bar"" class=""rotating-bar""></div>
          </div>
        </div>
      ","Enter","html-keyboard-response","182","2.1.0","643361","white","","","","","","","","","","","","","","","","","","","","","","","","","","","","","","","","","","","","","","","","","","334","","-180","270","26","0","59",""
"null","
          <p style=""color: #FF3333;"">Your reward: 0 points</p>
        ","null","html-keyboard-response","183","2.1.0","645363","","","","","","","","","","","","","","","","","","","","","","","","","","","","","","","","","","","","","","","","","","","","","","","","","",""
"null","<div class=""fixation"" style=""font-size: 60px;"">+</div>","null","html-keyboard-response","184","2.1.0","646366","","","","","","","","","","","","","","","","","","","","","","","","","","","","","","","","","","","","","","","","","","","","","","","","","",""
"-1","","","rdk","185","2.0.0","648370","white","1","W_H_vs_B_L_rep14","false","ALL_KEYS","[""a""]","2000","[]","false","2","[100,100]","1","[259,340]","1","0","2","1","-1","1","300","300","[""black"",""white""]","circle","#AAA","3","2","2","16.92436974789916","[18,17,17,17,17,17,17,17,17,17,16,16,17,17,17,17,17,17,17,17,17,16,18,17,17,17,17,17,16,17,17,17,17,17,17,17,17,17,17,17,17,17,17,17,17,17,17,17,17,17,17,17,16,17,17,17,17,17,17,17,17,17,16,23,9,17,17,17,17,17,16,17,17,17,17,17,17,17,16,18,17,17,17,16,17,16,18,17,17,17,17,17,17,17,17,17,17,17,17,17,17,17,17,17,17,17,17,17,17,17,17,16,17,17,17,16,18,17,17]","119","735","461.5","true","15","15","#111","1","true","2","transparent","1470","923","340","259","","","","","",""
"1961","
        <div class=""response-container"">
          <div class=""response-instruction"">
            <p>rotate the bar by using the left and right arrow keys.</p>
            <p>when you are determined, press the Enter key.</p>
          </div>
          <div class=""response-circle"">
            <div class=""response-fixation""></div>
            <div id=""bar"" class=""rotating-bar""></div>
          </div>
        </div>
      ","Enter","html-keyboard-response","186","2.1.0","650332","white","","","","","","","","","","","","","","","","","","","","","","","","","","","","","","","","","","","","","","","","","","340","","192","258","-1","0","59",""
"null","
          <p style=""color: #FF3333;"">Your reward: 0 points</p>
        ","null","html-keyboard-response","187","2.1.0","652335","","","","","","","","","","","","","","","","","","","","","","","","","","","","","","","","","","","","","","","","","","","","","","","","","",""
"null","<div class=""fixation"" style=""font-size: 60px;"">+</div>","null","html-keyboard-response","188","2.1.0","653338","","","","","","","","","","","","","","","","","","","","","","","","","","","","","","","","","","","","","","","","","","","","","","","","","",""
"-1","","","rdk","189","2.0.0","655341","black","1","B_H_vs_W_L_rep8","false","ALL_KEYS","[""a""]","2000","[]","false","2","[100,100]","1","[165,77]","1","0","2","1","-1","1","300","300","[""white"",""black""]","circle","#AAA","3","2","2","16.875","[12,17,17,17,17,17,17,17,17,16,18,17,17,16,17,17,17,17,17,17,17,17,17,17,16,17,17,17,17,16,17,17,17,17,17,17,17,17,17,16,18,17,17,17,16,17,17,17,16,17,17,17,17,17,17,16,17,17,17,17,17,17,17,17,17,17,17,16,17,17,17,17,16,17,17,17,17,17,17,17,17,17,17,17,17,17,17,17,17,17,17,17,17,17,17,17,17,17,17,16,18,17,17,17,17,17,17,17,16,18,17,17,17,17,16,17,17,17,17,16]","120","735","461.5","true","15","15","#111","1","true","2","transparent","1470","923","77","165","","","","","",""
"1791","
        <div class=""response-container"">
          <div class=""response-instruction"">
            <p>rotate the bar by using the left and right arrow keys.</p>
            <p>when you are determined, press the Enter key.</p>
          </div>
          <div class=""response-circle"">
            <div class=""response-fixation""></div>
            <div id=""bar"" class=""rotating-bar""></div>
          </div>
        </div>
      ","Enter","html-keyboard-response","190","2.1.0","657134","black","","","","","","","","","","","","","","","","","","","","","","","","","","","","","","","","","","","","","","","","","","77","","23","67","-10","7","59",""
"null","
          <p style=""color: #00FF00;"">Your reward: 7 points</p>
        ","null","html-keyboard-response","191","2.1.0","659136","","","","","","","","","","","","","","","","","","","","","","","","","","","","","","","","","","","","","","","","","","","","","","","","","",""
"null","<div class=""fixation"" style=""font-size: 60px;"">+</div>","null","html-keyboard-response","192","2.1.0","660139","","","","","","","","","","","","","","","","","","","","","","","","","","","","","","","","","","","","","","","","","","","","","","","","","",""
"-1","","","rdk","193","2.0.0","662142","black","0","B_H_vs_W_L_rep11","false","ALL_KEYS","[""a""]","2000","[]","false","2","[100,100]","1","[86,160]","1","0","2","1","-1","1","300","300","[""black"",""white""]","circle","#AAA","3","2","2","16.908333333333335","[11,17,17,17,17,17,17,17,17,17,17,17,17,17,17,17,17,17,17,17,17,17,17,17,17,17,17,17,17,17,17,17,17,17,17,17,17,17,17,17,17,17,17,16,17,17,17,17,17,17,17,17,17,17,17,17,17,17,17,17,16,17,17,17,17,17,16,17,17,17,17,17,17,17,17,17,17,17,17,17,17,17,16,17,16,17,17,17,17,17,17,17,17,17,17,17,17,17,17,17,17,17,17,17,17,17,17,17,17,17,17,17,17,17,17,17,17,16,18,17]","120","735","461.5","true","15","15","#111","1","true","2","transparent","1470","923","86","160","","","","","",""
"1484","
        <div class=""response-container"">
          <div class=""response-instruction"">
            <p>rotate the bar by using the left and right arrow keys.</p>
            <p>when you are determined, press the Enter key.</p>
          </div>
          <div class=""response-circle"">
            <div class=""response-fixation""></div>
            <div id=""bar"" class=""rotating-bar""></div>
          </div>
        </div>
      ","Enter","html-keyboard-response","194","2.1.0","663627","black","","","","","","","","","","","","","","","","","","","","","","","","","","","","","","","","","","","","","","","","","","86","","13","77","-9","8","59",""
"null","
          <p style=""color: #00FF00;"">Your reward: 8 points</p>
        ","null","html-keyboard-response","195","2.1.0","665629","","","","","","","","","","","","","","","","","","","","","","","","","","","","","","","","","","","","","","","","","","","","","","","","","",""
"null","<div class=""fixation"" style=""font-size: 60px;"">+</div>","null","html-keyboard-response","196","2.1.0","666632","","","","","","","","","","","","","","","","","","","","","","","","","","","","","","","","","","","","","","","","","","","","","","","","","",""
"-1","","","rdk","197","2.0.0","668636","white","0","W_H_vs_B_L_rep7","false","ALL_KEYS","[""a""]","2000","[]","false","2","[100,100]","1","[7,284]","1","0","2","1","-1","1","300","300","[""white"",""black""]","circle","#AAA","3","2","2","16.96638655462185","[19,17,17,17,17,17,17,17,17,17,17,17,17,17,17,17,17,17,16,17,17,16,18,17,17,17,17,17,17,17,17,17,17,17,17,17,16,16,18,17,17,17,17,17,17,17,17,17,17,17,17,17,17,17,16,17,17,16,17,17,17,17,17,17,17,17,17,17,17,17,17,17,17,17,17,17,17,17,17,17,17,17,17,17,17,17,17,17,16,18,16,17,17,17,17,17,16,18,17,17,17,17,17,17,17,16,17,17,17,17,17,17,17,17,17,17,17,17,17]","119","735","461.5","true","15","15","#111","1","true","2","transparent","1470","923","7","284","","","","","",""
"6999","
        <div class=""response-container"">
          <div class=""response-instruction"">
            <p>rotate the bar by using the left and right arrow keys.</p>
            <p>when you are determined, press the Enter key.</p>
          </div>
          <div class=""response-circle"">
            <div class=""response-fixation""></div>
            <div id=""bar"" class=""rotating-bar""></div>
          </div>
        </div>
      ","Enter","html-keyboard-response","198","2.1.0","675636","white","","","","","","","","","","","","","","","","","","","","","","","","","","","","","","","","","","","","","","","","","","7","","529","281","-3","0","59",""
"null","
          <p style=""color: #FF3333;"">Your reward: 0 points</p>
        ","null","html-keyboard-response","199","2.1.0","677639","","","","","","","","","","","","","","","","","","","","","","","","","","","","","","","","","","","","","","","","","","","","","","","","","",""
