"rt","stimulus","response","trial_type","trial_index","plugin_version","time_elapsed","target_group","target_index","condition_label","correct","choices","correct_choice","trial_duration","flip_timestamps","response_ends_trial","number_of_apertures","number_of_dots","number_of_sets","coherent_direction","coherence","opposite_coherence","dot_radius","dot_side_length","dot_life","move_distance","aperture_width","aperture_height","dot_color","dot_shape","background_color","RDK_type","aperture_type","reinsert_type","frame_rate","frame_rate_array","number_of_frames","aperture_center_x","aperture_center_y","fixation_cross","fixation_cross_width","fixation_cross_height","fixation_cross_color","fixation_cross_thickness","border","border_thickness","border_color","canvas_width","canvas_height","target_direction","distractor_direction","response_angle_css","response_angle_rdk","angular_error","reward_points","rotation_angle","key_press"
"16836","Welcome to the experiment. Press any key to begin.","Enter","html-keyboard-response","0","2.0.0","16838","","","","","","","","","","","","","","","","","","","","","","","","","","","","","","","","","","","","","","","","","","","","","","","","","",""
"114588","
        <div class=""instructions-container"">
          <h2>Instructions</h2>
          <p>In this experiment, you will see <strong>two random dot kinematograms (RDKs)</strong> simultaneously.</p>
          <p>RDK consists of white dots or black dots moving in a specific direction.</p>
          <p>Your task is to determine the direction of the <strong>target RDK</strong> based on the <strong>number of dots</strong>.</p>
          <p>For instance, if the white RDK has more dots than the black RDK, the white RDK is the target so you should respond to the direction of the white RDK.</p>
          <p>After viewing the RDKs, you will rotate a bar to indicate the perceived direction of the target RDK using the <strong>left and right arrow keys</strong>. <strong>Press Enter</strong> when you are ready to submit your response.</p>
          <p>You will receive points based on the <strong>accuracy of your response</strong>. Try to be as accurate as possible!</p>
          <p>You will have three practice trials. Press <strong>Enter</strong> key to start the practice phase.</p>
        </div>
      ","Enter","html-keyboard-response","1","2.0.0","131428","","","","","","","","","","","","","","","","","","","","","","","","","","","","","","","","","","","","","","","","","","","","","","","","","",""
"null","<div class=""fixation"" style=""font-size: 60px;"">+</div>","null","html-keyboard-response","2","2.0.0","132432","","","","","","","","","","","","","","","","","","","","","","","","","","","","","","","","","","","","","","","","","","","","","","","","","",""
"-1","","","rdk","3","2.0.0","134439","black","1","B_H_vs_W_L","false","ALL_KEYS","[""a""]","2000","[]","false","2","[50,100]","1","[10,100]","1","0","2","1","-1","1","300","300","[""white"",""black""]","circle","#AAA","3","2","2","16.925","[12,17,17,17,17,17,17,17,17,16,17,17,17,17,17,17,17,17,17,17,17,17,17,17,17,17,16,18,17,17,17,17,17,16,18,17,17,17,17,17,17,17,17,17,16,17,17,17,17,17,17,17,17,17,17,17,17,17,17,17,17,17,17,17,17,17,17,17,17,17,17,17,17,17,17,17,17,17,17,17,17,17,17,17,17,17,17,17,17,17,17,17,17,17,16,17,17,17,17,17,17,17,17,17,17,17,17,17,17,17,17,17,17,17,17,17,16,17,17,17]","120","735","461.5","true","15","15","#111","1","true","2","transparent","1470","923","100","10","","","","","",""
"57512","
        <div class=""response-container"">
          <div class=""response-instruction"">
            <p>rotate the bar by using the left and right arrow keys.</p>
            <p>when you are determined, press the Enter key.</p>
          </div>
          <div class=""response-circle"">
            <div class=""response-fixation""></div>
            <div id=""bar"" class=""rotating-bar""></div>
          </div>
        </div>
      ","Enter","html-keyboard-response","4","2.0.0","191953","black","","","","","","","","","","","","","","","","","","","","","","","","","","","","","","","","","","","","","","","","","","100","","342","108","8","8","98",""
"null","
          <p style=""color: #00FF00;"">Your reward: 8 points</p>
        ","null","html-keyboard-response","5","2.0.0","193956","","","","","","","","","","","","","","","","","","","","","","","","","","","","","","","","","","","","","","","","","","","","","","","","","",""
"null","<div class=""fixation"" style=""font-size: 60px;"">+</div>","null","html-keyboard-response","6","2.0.0","194960","","","","","","","","","","","","","","","","","","","","","","","","","","","","","","","","","","","","","","","","","","","","","","","","","",""
"-1","","","rdk","7","2.0.0","196966","white","0","W_H_vs_B_L","false","ALL_KEYS","[""a""]","2000","[]","false","2","[100,50]","1","[150,30]","1","0","2","1","-1","1","300","300","[""white"",""black""]","circle","#AAA","3","2","2","16.932773109243698","[21,17,17,17,17,17,17,17,17,16,17,16,17,17,17,17,17,17,17,17,17,17,17,17,17,17,17,16,17,17,16,18,17,17,16,17,17,17,16,18,17,17,17,17,17,17,17,17,17,17,17,17,16,17,17,17,17,17,17,17,17,16,17,17,17,17,17,17,17,17,17,17,17,17,17,17,17,17,17,17,17,17,17,17,17,17,16,17,17,17,17,17,16,17,17,17,17,16,17,17,17,17,17,17,17,17,17,17,17,16,16,17,17,17,17,17,17,17,16]","119","735","461.5","true","15","15","#111","1","true","2","transparent","1470","923","150","30","","","","","",""
"8969","
        <div class=""response-container"">
          <div class=""response-instruction"">
            <p>rotate the bar by using the left and right arrow keys.</p>
            <p>when you are determined, press the Enter key.</p>
          </div>
          <div class=""response-circle"">
            <div class=""response-fixation""></div>
            <div id=""bar"" class=""rotating-bar""></div>
          </div>
        </div>
      ","Enter","html-keyboard-response","8","2.0.0","205936","white","","","","","","","","","","","","","","","","","","","","","","","","","","","","","","","","","","","","","","","","","","150","","330","120","-30","3","98",""
"null","
          <p style=""color: #00FF00;"">Your reward: 3 points</p>
        ","null","html-keyboard-response","9","2.0.0","207938","","","","","","","","","","","","","","","","","","","","","","","","","","","","","","","","","","","","","","","","","","","","","","","","","",""
"null","<div class=""fixation"" style=""font-size: 60px;"">+</div>","null","html-keyboard-response","10","2.0.0","208941","","","","","","","","","","","","","","","","","","","","","","","","","","","","","","","","","","","","","","","","","","","","","","","","","",""
"-1","","","rdk","11","2.0.0","210946","black","1","B_H_vs_W_L","false","ALL_KEYS","[""a""]","2000","[]","false","2","[50,100]","1","[270,180]","1","0","2","1","-1","1","300","300","[""white"",""black""]","circle","#AAA","3","2","2","16.875","[8,16,18,16,17,18,17,16,16,18,16,17,17,17,17,17,17,17,17,17,17,17,17,17,17,17,17,17,17,16,17,17,17,17,17,17,17,17,17,17,17,17,17,17,17,17,16,18,17,17,17,17,17,17,16,17,16,17,17,17,17,17,17,17,17,17,17,17,17,17,16,18,17,17,16,18,17,17,17,17,17,17,17,17,17,17,17,17,17,17,16,18,17,17,17,17,17,17,16,17,16,17,18,17,17,17,17,17,17,17,17,17,17,17,17,17,17,17,16,18]","120","735","461.5","true","15","15","#111","1","true","2","transparent","1470","923","180","270","","","","","",""
"3462","
        <div class=""response-container"">
          <div class=""response-instruction"">
            <p>rotate the bar by using the left and right arrow keys.</p>
            <p>when you are determined, press the Enter key.</p>
          </div>
          <div class=""response-circle"">
            <div class=""response-fixation""></div>
            <div id=""bar"" class=""rotating-bar""></div>
          </div>
        </div>
      ","Enter","html-keyboard-response","12","2.0.0","214409","black","","","","","","","","","","","","","","","","","","","","","","","","","","","","","","","","","","","","","","","","","","180","","-64","154","-26","4","98",""
"null","
          <p style=""color: #00FF00;"">Your reward: 4 points</p>
        ","null","html-keyboard-response","13","2.0.0","216411","","","","","","","","","","","","","","","","","","","","","","","","","","","","","","","","","","","","","","","","","","","","","","","","","",""
"74033","
        <div class=""instructions-container"">
          <h2>End of Practice</h2>
          <p>You have completed the practice trials.</p>
          <p>Press <strong>Enter</strong> key to begin the main experiment.</p>
        </div>
      ","Enter","html-keyboard-response","14","2.0.0","290445","","","","","","","","","","","","","","","","","","","","","","","","","","","","","","","","","","","","","","","","","","","","","","","","","",""
"null","<div class=""fixation"" style=""font-size: 60px;"">+</div>","null","html-keyboard-response","15","2.0.0","291448","","","","","","","","","","","","","","","","","","","","","","","","","","","","","","","","","","","","","","","","","","","","","","","","","",""
"-1","","","rdk","16","2.0.0","293453","white","0","W_H_vs_B_L_rep8","false","ALL_KEYS","[""a""]","2000","[]","false","2","[100,100]","1","[253,179]","1","0","2","1","-1","1","300","300","[""white"",""black""]","circle","#AAA","3","2","2","16.9","[16,17,17,17,17,17,17,17,16,17,17,17,16,17,17,16,17,17,17,16,16,17,17,17,16,17,17,17,17,17,17,17,17,17,17,17,17,17,17,17,17,16,17,17,17,17,17,16,17,17,17,17,17,17,17,17,17,17,17,17,17,17,17,17,17,17,17,17,16,17,17,17,16,17,17,17,17,17,17,17,17,17,17,17,17,17,17,17,17,16,17,17,17,17,17,17,17,17,17,17,17,17,17,17,17,17,17,17,17,17,17,17,17,17,17,17,17,17,17,17]","120","735","461.5","true","15","15","#111","1","true","2","transparent","1470","923","253","179","","","","","",""
"5240","
        <div class=""response-container"">
          <div class=""response-instruction"">
            <p>rotate the bar by using the left and right arrow keys.</p>
            <p>when you are determined, press the Enter key.</p>
          </div>
          <div class=""response-circle"">
            <div class=""response-fixation""></div>
            <div id=""bar"" class=""rotating-bar""></div>
          </div>
        </div>
      ","Enter","html-keyboard-response","17","2.0.0","298694","white","","","","","","","","","","","","","","","","","","","","","","","","","","","","","","","","","","","","","","","","","","253","","-179","269","16","6","98",""
"null","
          <p style=""color: #00FF00;"">Your reward: 6 points</p>
        ","null","html-keyboard-response","18","2.0.0","300697","","","","","","","","","","","","","","","","","","","","","","","","","","","","","","","","","","","","","","","","","","","","","","","","","",""
"null","<div class=""fixation"" style=""font-size: 60px;"">+</div>","null","html-keyboard-response","19","2.0.0","301700","","","","","","","","","","","","","","","","","","","","","","","","","","","","","","","","","","","","","","","","","","","","","","","","","",""
"-1","","","rdk","20","2.0.0","303703","white","0","W_H_vs_B_L_rep11","false","ALL_KEYS","[""a""]","2000","[]","false","2","[100,100]","1","[272,182]","1","0","2","1","-1","1","300","300","[""white"",""black""]","circle","#AAA","3","2","2","16.908333333333335","[15,17,17,17,17,17,17,17,17,17,17,17,17,17,17,17,17,17,17,17,17,17,16,17,17,16,18,17,17,17,17,17,16,17,17,17,17,17,17,17,17,17,17,17,17,17,17,17,17,17,17,17,16,16,18,17,17,17,17,17,17,17,17,17,17,17,17,16,17,17,17,17,17,16,17,17,17,17,17,17,17,17,17,17,17,17,17,17,17,16,18,17,17,17,17,16,17,17,17,17,17,17,17,17,17,17,16,17,17,17,17,17,17,16,17,17,16,17,17,17]","120","735","461.5","true","15","15","#111","1","true","2","transparent","1470","923","272","182","","","","","",""
"3067","
        <div class=""response-container"">
          <div class=""response-instruction"">
            <p>rotate the bar by using the left and right arrow keys.</p>
            <p>when you are determined, press the Enter key.</p>
          </div>
          <div class=""response-circle"">
            <div class=""response-fixation""></div>
            <div id=""bar"" class=""rotating-bar""></div>
          </div>
        </div>
      ","Enter","html-keyboard-response","21","2.0.0","306771","white","","","","","","","","","","","","","","","","","","","","","","","","","","","","","","","","","","","","","","","","","","272","","160","290","18","6","98",""
"null","
          <p style=""color: #00FF00;"">Your reward: 6 points</p>
        ","null","html-keyboard-response","22","2.0.0","308774","","","","","","","","","","","","","","","","","","","","","","","","","","","","","","","","","","","","","","","","","","","","","","","","","",""
"null","<div class=""fixation"" style=""font-size: 60px;"">+</div>","null","html-keyboard-response","23","2.0.0","309776","","","","","","","","","","","","","","","","","","","","","","","","","","","","","","","","","","","","","","","","","","","","","","","","","",""
"-1","","","rdk","24","2.0.0","311781","white","1","W_H_vs_B_L_rep14","false","ALL_KEYS","[""a""]","2000","[]","false","2","[100,100]","1","[185,249]","1","0","2","1","-1","1","300","300","[""black"",""white""]","circle","#AAA","3","2","2","16.873949579831933","[22,16,17,17,17,17,16,17,17,16,17,17,17,17,16,17,17,17,17,17,17,17,17,16,16,17,17,17,17,17,17,17,17,17,16,17,17,17,17,17,17,17,17,17,17,16,17,25,7,17,17,17,17,17,17,16,17,17,17,17,17,17,17,17,17,17,17,17,16,16,18,17,16,17,17,17,16,17,17,17,16,17,16,17,17,17,16,17,16,17,17,17,17,17,16,17,17,17,17,17,17,17,17,17,17,17,17,17,16,17,17,17,17,17,17,17,17,17,17]","119","735","461.5","true","15","15","#111","1","true","2","transparent","1470","923","249","185","","","","","",""
"2179","
        <div class=""response-container"">
          <div class=""response-instruction"">
            <p>rotate the bar by using the left and right arrow keys.</p>
            <p>when you are determined, press the Enter key.</p>
          </div>
          <div class=""response-circle"">
            <div class=""response-fixation""></div>
            <div id=""bar"" class=""rotating-bar""></div>
          </div>
        </div>
      ","Enter","html-keyboard-response","25","2.0.0","313961","white","","","","","","","","","","","","","","","","","","","","","","","","","","","","","","","","","","","","","","","","","","249","","188","262","13","7","98",""
"null","
          <p style=""color: #00FF00;"">Your reward: 7 points</p>
        ","null","html-keyboard-response","26","2.0.0","315964","","","","","","","","","","","","","","","","","","","","","","","","","","","","","","","","","","","","","","","","","","","","","","","","","",""
"null","<div class=""fixation"" style=""font-size: 60px;"">+</div>","null","html-keyboard-response","27","2.0.0","316966","","","","","","","","","","","","","","","","","","","","","","","","","","","","","","","","","","","","","","","","","","","","","","","","","",""
"-1","","","rdk","28","2.0.0","318969","white","1","W_H_vs_B_L_rep7","false","ALL_KEYS","[""a""]","2000","[]","false","2","[100,100]","1","[169,252]","1","0","2","1","-1","1","300","300","[""black"",""white""]","circle","#AAA","3","2","2","16.883333333333333","[17,16,17,17,17,17,17,17,17,17,16,16,18,16,17,17,17,17,17,16,18,17,17,17,17,17,17,17,16,17,17,17,17,17,16,18,17,16,17,17,17,17,17,17,17,17,17,17,17,17,17,17,17,16,17,17,17,17,17,17,17,17,17,17,17,17,16,17,17,17,17,17,17,16,17,16,17,17,17,17,17,17,16,17,17,17,17,16,17,17,16,17,17,17,17,17,17,16,17,17,17,17,17,17,17,17,17,17,17,17,17,17,16,18,17,16,17,17,17,17]","120","735","461.5","true","15","15","#111","1","true","2","transparent","1470","923","252","169","","","","","",""
"6484","
        <div class=""response-container"">
          <div class=""response-instruction"">
            <p>rotate the bar by using the left and right arrow keys.</p>
            <p>when you are determined, press the Enter key.</p>
          </div>
          <div class=""response-circle"">
            <div class=""response-fixation""></div>
            <div id=""bar"" class=""rotating-bar""></div>
          </div>
        </div>
      ","Enter","html-keyboard-response","29","2.0.0","325454","white","","","","","","","","","","","","","","","","","","","","","","","","","","","","","","","","","","","","","","","","","","252","","184","266","14","6","98",""
"null","
          <p style=""color: #00FF00;"">Your reward: 6 points</p>
        ","null","html-keyboard-response","30","2.0.0","327457","","","","","","","","","","","","","","","","","","","","","","","","","","","","","","","","","","","","","","","","","","","","","","","","","",""
"null","<div class=""fixation"" style=""font-size: 60px;"">+</div>","null","html-keyboard-response","31","2.0.0","328459","","","","","","","","","","","","","","","","","","","","","","","","","","","","","","","","","","","","","","","","","","","","","","","","","",""
"-1","","","rdk","32","2.0.0","330464","black","0","B_H_vs_W_L_rep2","false","ALL_KEYS","[""a""]","2000","[]","false","2","[100,100]","1","[348,64]","1","0","2","1","-1","1","300","300","[""black"",""white""]","circle","#AAA","3","2","2","16.941176470588236","[22,16,17,17,16,17,17,16,16,18,17,17,17,17,17,17,16,17,17,17,17,16,17,17,17,17,17,17,17,17,17,17,17,17,17,16,17,17,17,17,17,17,17,17,17,17,17,17,16,17,16,17,17,17,17,17,17,17,17,17,17,17,17,17,17,17,17,17,17,17,17,17,17,17,17,17,17,16,17,17,17,17,17,17,17,17,17,17,17,17,17,16,17,17,16,17,17,17,17,17,17,17,17,16,17,17,17,17,17,17,17,17,17,17,17,17,17,17,17]","119","735","461.5","true","15","15","#111","1","true","2","transparent","1470","923","348","64","","","","","",""
"2455","
        <div class=""response-container"">
          <div class=""response-instruction"">
            <p>rotate the bar by using the left and right arrow keys.</p>
            <p>when you are determined, press the Enter key.</p>
          </div>
          <div class=""response-circle"">
            <div class=""response-fixation""></div>
            <div id=""bar"" class=""rotating-bar""></div>
          </div>
        </div>
      ","Enter","html-keyboard-response","33","2.0.0","332921","black","","","","","","","","","","","","","","","","","","","","","","","","","","","","","","","","","","","","","","","","","","348","","116","334","-14","6","98",""
"null","
          <p style=""color: #00FF00;"">Your reward: 6 points</p>
        ","null","html-keyboard-response","34","2.0.0","334924","","","","","","","","","","","","","","","","","","","","","","","","","","","","","","","","","","","","","","","","","","","","","","","","","",""
"null","<div class=""fixation"" style=""font-size: 60px;"">+</div>","null","html-keyboard-response","35","2.0.0","335927","","","","","","","","","","","","","","","","","","","","","","","","","","","","","","","","","","","","","","","","","","","","","","","","","",""
"-1","","","rdk","36","2.0.0","337931","white","0","W_H_vs_B_L_rep9","false","ALL_KEYS","[""a""]","2000","[]","false","2","[100,100]","1","[269,184]","1","0","2","1","-1","1","300","300","[""white"",""black""]","circle","#AAA","3","2","2","16.941176470588236","[22,17,17,17,17,17,17,17,16,17,17,17,17,17,17,17,17,17,17,17,16,18,17,16,18,17,17,17,17,17,17,17,17,17,17,17,17,17,17,16,17,16,18,17,17,17,17,17,17,17,16,17,17,17,17,16,17,17,17,17,17,16,17,17,17,17,16,17,16,17,17,17,17,17,17,17,17,17,17,17,17,16,17,17,17,17,17,17,17,17,17,17,17,17,17,17,17,17,16,17,16,17,17,17,17,17,16,17,17,17,17,17,16,17,17,17,17,17,17]","119","735","461.5","true","15","15","#111","1","true","2","transparent","1470","923","269","184","","","","","",""
"3209","
        <div class=""response-container"">
          <div class=""response-instruction"">
            <p>rotate the bar by using the left and right arrow keys.</p>
            <p>when you are determined, press the Enter key.</p>
          </div>
          <div class=""response-circle"">
            <div class=""response-fixation""></div>
            <div id=""bar"" class=""rotating-bar""></div>
          </div>
        </div>
      ","Enter","html-keyboard-response","37","2.0.0","341141","white","","","","","","","","","","","","","","","","","","","","","","","","","","","","","","","","","","","","","","","","","","269","","-50","140","-44","0","98",""
"null","
          <p style=""color: #FF3333;"">Your reward: 0 points</p>
        ","null","html-keyboard-response","38","2.0.0","343143","","","","","","","","","","","","","","","","","","","","","","","","","","","","","","","","","","","","","","","","","","","","","","","","","",""
"null","<div class=""fixation"" style=""font-size: 60px;"">+</div>","null","html-keyboard-response","39","2.0.0","344146","","","","","","","","","","","","","","","","","","","","","","","","","","","","","","","","","","","","","","","","","","","","","","","","","",""
"-1","","","rdk","40","2.0.0","346151","black","0","B_H_vs_W_L_rep4","false","ALL_KEYS","[""a""]","2000","[]","false","2","[100,100]","1","[347,64]","1","0","2","1","-1","1","300","300","[""black"",""white""]","circle","#AAA","3","2","2","16.915966386554622","[18,17,17,17,17,17,17,17,17,17,17,17,17,17,17,17,17,17,17,17,17,17,17,17,17,17,16,17,17,17,17,17,17,17,17,17,17,17,17,17,17,17,17,17,17,17,16,17,17,17,17,17,17,17,17,17,17,17,17,16,17,17,17,17,17,17,17,17,17,17,17,17,17,17,16,16,17,17,17,17,17,17,17,17,17,17,16,17,16,17,17,17,17,17,17,17,17,17,16,17,17,17,16,17,16,17,17,17,17,17,17,17,17,17,17,16,17,17,17]","119","735","461.5","true","15","15","#111","1","true","2","transparent","1470","923","347","64","","","","","",""
"3312","
        <div class=""response-container"">
          <div class=""response-instruction"">
            <p>rotate the bar by using the left and right arrow keys.</p>
            <p>when you are determined, press the Enter key.</p>
          </div>
          <div class=""response-circle"">
            <div class=""response-fixation""></div>
            <div id=""bar"" class=""rotating-bar""></div>
          </div>
        </div>
      ","Enter","html-keyboard-response","41","2.0.0","349465","black","","","","","","","","","","","","","","","","","","","","","","","","","","","","","","","","","","","","","","","","","","347","","117","333","-14","6","98",""
"null","
          <p style=""color: #00FF00;"">Your reward: 6 points</p>
        ","null","html-keyboard-response","42","2.0.0","351467","","","","","","","","","","","","","","","","","","","","","","","","","","","","","","","","","","","","","","","","","","","","","","","","","",""
"null","<div class=""fixation"" style=""font-size: 60px;"">+</div>","null","html-keyboard-response","43","2.0.0","352470","","","","","","","","","","","","","","","","","","","","","","","","","","","","","","","","","","","","","","","","","","","","","","","","","",""
"-1","","","rdk","44","2.0.0","354474","black","1","B_H_vs_W_L_rep8","false","ALL_KEYS","[""a""]","2000","[]","false","2","[100,100]","1","[54,5]","1","0","2","1","-1","1","300","300","[""white"",""black""]","circle","#AAA","3","2","2","16.866666666666667","[10,17,17,17,17,17,16,16,18,17,17,16,17,17,17,17,17,17,17,17,17,16,17,17,17,17,17,17,17,17,17,17,17,17,17,17,17,17,17,17,17,17,17,17,17,17,17,17,17,17,17,16,17,17,16,18,17,17,17,17,17,17,17,17,17,17,16,17,17,16,18,17,17,17,17,17,16,17,17,17,17,17,17,17,17,17,17,17,16,17,16,18,17,17,17,17,17,17,17,17,17,17,17,17,16,17,17,17,17,17,17,17,16,17,17,17,17,17,17,17]","120","735","461.5","true","15","15","#111","1","true","2","transparent","1470","923","5","54","","","","","",""
"3808","
        <div class=""response-container"">
          <div class=""response-instruction"">
            <p>rotate the bar by using the left and right arrow keys.</p>
            <p>when you are determined, press the Enter key.</p>
          </div>
          <div class=""response-circle"">
            <div class=""response-fixation""></div>
            <div id=""bar"" class=""rotating-bar""></div>
          </div>
        </div>
      ","Enter","html-keyboard-response","45","2.0.0","358284","black","","","","","","","","","","","","","","","","","","","","","","","","","","","","","","","","","","","","","","","","","","5","","376","74","20","0","98",""
"null","
          <p style=""color: #FF3333;"">Your reward: 0 points</p>
        ","null","html-keyboard-response","46","2.0.0","360286","","","","","","","","","","","","","","","","","","","","","","","","","","","","","","","","","","","","","","","","","","","","","","","","","",""
"null","<div class=""fixation"" style=""font-size: 60px;"">+</div>","null","html-keyboard-response","47","2.0.0","361290","","","","","","","","","","","","","","","","","","","","","","","","","","","","","","","","","","","","","","","","","","","","","","","","","",""
"-1","","","rdk","48","2.0.0","363293","black","1","B_H_vs_W_L_rep7","false","ALL_KEYS","[""a""]","2000","[]","false","2","[100,100]","1","[57,341]","1","0","2","1","-1","1","300","300","[""white"",""black""]","circle","#AAA","3","2","2","16.866666666666667","[9,17,17,17,17,17,17,17,17,17,16,17,17,17,17,17,17,17,16,17,17,17,17,17,17,17,17,17,17,17,17,17,17,17,17,17,17,17,16,17,17,17,17,17,17,17,17,17,17,17,17,17,17,17,17,17,17,17,17,17,16,17,17,17,17,17,17,17,16,17,17,17,17,17,17,17,16,18,16,17,17,17,17,17,17,16,17,17,17,17,16,17,17,17,17,17,17,17,17,17,17,17,17,17,17,17,17,17,17,17,17,17,17,17,17,17,17,17,17,17]","120","735","461.5","true","15","15","#111","1","true","2","transparent","1470","923","341","57","","","","","",""
"4348","
        <div class=""response-container"">
          <div class=""response-instruction"">
            <p>rotate the bar by using the left and right arrow keys.</p>
            <p>when you are determined, press the Enter key.</p>
          </div>
          <div class=""response-circle"">
            <div class=""response-fixation""></div>
            <div id=""bar"" class=""rotating-bar""></div>
          </div>
        </div>
      ","Enter","html-keyboard-response","49","2.0.0","367642","black","","","","","","","","","","","","","","","","","","","","","","","","","","","","","","","","","","","","","","","","","","341","","479","331","-10","7","98",""
"null","
          <p style=""color: #00FF00;"">Your reward: 7 points</p>
        ","null","html-keyboard-response","50","2.0.0","369644","","","","","","","","","","","","","","","","","","","","","","","","","","","","","","","","","","","","","","","","","","","","","","","","","",""
"null","<div class=""fixation"" style=""font-size: 60px;"">+</div>","null","html-keyboard-response","51","2.0.0","370647","","","","","","","","","","","","","","","","","","","","","","","","","","","","","","","","","","","","","","","","","","","","","","","","","",""
"-1","","","rdk","52","2.0.0","372652","white","1","W_H_vs_B_L_rep2","false","ALL_KEYS","[""a""]","2000","[]","false","2","[100,100]","1","[185,244]","1","0","2","1","-1","1","300","300","[""black"",""white""]","circle","#AAA","3","2","2","16.925","[17,17,17,17,17,17,17,17,16,18,17,17,17,17,17,17,17,17,17,17,17,17,17,17,17,17,17,17,17,17,17,17,17,17,17,16,17,17,17,16,16,17,17,17,17,17,17,17,17,17,17,17,17,17,17,17,17,17,17,17,17,17,17,17,17,17,17,17,17,17,16,17,17,17,17,16,17,17,17,17,17,16,17,17,17,17,16,17,17,17,17,17,17,17,17,17,17,17,16,18,17,17,17,17,17,17,17,17,17,17,17,17,16,16,18,17,16,17,17,17]","120","735","461.5","true","15","15","#111","1","true","2","transparent","1470","923","244","185","","","","","",""
"3531","
        <div class=""response-container"">
          <div class=""response-instruction"">
            <p>rotate the bar by using the left and right arrow keys.</p>
            <p>when you are determined, press the Enter key.</p>
          </div>
          <div class=""response-circle"">
            <div class=""response-fixation""></div>
            <div id=""bar"" class=""rotating-bar""></div>
          </div>
        </div>
      ","Enter","html-keyboard-response","53","2.0.0","376184","white","","","","","","","","","","","","","","","","","","","","","","","","","","","","","","","","","","","","","","","","","","244","","298","152","-33","0","98",""
"null","
          <p style=""color: #FF3333;"">Your reward: 0 points</p>
        ","null","html-keyboard-response","54","2.0.0","378186","","","","","","","","","","","","","","","","","","","","","","","","","","","","","","","","","","","","","","","","","","","","","","","","","",""
"null","<div class=""fixation"" style=""font-size: 60px;"">+</div>","null","html-keyboard-response","55","2.0.0","379188","","","","","","","","","","","","","","","","","","","","","","","","","","","","","","","","","","","","","","","","","","","","","","","","","",""
"-1","","","rdk","56","2.0.0","381190","white","0","W_H_vs_B_L_rep3","false","ALL_KEYS","[""a""]","2000","[]","false","2","[100,100]","1","[249,180]","1","0","2","1","-1","1","300","300","[""white"",""black""]","circle","#AAA","3","2","2","16.841666666666665","[11,17,16,17,16,17,17,17,17,17,17,17,17,17,17,17,16,17,17,17,17,17,17,17,16,17,16,17,16,17,17,17,17,17,17,17,16,16,17,17,17,16,18,16,17,17,16,17,17,17,17,17,17,17,17,17,17,17,17,17,17,17,17,17,17,17,17,17,16,18,16,17,17,17,17,17,17,17,17,16,18,17,17,17,16,17,17,17,17,17,17,17,17,17,17,17,17,17,17,17,17,17,17,17,17,17,17,17,17,17,17,17,17,17,16,17,17,17,17,17]","120","735","461.5","true","15","15","#111","1","true","2","transparent","1470","923","249","180","","","","","",""
"1688","
        <div class=""response-container"">
          <div class=""response-instruction"">
            <p>rotate the bar by using the left and right arrow keys.</p>
            <p>when you are determined, press the Enter key.</p>
          </div>
          <div class=""response-circle"">
            <div class=""response-fixation""></div>
            <div id=""bar"" class=""rotating-bar""></div>
          </div>
        </div>
      ","Enter","html-keyboard-response","57","2.0.0","382879","white","","","","","","","","","","","","","","","","","","","","","","","","","","","","","","","","","","","","","","","","","","249","","288","162","-18","0","98",""
"null","
          <p style=""color: #FF3333;"">Your reward: 0 points</p>
        ","null","html-keyboard-response","58","2.0.0","384882","","","","","","","","","","","","","","","","","","","","","","","","","","","","","","","","","","","","","","","","","","","","","","","","","",""
"null","<div class=""fixation"" style=""font-size: 60px;"">+</div>","null","html-keyboard-response","59","2.0.0","385885","","","","","","","","","","","","","","","","","","","","","","","","","","","","","","","","","","","","","","","","","","","","","","","","","",""
"-1","","","rdk","60","2.0.0","387888","black","0","B_H_vs_W_L_rep13","false","ALL_KEYS","[""a""]","2000","[]","false","2","[100,100]","1","[3,72]","1","0","2","1","-1","1","300","300","[""black"",""white""]","circle","#AAA","3","2","2","16.833333333333332","[13,17,17,17,17,17,17,17,17,17,17,16,17,17,17,17,16,17,17,17,17,17,16,17,16,17,16,17,17,16,17,17,17,17,16,17,17,17,16,18,17,17,16,17,17,17,17,17,17,17,17,17,17,17,16,17,17,17,16,18,17,17,17,17,17,17,17,17,17,17,17,16,17,17,17,17,17,17,17,17,17,17,16,17,17,16,17,17,17,17,17,17,17,17,17,16,17,17,17,17,17,17,16,17,16,17,17,17,17,17,17,17,17,17,17,17,17,17,16,17]","120","735","461.5","true","15","15","#111","1","true","2","transparent","1470","923","3","72","","","","","",""
"2014","
        <div class=""response-container"">
          <div class=""response-instruction"">
            <p>rotate the bar by using the left and right arrow keys.</p>
            <p>when you are determined, press the Enter key.</p>
          </div>
          <div class=""response-circle"">
            <div class=""response-fixation""></div>
            <div id=""bar"" class=""rotating-bar""></div>
          </div>
        </div>
      ","Enter","html-keyboard-response","61","2.0.0","389903","black","","","","","","","","","","","","","","","","","","","","","","","","","","","","","","","","","","","","","","","","","","3","","76","14","11","7","98",""
"null","
          <p style=""color: #00FF00;"">Your reward: 7 points</p>
        ","null","html-keyboard-response","62","2.0.0","391906","","","","","","","","","","","","","","","","","","","","","","","","","","","","","","","","","","","","","","","","","","","","","","","","","",""
"null","<div class=""fixation"" style=""font-size: 60px;"">+</div>","null","html-keyboard-response","63","2.0.0","392908","","","","","","","","","","","","","","","","","","","","","","","","","","","","","","","","","","","","","","","","","","","","","","","","","",""
"-1","","","rdk","64","2.0.0","394913","white","0","W_H_vs_B_L_rep13","false","ALL_KEYS","[""a""]","2000","[]","false","2","[100,100]","1","[232,181]","1","0","2","1","-1","1","300","300","[""white"",""black""]","circle","#AAA","3","2","2","16.974789915966387","[22,17,17,17,17,17,17,17,17,17,16,17,17,16,18,17,17,17,17,16,18,16,18,17,17,16,18,16,17,18,16,18,16,18,17,17,17,17,17,17,16,17,17,16,18,16,17,18,16,18,16,18,16,17,18,17,16,18,16,17,17,16,17,17,17,16,17,18,16,18,17,17,17,17,17,16,18,17,17,17,17,16,18,17,17,16,17,17,17,15,18,17,17,17,17,17,17,17,16,18,16,16,18,17,17,16,17,18,16,17,16,17,18,17,16,18,17,16,18]","119","735","461.5","true","15","15","#111","1","true","2","transparent","1470","923","232","181","","","","","",""
"3165","
        <div class=""response-container"">
          <div class=""response-instruction"">
            <p>rotate the bar by using the left and right arrow keys.</p>
            <p>when you are determined, press the Enter key.</p>
          </div>
          <div class=""response-circle"">
            <div class=""response-fixation""></div>
            <div id=""bar"" class=""rotating-bar""></div>
          </div>
        </div>
      ","Enter","html-keyboard-response","65","2.0.0","398079","white","","","","","","","","","","","","","","","","","","","","","","","","","","","","","","","","","","","","","","","","","","232","","288","162","-19","0","98",""
"null","
          <p style=""color: #FF3333;"">Your reward: 0 points</p>
        ","null","html-keyboard-response","66","2.0.0","400082","","","","","","","","","","","","","","","","","","","","","","","","","","","","","","","","","","","","","","","","","","","","","","","","","",""
"null","<div class=""fixation"" style=""font-size: 60px;"">+</div>","null","html-keyboard-response","67","2.0.0","401085","","","","","","","","","","","","","","","","","","","","","","","","","","","","","","","","","","","","","","","","","","","","","","","","","",""
"-1","","","rdk","68","2.0.0","403089","black","0","B_H_vs_W_L_rep16","false","ALL_KEYS","[""a""]","2000","[]","false","2","[100,100]","1","[356,82]","1","0","2","1","-1","1","300","300","[""black"",""white""]","circle","#AAA","3","2","2","16.883333333333333","[13,17,17,17,17,17,17,17,17,17,16,18,16,17,17,17,17,17,17,16,17,17,16,17,17,17,17,17,17,17,16,17,17,17,17,17,17,17,17,17,17,17,17,17,17,17,17,16,17,17,17,17,17,16,18,17,16,18,16,17,17,17,17,17,17,17,17,17,17,17,17,17,16,18,17,17,17,17,17,17,17,17,17,17,17,17,17,17,16,18,16,17,17,17,17,17,16,17,17,17,17,17,17,17,17,17,17,17,16,17,17,17,17,17,17,17,17,17,17,16]","120","735","461.5","true","15","15","#111","1","true","2","transparent","1470","923","356","82","","","","","",""
"1574","
        <div class=""response-container"">
          <div class=""response-instruction"">
            <p>rotate the bar by using the left and right arrow keys.</p>
            <p>when you are determined, press the Enter key.</p>
          </div>
          <div class=""response-circle"">
            <div class=""response-fixation""></div>
            <div id=""bar"" class=""rotating-bar""></div>
          </div>
        </div>
      ","Enter","html-keyboard-response","69","2.0.0","404664","black","","","","","","","","","","","","","","","","","","","","","","","","","","","","","","","","","","","","","","","","","","356","","106","344","-12","7","98",""
"null","
          <p style=""color: #00FF00;"">Your reward: 7 points</p>
        ","null","html-keyboard-response","70","2.0.0","406667","","","","","","","","","","","","","","","","","","","","","","","","","","","","","","","","","","","","","","","","","","","","","","","","","",""
"null","<div class=""fixation"" style=""font-size: 60px;"">+</div>","null","html-keyboard-response","71","2.0.0","407670","","","","","","","","","","","","","","","","","","","","","","","","","","","","","","","","","","","","","","","","","","","","","","","","","",""
"-1","","","rdk","72","2.0.0","409673","white","1","W_H_vs_B_L_rep15","false","ALL_KEYS","[""a""]","2000","[]","false","2","[100,100]","1","[158,233]","1","0","2","1","-1","1","300","300","[""black"",""white""]","circle","#AAA","3","2","2","16.841666666666665","[12,16,17,16,17,17,17,17,17,17,17,17,17,17,17,17,17,16,16,18,17,17,17,17,16,17,17,17,17,17,16,17,17,17,17,16,17,17,16,17,17,17,16,17,17,17,17,17,17,17,17,17,17,17,17,16,16,17,17,17,17,16,17,17,17,17,17,17,17,17,17,17,17,17,17,17,17,16,18,17,17,17,17,16,17,17,17,17,17,17,17,17,17,16,17,17,16,17,17,17,17,17,17,17,17,17,17,17,17,17,17,17,17,17,17,17,17,17,17,17]","120","735","461.5","true","15","15","#111","1","true","2","transparent","1470","923","233","158","","","","","",""
"5436","
        <div class=""response-container"">
          <div class=""response-instruction"">
            <p>rotate the bar by using the left and right arrow keys.</p>
            <p>when you are determined, press the Enter key.</p>
          </div>
          <div class=""response-circle"">
            <div class=""response-fixation""></div>
            <div id=""bar"" class=""rotating-bar""></div>
          </div>
        </div>
      ","Enter","html-keyboard-response","73","2.0.0","415110","white","","","","","","","","","","","","","","","","","","","","","","","","","","","","","","","","","","","","","","","","","","233","","213","237","4","9","98",""
"null","
          <p style=""color: #00FF00;"">Your reward: 9 points</p>
        ","null","html-keyboard-response","74","2.0.0","417112","","","","","","","","","","","","","","","","","","","","","","","","","","","","","","","","","","","","","","","","","","","","","","","","","",""
"null","<div class=""fixation"" style=""font-size: 60px;"">+</div>","null","html-keyboard-response","75","2.0.0","418116","","","","","","","","","","","","","","","","","","","","","","","","","","","","","","","","","","","","","","","","","","","","","","","","","",""
"-1","","","rdk","76","2.0.0","420119","white","1","W_H_vs_B_L_rep5","false","ALL_KEYS","[""a""]","2000","[]","false","2","[100,100]","1","[153,235]","1","0","2","1","-1","1","300","300","[""black"",""white""]","circle","#AAA","3","2","2","16.883333333333333","[16,17,17,17,17,17,17,17,16,17,17,17,17,17,17,17,17,17,17,17,17,17,16,17,17,17,17,16,17,17,17,17,17,17,17,17,17,17,17,17,16,17,17,17,17,17,17,17,17,17,17,17,17,17,17,17,17,16,17,16,17,17,17,17,17,17,17,16,17,17,16,17,17,17,17,17,17,16,18,16,18,17,15,17,17,17,17,17,16,17,17,17,17,17,17,16,18,16,17,17,17,17,17,17,17,17,17,17,17,17,17,17,17,17,17,17,16,17,17,17]","120","735","461.5","true","15","15","#111","1","true","2","transparent","1470","923","235","153","","","","","",""
"1690","
        <div class=""response-container"">
          <div class=""response-instruction"">
            <p>rotate the bar by using the left and right arrow keys.</p>
            <p>when you are determined, press the Enter key.</p>
          </div>
          <div class=""response-circle"">
            <div class=""response-fixation""></div>
            <div id=""bar"" class=""rotating-bar""></div>
          </div>
        </div>
      ","Enter","html-keyboard-response","77","2.0.0","421810","white","","","","","","","","","","","","","","","","","","","","","","","","","","","","","","","","","","","","","","","","","","235","","298","152","-1","0","98",""
"null","
          <p style=""color: #FF3333;"">Your reward: 0 points</p>
        ","null","html-keyboard-response","78","2.0.0","423813","","","","","","","","","","","","","","","","","","","","","","","","","","","","","","","","","","","","","","","","","","","","","","","","","",""
"null","<div class=""fixation"" style=""font-size: 60px;"">+</div>","null","html-keyboard-response","79","2.0.0","424815","","","","","","","","","","","","","","","","","","","","","","","","","","","","","","","","","","","","","","","","","","","","","","","","","",""
"-1","","","rdk","80","2.0.0","426818","white","0","W_H_vs_B_L_rep10","false","ALL_KEYS","[""a""]","2000","[]","false","2","[100,100]","1","[251,179]","1","0","2","1","-1","1","300","300","[""white"",""black""]","circle","#AAA","3","2","2","16.908333333333335","[16,17,17,17,17,17,17,17,17,17,16,17,17,17,17,17,17,17,17,17,17,17,17,17,17,17,17,17,17,17,17,17,17,17,16,17,17,17,17,17,16,17,17,17,17,17,17,16,17,17,17,17,16,17,17,17,17,17,17,17,17,17,17,17,17,17,17,17,17,17,17,17,17,17,17,17,17,17,17,16,18,16,17,17,17,17,17,17,17,17,17,17,17,17,16,17,17,16,17,17,17,17,17,17,17,17,16,16,17,17,17,17,17,17,17,17,17,17,17,17]","120","735","461.5","true","15","15","#111","1","true","2","transparent","1470","923","251","179","","","","","",""
"1299","
        <div class=""response-container"">
          <div class=""response-instruction"">
            <p>rotate the bar by using the left and right arrow keys.</p>
            <p>when you are determined, press the Enter key.</p>
          </div>
          <div class=""response-circle"">
            <div class=""response-fixation""></div>
            <div id=""bar"" class=""rotating-bar""></div>
          </div>
        </div>
      ","Enter","html-keyboard-response","81","2.0.0","428118","white","","","","","","","","","","","","","","","","","","","","","","","","","","","","","","","","","","","","","","","","","","251","","210","240","-11","7","98",""
"null","
          <p style=""color: #00FF00;"">Your reward: 7 points</p>
        ","null","html-keyboard-response","82","2.0.0","430120","","","","","","","","","","","","","","","","","","","","","","","","","","","","","","","","","","","","","","","","","","","","","","","","","",""
"null","<div class=""fixation"" style=""font-size: 60px;"">+</div>","null","html-keyboard-response","83","2.0.0","431123","","","","","","","","","","","","","","","","","","","","","","","","","","","","","","","","","","","","","","","","","","","","","","","","","",""
"-1","","","rdk","84","2.0.0","433127","black","1","B_H_vs_W_L_rep10","false","ALL_KEYS","[""a""]","2000","[]","false","2","[100,100]","1","[53,331]","1","0","2","1","-1","1","300","300","[""white"",""black""]","circle","#AAA","3","2","2","16.833333333333332","[7,17,17,17,17,17,17,17,17,17,17,17,17,17,17,17,17,17,17,16,17,17,17,17,17,16,17,16,16,18,17,17,17,17,17,17,17,17,17,17,17,17,17,17,17,17,17,17,17,17,16,17,17,17,17,16,17,17,17,17,17,17,17,17,17,17,17,17,17,17,17,17,17,17,17,17,17,17,17,17,17,17,17,17,16,17,17,17,16,16,17,17,17,17,17,17,17,17,17,17,17,17,17,17,17,16,17,17,17,16,17,17,17,16,18,17,17,17,17,17]","120","735","461.5","true","15","15","#111","1","true","2","transparent","1470","923","331","53","","","","","",""
"2528","
        <div class=""response-container"">
          <div class=""response-instruction"">
            <p>rotate the bar by using the left and right arrow keys.</p>
            <p>when you are determined, press the Enter key.</p>
          </div>
          <div class=""response-circle"">
            <div class=""response-fixation""></div>
            <div id=""bar"" class=""rotating-bar""></div>
          </div>
        </div>
      ","Enter","html-keyboard-response","85","2.0.0","435656","black","","","","","","","","","","","","","","","","","","","","","","","","","","","","","","","","","","","","","","","","","","331","","119","331","0","10","98",""
"null","
          <p style=""color: #00FF00;"">Your reward: 10 points</p>
        ","null","html-keyboard-response","86","2.0.0","437658","","","","","","","","","","","","","","","","","","","","","","","","","","","","","","","","","","","","","","","","","","","","","","","","","",""
"null","<div class=""fixation"" style=""font-size: 60px;"">+</div>","null","html-keyboard-response","87","2.0.0","438661","","","","","","","","","","","","","","","","","","","","","","","","","","","","","","","","","","","","","","","","","","","","","","","","","",""
"-1","","","rdk","88","2.0.0","440665","black","0","B_H_vs_W_L_rep11","false","ALL_KEYS","[""a""]","2000","[]","false","2","[100,100]","1","[348,78]","1","0","2","1","-1","1","300","300","[""black"",""white""]","circle","#AAA","3","2","2","16.84873949579832","[20,17,17,16,18,17,16,17,17,16,17,17,17,16,17,16,17,17,16,17,17,16,17,17,16,17,17,17,17,17,16,17,17,17,17,16,18,17,17,17,17,17,17,17,17,17,16,17,17,17,17,17,17,17,17,17,17,17,17,16,17,16,16,17,17,17,16,17,17,17,17,17,17,17,17,17,16,17,17,17,17,17,17,16,17,17,17,17,17,17,17,17,17,17,17,16,17,16,17,17,17,17,17,16,17,17,17,17,16,16,17,17,16,18,17,16,17,17,17]","119","735","461.5","true","15","15","#111","1","true","2","transparent","1470","923","348","78","","","","","",""
"3612","
        <div class=""response-container"">
          <div class=""response-instruction"">
            <p>rotate the bar by using the left and right arrow keys.</p>
            <p>when you are determined, press the Enter key.</p>
          </div>
          <div class=""response-circle"">
            <div class=""response-fixation""></div>
            <div id=""bar"" class=""rotating-bar""></div>
          </div>
        </div>
      ","Enter","html-keyboard-response","89","2.0.0","444278","black","","","","","","","","","","","","","","","","","","","","","","","","","","","","","","","","","","","","","","","","","","348","","481","329","-19","5","98",""
"null","
          <p style=""color: #00FF00;"">Your reward: 5 points</p>
        ","null","html-keyboard-response","90","2.0.0","446281","","","","","","","","","","","","","","","","","","","","","","","","","","","","","","","","","","","","","","","","","","","","","","","","","",""
"null","<div class=""fixation"" style=""font-size: 60px;"">+</div>","null","html-keyboard-response","91","2.0.0","447284","","","","","","","","","","","","","","","","","","","","","","","","","","","","","","","","","","","","","","","","","","","","","","","","","",""
"-1","","","rdk","92","2.0.0","449287","black","1","B_H_vs_W_L_rep9","false","ALL_KEYS","[""a""]","2000","[]","false","2","[100,100]","1","[53,348]","1","0","2","1","-1","1","300","300","[""white"",""black""]","circle","#AAA","3","2","2","16.908333333333335","[14,17,17,17,17,17,16,17,17,16,18,17,17,17,17,17,17,17,16,17,16,17,17,17,17,17,17,17,17,17,17,17,17,17,17,17,17,16,17,17,17,17,16,17,17,17,17,17,17,17,17,17,17,17,17,17,17,17,17,17,17,17,17,17,17,17,17,17,17,16,18,17,17,17,17,17,17,17,16,17,17,17,17,17,17,17,16,18,17,17,17,17,17,17,17,17,17,17,17,17,17,17,16,17,17,17,17,17,17,17,17,17,17,16,17,17,17,16,18,17]","120","735","461.5","true","15","15","#111","1","true","2","transparent","1470","923","348","53","","","","","",""
"2583","
        <div class=""response-container"">
          <div class=""response-instruction"">
            <p>rotate the bar by using the left and right arrow keys.</p>
            <p>when you are determined, press the Enter key.</p>
          </div>
          <div class=""response-circle"">
            <div class=""response-fixation""></div>
            <div id=""bar"" class=""rotating-bar""></div>
          </div>
        </div>
      ","Enter","html-keyboard-response","93","2.0.0","451870","black","","","","","","","","","","","","","","","","","","","","","","","","","","","","","","","","","","","","","","","","","","348","","111","339","-9","8","98",""
"null","
          <p style=""color: #00FF00;"">Your reward: 8 points</p>
        ","null","html-keyboard-response","94","2.0.0","453873","","","","","","","","","","","","","","","","","","","","","","","","","","","","","","","","","","","","","","","","","","","","","","","","","",""
"null","<div class=""fixation"" style=""font-size: 60px;"">+</div>","null","html-keyboard-response","95","2.0.0","454876","","","","","","","","","","","","","","","","","","","","","","","","","","","","","","","","","","","","","","","","","","","","","","","","","",""
"-1","","","rdk","96","2.0.0","456880","black","0","B_H_vs_W_L_rep15","false","ALL_KEYS","[""a""]","2000","[]","false","2","[100,100]","1","[359,52]","1","0","2","1","-1","1","300","300","[""black"",""white""]","circle","#AAA","3","2","2","16.949579831932773","[22,17,17,17,17,17,16,17,17,17,17,17,17,17,17,17,17,17,17,17,17,17,17,17,17,16,17,17,16,18,16,17,17,16,16,17,17,17,17,17,17,17,16,17,17,17,17,17,17,17,17,17,17,17,17,17,17,17,17,17,17,17,17,17,17,16,18,17,17,16,17,16,17,17,17,17,17,17,16,18,17,17,16,17,17,17,17,17,17,17,17,17,17,17,17,17,16,18,17,17,17,16,16,18,17,17,17,17,17,17,16,17,17,17,17,17,17,17,17]","119","735","461.5","true","15","15","#111","1","true","2","transparent","1470","923","359","52","","","","","",""
"3151","
        <div class=""response-container"">
          <div class=""response-instruction"">
            <p>rotate the bar by using the left and right arrow keys.</p>
            <p>when you are determined, press the Enter key.</p>
          </div>
          <div class=""response-circle"">
            <div class=""response-fixation""></div>
            <div id=""bar"" class=""rotating-bar""></div>
          </div>
        </div>
      ","Enter","html-keyboard-response","97","2.0.0","460033","black","","","","","","","","","","","","","","","","","","","","","","","","","","","","","","","","","","","","","","","","","","359","","472","338","-21","5","98",""
"null","
          <p style=""color: #00FF00;"">Your reward: 5 points</p>
        ","null","html-keyboard-response","98","2.0.0","462035","","","","","","","","","","","","","","","","","","","","","","","","","","","","","","","","","","","","","","","","","","","","","","","","","",""
"null","<div class=""fixation"" style=""font-size: 60px;"">+</div>","null","html-keyboard-response","99","2.0.0","463038","","","","","","","","","","","","","","","","","","","","","","","","","","","","","","","","","","","","","","","","","","","","","","","","","",""
"-1","","","rdk","100","2.0.0","465042","black","0","B_H_vs_W_L_rep6","false","ALL_KEYS","[""a""]","2000","[]","false","2","[100,100]","1","[340,62]","1","0","2","1","-1","1","300","300","[""black"",""white""]","circle","#AAA","3","2","2","16.841666666666665","[10,17,17,17,17,17,17,17,16,17,17,17,17,17,17,17,17,17,17,17,17,17,17,17,17,17,17,16,17,17,17,17,17,17,17,16,17,17,17,17,17,17,17,17,17,17,17,17,17,17,17,17,17,17,16,17,17,16,17,17,16,17,17,16,17,17,17,17,17,17,17,17,17,17,17,17,17,17,17,16,17,17,16,17,17,17,17,17,17,16,17,17,17,16,17,17,17,17,17,17,17,17,17,17,17,17,17,17,17,17,17,17,17,17,17,17,17,17,16,17]","120","735","461.5","true","15","15","#111","1","true","2","transparent","1470","923","340","62","","","","","",""
"2334","
        <div class=""response-container"">
          <div class=""response-instruction"">
            <p>rotate the bar by using the left and right arrow keys.</p>
            <p>when you are determined, press the Enter key.</p>
          </div>
          <div class=""response-circle"">
            <div class=""response-fixation""></div>
            <div id=""bar"" class=""rotating-bar""></div>
          </div>
        </div>
      ","Enter","html-keyboard-response","101","2.0.0","467377","black","","","","","","","","","","","","","","","","","","","","","","","","","","","","","","","","","","","","","","","","","","340","","480","330","-10","7","98",""
"null","
          <p style=""color: #00FF00;"">Your reward: 7 points</p>
        ","null","html-keyboard-response","102","2.0.0","469379","","","","","","","","","","","","","","","","","","","","","","","","","","","","","","","","","","","","","","","","","","","","","","","","","",""
"null","<div class=""fixation"" style=""font-size: 60px;"">+</div>","null","html-keyboard-response","103","2.0.0","470382","","","","","","","","","","","","","","","","","","","","","","","","","","","","","","","","","","","","","","","","","","","","","","","","","",""
"-1","","","rdk","104","2.0.0","472386","white","0","W_H_vs_B_L_rep12","false","ALL_KEYS","[""a""]","2000","[]","false","2","[100,100]","1","[233,145]","1","0","2","1","-1","1","300","300","[""white"",""black""]","circle","#AAA","3","2","2","16.9","[15,17,17,17,17,16,17,17,17,17,16,18,16,17,17,17,17,17,17,17,17,16,16,17,17,17,17,17,17,17,17,17,16,17,17,17,17,17,17,17,17,17,17,17,17,17,17,17,17,17,17,16,18,17,17,17,17,17,17,17,17,17,17,17,17,17,17,17,17,17,17,17,16,17,16,17,17,17,17,17,16,17,17,17,17,17,17,17,17,16,17,17,17,17,17,17,17,17,17,17,17,16,17,17,17,17,17,17,17,17,16,18,17,17,17,17,17,17,17,17]","120","735","461.5","true","15","15","#111","1","true","2","transparent","1470","923","233","145","","","","","",""
"2627","
        <div class=""response-container"">
          <div class=""response-instruction"">
            <p>rotate the bar by using the left and right arrow keys.</p>
            <p>when you are determined, press the Enter key.</p>
          </div>
          <div class=""response-circle"">
            <div class=""response-fixation""></div>
            <div id=""bar"" class=""rotating-bar""></div>
          </div>
        </div>
      ","Enter","html-keyboard-response","105","2.0.0","475013","white","","","","","","","","","","","","","","","","","","","","","","","","","","","","","","","","","","","","","","","","","","233","","-152","242","9","8","98",""
"null","
          <p style=""color: #00FF00;"">Your reward: 8 points</p>
        ","null","html-keyboard-response","106","2.0.0","477016","","","","","","","","","","","","","","","","","","","","","","","","","","","","","","","","","","","","","","","","","","","","","","","","","",""
"null","<div class=""fixation"" style=""font-size: 60px;"">+</div>","null","html-keyboard-response","107","2.0.0","478019","","","","","","","","","","","","","","","","","","","","","","","","","","","","","","","","","","","","","","","","","","","","","","","","","",""
"-1","","","rdk","108","2.0.0","480024","black","1","B_H_vs_W_L_rep14","false","ALL_KEYS","[""a""]","2000","[]","false","2","[100,100]","1","[54,357]","1","0","2","1","-1","1","300","300","[""white"",""black""]","circle","#AAA","3","2","2","16.875","[11,17,16,18,17,17,16,17,17,17,17,17,17,17,17,17,17,17,17,17,17,17,17,17,17,17,17,17,17,16,17,17,17,17,16,17,16,17,16,18,17,17,17,17,17,17,17,17,17,17,17,17,17,17,17,17,17,17,17,17,17,17,17,17,17,17,17,17,17,17,17,17,17,17,17,17,17,17,17,17,17,17,16,17,17,17,16,17,17,17,17,17,16,17,16,17,17,17,17,17,17,17,17,17,17,17,17,17,17,17,17,16,17,17,17,17,17,17,17,17]","120","735","461.5","true","15","15","#111","1","true","2","transparent","1470","923","357","54","","","","","",""
"2248","
        <div class=""response-container"">
          <div class=""response-instruction"">
            <p>rotate the bar by using the left and right arrow keys.</p>
            <p>when you are determined, press the Enter key.</p>
          </div>
          <div class=""response-circle"">
            <div class=""response-fixation""></div>
            <div id=""bar"" class=""rotating-bar""></div>
          </div>
        </div>
      ","Enter","html-keyboard-response","109","2.0.0","482273","black","","","","","","","","","","","","","","","","","","","","","","","","","","","","","","","","","","","","","","","","","","357","","466","344","-13","7","98",""
"null","
          <p style=""color: #00FF00;"">Your reward: 7 points</p>
        ","null","html-keyboard-response","110","2.0.0","484275","","","","","","","","","","","","","","","","","","","","","","","","","","","","","","","","","","","","","","","","","","","","","","","","","",""
"null","<div class=""fixation"" style=""font-size: 60px;"">+</div>","null","html-keyboard-response","111","2.0.0","485277","","","","","","","","","","","","","","","","","","","","","","","","","","","","","","","","","","","","","","","","","","","","","","","","","",""
"-1","","","rdk","112","2.0.0","487282","black","0","B_H_vs_W_L_rep5","false","ALL_KEYS","[""a""]","2000","[]","false","2","[100,100]","1","[0,82]","1","0","2","1","-1","1","300","300","[""black"",""white""]","circle","#AAA","3","2","2","16.983193277310924","[20,17,17,17,17,17,17,16,17,17,17,17,17,17,17,17,17,17,16,17,17,17,17,17,17,17,17,17,17,17,17,17,17,17,17,17,17,17,17,16,17,17,17,17,17,17,17,17,17,17,17,17,17,17,17,17,17,17,17,17,17,17,17,17,17,17,17,17,17,17,16,17,17,17,17,17,17,17,16,17,17,17,17,17,17,17,17,17,17,17,17,17,17,17,17,17,17,17,17,17,17,17,17,17,17,17,17,17,17,17,17,17,17,17,17,17,17,17,17]","119","735","461.5","true","15","15","#111","1","true","2","transparent","1470","923","0","82","","","","","",""
"1547","
        <div class=""response-container"">
          <div class=""response-instruction"">
            <p>rotate the bar by using the left and right arrow keys.</p>
            <p>when you are determined, press the Enter key.</p>
          </div>
          <div class=""response-circle"">
            <div class=""response-fixation""></div>
            <div id=""bar"" class=""rotating-bar""></div>
          </div>
        </div>
      ","Enter","html-keyboard-response","113","2.0.0","488830","black","","","","","","","","","","","","","","","","","","","","","","","","","","","","","","","","","","","","","","","","","","0","","110","340","-20","5","98",""
"null","
          <p style=""color: #00FF00;"">Your reward: 5 points</p>
        ","null","html-keyboard-response","114","2.0.0","490834","","","","","","","","","","","","","","","","","","","","","","","","","","","","","","","","","","","","","","","","","","","","","","","","","",""
"null","<div class=""fixation"" style=""font-size: 60px;"">+</div>","null","html-keyboard-response","115","2.0.0","491835","","","","","","","","","","","","","","","","","","","","","","","","","","","","","","","","","","","","","","","","","","","","","","","","","",""
"-1","","","rdk","116","2.0.0","493838","white","0","W_H_vs_B_L_rep6","false","ALL_KEYS","[""a""]","2000","[]","false","2","[100,100]","1","[243,186]","1","0","2","1","-1","1","300","300","[""white"",""black""]","circle","#AAA","3","2","2","16.783333333333335","[13,17,16,18,17,17,16,17,16,17,17,16,17,17,17,17,17,16,17,17,17,17,16,17,17,17,17,16,18,17,17,17,17,16,17,16,17,17,17,17,17,17,17,17,17,16,17,17,17,17,17,17,16,17,17,17,17,17,17,17,16,17,17,17,17,17,17,17,17,16,17,16,17,17,17,17,17,16,17,16,17,16,17,16,17,17,17,16,18,17,17,16,17,16,17,16,18,17,17,17,16,17,16,17,17,16,17,16,17,17,17,17,17,17,17,17,17,17,17,17]","120","735","461.5","true","15","15","#111","1","true","2","transparent","1470","923","243","186","","","","","",""
"2170","
        <div class=""response-container"">
          <div class=""response-instruction"">
            <p>rotate the bar by using the left and right arrow keys.</p>
            <p>when you are determined, press the Enter key.</p>
          </div>
          <div class=""response-circle"">
            <div class=""response-fixation""></div>
            <div id=""bar"" class=""rotating-bar""></div>
          </div>
        </div>
      ","Enter","html-keyboard-response","117","2.0.0","496009","white","","","","","","","","","","","","","","","","","","","","","","","","","","","","","","","","","","","","","","","","","","243","","205","245","2","9","98",""
"null","
          <p style=""color: #00FF00;"">Your reward: 9 points</p>
        ","null","html-keyboard-response","118","2.0.0","498012","","","","","","","","","","","","","","","","","","","","","","","","","","","","","","","","","","","","","","","","","","","","","","","","","",""
"null","<div class=""fixation"" style=""font-size: 60px;"">+</div>","null","html-keyboard-response","119","2.0.0","499013","","","","","","","","","","","","","","","","","","","","","","","","","","","","","","","","","","","","","","","","","","","","","","","","","",""
"-1","","","rdk","120","2.0.0","501018","white","0","W_H_vs_B_L_rep16","false","ALL_KEYS","[""a""]","2000","[]","false","2","[100,100]","1","[270,183]","1","0","2","1","-1","1","300","300","[""white"",""black""]","circle","#AAA","3","2","2","16.875","[16,16,17,17,17,17,17,16,17,17,17,16,18,16,17,17,17,17,17,16,18,17,17,17,17,17,17,17,17,17,17,16,17,16,17,17,16,17,17,17,17,17,17,17,17,17,16,17,17,17,17,17,17,16,17,17,17,17,17,17,16,17,16,17,17,17,17,17,17,16,17,17,17,16,17,17,17,17,17,17,17,17,17,17,17,17,17,17,17,17,17,17,17,17,16,17,17,16,18,17,17,17,17,16,17,17,17,17,17,17,17,17,16,18,17,17,17,17,17,17]","120","735","461.5","true","15","15","#111","1","true","2","transparent","1470","923","270","183","","","","","",""
"2642","
        <div class=""response-container"">
          <div class=""response-instruction"">
            <p>rotate the bar by using the left and right arrow keys.</p>
            <p>when you are determined, press the Enter key.</p>
          </div>
          <div class=""response-circle"">
            <div class=""response-fixation""></div>
            <div id=""bar"" class=""rotating-bar""></div>
          </div>
        </div>
      ","Enter","html-keyboard-response","121","2.0.0","503661","white","","","","","","","","","","","","","","","","","","","","","","","","","","","","","","","","","","","","","","","","","","270","","189","261","-9","8","98",""
"null","
          <p style=""color: #00FF00;"">Your reward: 8 points</p>
        ","null","html-keyboard-response","122","2.0.0","505663","","","","","","","","","","","","","","","","","","","","","","","","","","","","","","","","","","","","","","","","","","","","","","","","","",""
"null","<div class=""fixation"" style=""font-size: 60px;"">+</div>","null","html-keyboard-response","123","2.0.0","506666","","","","","","","","","","","","","","","","","","","","","","","","","","","","","","","","","","","","","","","","","","","","","","","","","",""
"-1","","","rdk","124","2.0.0","508670","black","0","B_H_vs_W_L_rep12","false","ALL_KEYS","[""a""]","2000","[]","false","2","[100,100]","1","[350,56]","1","0","2","1","-1","1","300","300","[""black"",""white""]","circle","#AAA","3","2","2","16.925","[13,17,17,17,17,17,17,17,17,17,17,17,17,17,17,17,17,17,17,17,17,17,17,16,18,17,17,17,16,17,17,17,17,17,17,17,17,17,17,17,17,17,17,16,17,17,17,17,17,17,17,17,17,17,16,17,17,17,17,17,17,17,17,17,16,17,17,17,17,17,17,17,17,17,17,17,17,17,17,17,17,17,17,17,17,17,17,17,17,17,17,17,17,17,17,17,17,17,17,17,17,17,17,17,17,17,17,17,17,17,17,17,17,17,17,16,17,17,17,17]","120","735","461.5","true","15","15","#111","1","true","2","transparent","1470","923","350","56","","","","","",""
"1600","
        <div class=""response-container"">
          <div class=""response-instruction"">
            <p>rotate the bar by using the left and right arrow keys.</p>
            <p>when you are determined, press the Enter key.</p>
          </div>
          <div class=""response-circle"">
            <div class=""response-fixation""></div>
            <div id=""bar"" class=""rotating-bar""></div>
          </div>
        </div>
      ","Enter","html-keyboard-response","125","2.0.0","510270","black","","","","","","","","","","","","","","","","","","","","","","","","","","","","","","","","","","","","","","","","","","350","","100","350","0","10","98",""
"null","
          <p style=""color: #00FF00;"">Your reward: 10 points</p>
        ","null","html-keyboard-response","126","2.0.0","512273","","","","","","","","","","","","","","","","","","","","","","","","","","","","","","","","","","","","","","","","","","","","","","","","","",""
"null","<div class=""fixation"" style=""font-size: 60px;"">+</div>","null","html-keyboard-response","127","2.0.0","513275","","","","","","","","","","","","","","","","","","","","","","","","","","","","","","","","","","","","","","","","","","","","","","","","","",""
"-1","","","rdk","128","2.0.0","515280","black","1","B_H_vs_W_L_rep1","false","ALL_KEYS","[""a""]","2000","[]","false","2","[100,100]","1","[80,3]","1","0","2","1","-1","1","300","300","[""white"",""black""]","circle","#AAA","3","2","2","16.974789915966387","[22,16,17,17,17,17,16,17,17,17,17,17,17,17,17,17,17,17,16,17,17,17,17,17,17,17,17,17,17,17,17,17,17,17,17,17,17,17,16,18,17,17,17,17,17,17,17,17,16,17,17,17,17,16,18,17,17,17,17,16,17,17,17,16,18,17,17,17,17,17,17,17,17,17,17,17,17,17,16,17,17,17,17,17,16,16,18,17,16,17,17,16,18,17,17,17,17,17,17,17,17,17,17,17,17,17,17,17,17,17,17,17,17,17,17,17,17,17,17]","119","735","461.5","true","15","15","#111","1","true","2","transparent","1470","923","3","80","","","","","",""
"3475","
        <div class=""response-container"">
          <div class=""response-instruction"">
            <p>rotate the bar by using the left and right arrow keys.</p>
            <p>when you are determined, press the Enter key.</p>
          </div>
          <div class=""response-circle"">
            <div class=""response-fixation""></div>
            <div id=""bar"" class=""rotating-bar""></div>
          </div>
        </div>
      ","Enter","html-keyboard-response","129","2.0.0","518756","black","","","","","","","","","","","","","","","","","","","","","","","","","","","","","","","","","","","","","","","","","","3","","463","347","-16","6","98",""
"null","
          <p style=""color: #00FF00;"">Your reward: 6 points</p>
        ","null","html-keyboard-response","130","2.0.0","520759","","","","","","","","","","","","","","","","","","","","","","","","","","","","","","","","","","","","","","","","","","","","","","","","","",""
"null","<div class=""fixation"" style=""font-size: 60px;"">+</div>","null","html-keyboard-response","131","2.0.0","521761","","","","","","","","","","","","","","","","","","","","","","","","","","","","","","","","","","","","","","","","","","","","","","","","","",""
"-1","","","rdk","132","2.0.0","523765","white","1","W_H_vs_B_L_rep4","false","ALL_KEYS","[""a""]","2000","[]","false","2","[100,100]","1","[179,267]","1","0","2","1","-1","1","300","300","[""black"",""white""]","circle","#AAA","3","2","2","16.941176470588236","[19,17,17,17,17,17,17,17,17,17,17,17,17,17,17,17,17,17,17,17,17,17,16,17,17,17,17,17,17,17,16,17,17,17,17,17,17,17,17,17,17,17,17,17,17,17,17,17,17,16,16,18,17,17,17,17,17,16,17,17,17,17,16,18,17,17,17,17,17,17,17,17,17,16,17,17,17,17,16,17,17,17,17,17,16,17,17,17,17,17,17,17,17,17,17,17,17,17,17,17,17,17,17,17,16,17,17,16,17,17,17,17,17,17,17,17,17,17,17]","119","735","461.5","true","15","15","#111","1","true","2","transparent","1470","923","267","179","","","","","",""
"3397","
        <div class=""response-container"">
          <div class=""response-instruction"">
            <p>rotate the bar by using the left and right arrow keys.</p>
            <p>when you are determined, press the Enter key.</p>
          </div>
          <div class=""response-circle"">
            <div class=""response-fixation""></div>
            <div id=""bar"" class=""rotating-bar""></div>
          </div>
        </div>
      ","Enter","html-keyboard-response","133","2.0.0","527164","white","","","","","","","","","","","","","","","","","","","","","","","","","","","","","","","","","","","","","","","","","","267","","-165","255","-12","7","98",""
"null","
          <p style=""color: #00FF00;"">Your reward: 7 points</p>
        ","null","html-keyboard-response","134","2.0.0","529166","","","","","","","","","","","","","","","","","","","","","","","","","","","","","","","","","","","","","","","","","","","","","","","","","",""
"null","<div class=""fixation"" style=""font-size: 60px;"">+</div>","null","html-keyboard-response","135","2.0.0","530169","","","","","","","","","","","","","","","","","","","","","","","","","","","","","","","","","","","","","","","","","","","","","","","","","",""
"-1","","","rdk","136","2.0.0","532173","white","0","W_H_vs_B_L_rep1","false","ALL_KEYS","[""a""]","2000","[]","false","2","[100,100]","1","[239,149]","1","0","2","1","-1","1","300","300","[""white"",""black""]","circle","#AAA","3","2","2","16.891666666666666","[11,17,17,17,17,17,17,17,17,17,17,17,17,17,17,17,17,17,17,17,17,17,16,17,16,17,17,17,17,17,17,17,17,16,17,17,17,17,17,17,17,16,17,17,17,17,17,17,17,17,17,17,17,17,16,17,17,17,17,17,17,17,17,17,17,17,17,17,17,17,17,17,17,17,17,17,17,17,17,17,17,17,17,17,17,16,17,17,16,18,17,17,17,17,17,17,17,17,17,17,17,16,17,17,17,16,18,17,17,17,17,17,17,17,17,17,17,17,17,17]","120","735","461.5","true","15","15","#111","1","true","2","transparent","1470","923","239","149","","","","","",""
"1040","
        <div class=""response-container"">
          <div class=""response-instruction"">
            <p>rotate the bar by using the left and right arrow keys.</p>
            <p>when you are determined, press the Enter key.</p>
          </div>
          <div class=""response-circle"">
            <div class=""response-fixation""></div>
            <div id=""bar"" class=""rotating-bar""></div>
          </div>
        </div>
      ","Enter","html-keyboard-response","137","2.0.0","533214","white","","","","","","","","","","","","","","","","","","","","","","","","","","","","","","","","","","","","","","","","","","239","","336","114","-35","0","98",""
"null","
          <p style=""color: #FF3333;"">Your reward: 0 points</p>
        ","null","html-keyboard-response","138","2.0.0","535216","","","","","","","","","","","","","","","","","","","","","","","","","","","","","","","","","","","","","","","","","","","","","","","","","",""
"null","<div class=""fixation"" style=""font-size: 60px;"">+</div>","null","html-keyboard-response","139","2.0.0","536219","","","","","","","","","","","","","","","","","","","","","","","","","","","","","","","","","","","","","","","","","","","","","","","","","",""
"-1","","","rdk","140","2.0.0","538223","black","0","B_H_vs_W_L_rep3","false","ALL_KEYS","[""a""]","2000","[]","false","2","[100,100]","1","[6,58]","1","0","2","1","-1","1","300","300","[""black"",""white""]","circle","#AAA","3","2","2","16.866666666666667","[10,17,17,17,17,17,17,17,17,17,17,17,17,16,18,16,17,17,17,17,17,17,16,17,17,17,17,16,17,17,17,16,18,16,16,18,17,17,16,16,18,17,17,17,17,17,17,17,17,17,17,17,17,17,17,17,17,17,16,18,16,17,17,16,17,17,17,17,17,17,17,17,17,17,17,17,17,17,17,17,17,17,16,17,17,17,17,17,17,17,17,17,17,17,17,17,17,17,17,17,17,17,17,17,17,17,17,17,17,17,17,17,17,17,17,17,16,17,17,17]","120","735","461.5","true","15","15","#111","1","true","2","transparent","1470","923","6","58","","","","","",""
"2287","
        <div class=""response-container"">
          <div class=""response-instruction"">
            <p>rotate the bar by using the left and right arrow keys.</p>
            <p>when you are determined, press the Enter key.</p>
          </div>
          <div class=""response-circle"">
            <div class=""response-fixation""></div>
            <div id=""bar"" class=""rotating-bar""></div>
          </div>
        </div>
      ","Enter","html-keyboard-response","141","2.0.0","540511","black","","","","","","","","","","","","","","","","","","","","","","","","","","","","","","","","","","","","","","","","","","6","","86","4","-2","9","98",""
"null","
          <p style=""color: #00FF00;"">Your reward: 9 points</p>
        ","null","html-keyboard-response","142","2.0.0","542514","","","","","","","","","","","","","","","","","","","","","","","","","","","","","","","","","","","","","","","","","","","","","","","","","",""
"2272","","","html-keyboard-response","143","2.0.0","574790","","","","","","","","","","","","","","","","","","","","","","","","","","","","","","","","","","","","","","","","","","","","","","","","","","Enter"
"null","<div class=""fixation"" style=""font-size: 60px;"">+</div>","null","html-keyboard-response","144","2.0.0","575792","","","","","","","","","","","","","","","","","","","","","","","","","","","","","","","","","","","","","","","","","","","","","","","","","",""
"-1","","","rdk","145","2.0.0","577797","white","1","W_H_vs_B_L_rep3","false","ALL_KEYS","[""a""]","2000","[]","false","2","[100,100]","1","[47,119]","1","0","2","1","-1","1","300","300","[""black"",""white""]","circle","#AAA","3","2","2","16.941176470588236","[21,17,16,17,16,18,17,17,17,17,17,17,17,16,17,17,17,17,16,18,16,18,17,17,17,16,18,17,17,17,16,18,17,16,17,17,17,16,17,17,17,17,17,16,18,17,17,16,17,17,17,16,17,17,17,17,16,18,16,18,17,17,16,18,16,18,17,17,17,16,18,17,17,17,17,17,16,17,17,17,17,17,17,17,17,17,16,18,17,16,17,17,17,17,16,18,17,17,17,17,17,17,16,18,17,17,17,17,16,16,18,17,17,16,16,17,17,17,17]","119","735","461.5","true","15","15","#111","1","true","2","transparent","1470","923","119","47","","","","","",""
"1295","
        <div class=""response-container"">
          <div class=""response-instruction"">
            <p>rotate the bar by using the left and right arrow keys.</p>
            <p>when you are determined, press the Enter key.</p>
          </div>
          <div class=""response-circle"">
            <div class=""response-fixation""></div>
            <div id=""bar"" class=""rotating-bar""></div>
          </div>
        </div>
      ","Enter","html-keyboard-response","146","2.0.0","579094","white","","","","","","","","","","","","","","","","","","","","","","","","","","","","","","","","","","","","","","","","","","119","","46","44","-3","0","98",""
"null","
          <p style=""color: #FF3333;"">Your reward: 0 points</p>
        ","null","html-keyboard-response","147","2.0.0","581096","","","","","","","","","","","","","","","","","","","","","","","","","","","","","","","","","","","","","","","","","","","","","","","","","",""
"null","<div class=""fixation"" style=""font-size: 60px;"">+</div>","null","html-keyboard-response","148","2.0.0","582099","","","","","","","","","","","","","","","","","","","","","","","","","","","","","","","","","","","","","","","","","","","","","","","","","",""
"-1","","","rdk","149","2.0.0","584103","white","1","W_H_vs_B_L_rep7","false","ALL_KEYS","[""a""]","2000","[]","false","2","[100,100]","1","[63,119]","1","0","2","1","-1","1","300","300","[""black"",""white""]","circle","#AAA","3","2","2","16.875","[15,16,17,17,16,17,17,17,17,17,17,16,16,18,17,17,17,17,17,17,17,17,17,17,17,17,17,17,17,17,17,17,17,17,17,16,17,17,17,16,17,17,17,17,16,16,18,16,17,16,17,16,18,17,17,17,17,16,17,16,17,18,17,17,17,17,17,17,17,17,17,17,16,17,17,17,17,16,18,17,17,17,17,17,17,17,16,18,16,17,17,17,17,17,17,17,17,17,17,17,17,17,17,17,17,16,18,17,17,17,18,15,17,16,18,17,17,17,16,17]","120","735","461.5","true","15","15","#111","1","true","2","transparent","1470","923","119","63","","","","","",""
"1139","
        <div class=""response-container"">
          <div class=""response-instruction"">
            <p>rotate the bar by using the left and right arrow keys.</p>
            <p>when you are determined, press the Enter key.</p>
          </div>
          <div class=""response-circle"">
            <div class=""response-fixation""></div>
            <div id=""bar"" class=""rotating-bar""></div>
          </div>
        </div>
      ","Enter","html-keyboard-response","150","2.0.0","585243","white","","","","","","","","","","","","","","","","","","","","","","","","","","","","","","","","","","","","","","","","","","119","","23","67","4","0","98",""
"null","
          <p style=""color: #FF3333;"">Your reward: 0 points</p>
        ","null","html-keyboard-response","151","2.0.0","587246","","","","","","","","","","","","","","","","","","","","","","","","","","","","","","","","","","","","","","","","","","","","","","","","","",""
"null","<div class=""fixation"" style=""font-size: 60px;"">+</div>","null","html-keyboard-response","152","2.0.0","588249","","","","","","","","","","","","","","","","","","","","","","","","","","","","","","","","","","","","","","","","","","","","","","","","","",""
"-1","","","rdk","153","2.0.0","590252","black","0","B_H_vs_W_L_rep9","false","ALL_KEYS","[""a""]","2000","[]","false","2","[100,100]","1","[236,317]","1","0","2","1","-1","1","300","300","[""black"",""white""]","circle","#AAA","3","2","2","16.833333333333332","[13,18,17,16,17,17,17,17,17,17,17,17,17,17,17,17,17,17,16,17,16,17,17,17,17,17,17,17,17,16,18,17,17,17,17,17,17,17,17,17,17,17,17,17,17,17,16,17,17,16,17,16,16,18,17,17,17,17,17,16,17,17,17,17,17,17,16,18,16,17,17,17,17,16,17,17,17,17,17,16,17,17,17,17,17,16,17,17,17,17,16,17,17,17,17,17,17,17,16,17,17,16,17,17,17,17,17,16,17,16,18,17,17,16,18,16,17,17,17,16]","120","735","461.5","true","15","15","#111","1","true","2","transparent","1470","923","236","317","","","","","",""
"902","
        <div class=""response-container"">
          <div class=""response-instruction"">
            <p>rotate the bar by using the left and right arrow keys.</p>
            <p>when you are determined, press the Enter key.</p>
          </div>
          <div class=""response-circle"">
            <div class=""response-fixation""></div>
            <div id=""bar"" class=""rotating-bar""></div>
          </div>
        </div>
      ","Enter","html-keyboard-response","154","2.0.0","591155","black","","","","","","","","","","","","","","","","","","","","","","","","","","","","","","","","","","","","","","","","","","236","","94","356","39","0","98",""
"null","
          <p style=""color: #FF3333;"">Your reward: 0 points</p>
        ","null","html-keyboard-response","155","2.0.0","593158","","","","","","","","","","","","","","","","","","","","","","","","","","","","","","","","","","","","","","","","","","","","","","","","","",""
"null","<div class=""fixation"" style=""font-size: 60px;"">+</div>","null","html-keyboard-response","156","2.0.0","594161","","","","","","","","","","","","","","","","","","","","","","","","","","","","","","","","","","","","","","","","","","","","","","","","","",""
"-1","","","rdk","157","2.0.0","596166","black","0","B_H_vs_W_L_rep16","false","ALL_KEYS","[""a""]","2000","[]","false","2","[100,100]","1","[233,310]","1","0","2","1","-1","1","300","300","[""black"",""white""]","circle","#AAA","3","2","2","16.95798319327731","[19,17,17,17,17,16,17,17,17,17,17,17,17,17,17,17,17,16,17,17,17,16,18,17,17,16,17,17,17,17,17,16,17,17,17,17,17,17,17,17,16,17,17,17,17,17,17,17,17,17,17,17,17,17,17,17,17,17,17,17,17,17,17,17,17,17,17,17,17,17,17,17,17,17,17,17,17,17,17,17,17,17,17,17,17,17,17,17,17,17,17,17,17,16,18,17,16,17,17,17,17,16,18,17,16,17,17,17,17,17,17,17,17,17,17,17,17,17,17]","119","735","461.5","true","15","15","#111","1","true","2","transparent","1470","923","233","310","","","","","",""
"3992","
        <div class=""response-container"">
          <div class=""response-instruction"">
            <p>rotate the bar by using the left and right arrow keys.</p>
            <p>when you are determined, press the Enter key.</p>
          </div>
          <div class=""response-circle"">
            <div class=""response-fixation""></div>
            <div id=""bar"" class=""rotating-bar""></div>
          </div>
        </div>
      ","Enter","html-keyboard-response","158","2.0.0","600159","black","","","","","","","","","","","","","","","","","","","","","","","","","","","","","","","","","","","","","","","","","","233","","468","342","32","0","98",""
"null","
          <p style=""color: #FF3333;"">Your reward: 0 points</p>
        ","null","html-keyboard-response","159","2.0.0","602162","","","","","","","","","","","","","","","","","","","","","","","","","","","","","","","","","","","","","","","","","","","","","","","","","",""
"null","<div class=""fixation"" style=""font-size: 60px;"">+</div>","null","html-keyboard-response","160","2.0.0","603164","","","","","","","","","","","","","","","","","","","","","","","","","","","","","","","","","","","","","","","","","","","","","","","","","",""
"-1","","","rdk","161","2.0.0","605168","black","0","B_H_vs_W_L_rep6","false","ALL_KEYS","[""a""]","2000","[]","false","2","[100,100]","1","[241,307]","1","0","2","1","-1","1","300","300","[""black"",""white""]","circle","#AAA","3","2","2","16.858333333333334","[14,17,17,17,17,17,17,17,17,17,17,17,17,17,17,17,17,17,16,17,17,17,17,17,17,16,17,17,17,17,17,17,17,16,17,17,17,17,16,17,17,17,17,17,17,17,17,17,17,17,17,17,17,17,16,17,17,17,17,16,17,17,17,17,17,17,17,16,17,17,17,17,17,17,16,17,16,17,16,17,17,17,17,17,17,16,16,18,17,17,17,17,17,16,17,17,16,17,17,17,17,17,16,17,17,17,17,16,17,18,17,17,17,17,17,17,17,17,17,17]","120","735","461.5","true","15","15","#111","1","true","2","transparent","1470","923","241","307","","","","","",""
"1735","
        <div class=""response-container"">
          <div class=""response-instruction"">
            <p>rotate the bar by using the left and right arrow keys.</p>
            <p>when you are determined, press the Enter key.</p>
          </div>
          <div class=""response-circle"">
            <div class=""response-fixation""></div>
            <div id=""bar"" class=""rotating-bar""></div>
          </div>
        </div>
      ","Enter","html-keyboard-response","162","2.0.0","606904","black","","","","","","","","","","","","","","","","","","","","","","","","","","","","","","","","","","","","","","","","","","241","","112","338","31","0","98",""
"null","
          <p style=""color: #FF3333;"">Your reward: 0 points</p>
        ","null","html-keyboard-response","163","2.0.0","608907","","","","","","","","","","","","","","","","","","","","","","","","","","","","","","","","","","","","","","","","","","","","","","","","","",""
"null","<div class=""fixation"" style=""font-size: 60px;"">+</div>","null","html-keyboard-response","164","2.0.0","609909","","","","","","","","","","","","","","","","","","","","","","","","","","","","","","","","","","","","","","","","","","","","","","","","","",""
"-1","","","rdk","165","2.0.0","611914","white","0","W_H_vs_B_L_rep2","false","ALL_KEYS","[""a""]","2000","[]","false","2","[100,100]","1","[124,43]","1","0","2","1","-1","1","300","300","[""white"",""black""]","circle","#AAA","3","2","2","16.88235294117647","[21,16,17,16,18,16,17,17,17,17,17,17,17,17,17,16,16,17,17,17,17,17,17,17,17,17,17,17,17,17,17,17,17,17,17,17,16,17,16,18,16,17,17,17,16,17,17,17,17,17,17,17,16,17,17,17,17,16,18,16,18,17,17,17,17,17,16,17,16,17,17,17,17,17,17,17,17,17,16,17,17,17,17,17,16,17,17,17,16,17,17,17,17,17,17,17,17,17,17,17,16,17,17,17,17,17,16,18,16,16,17,17,16,17,17,17,16,17,17]","119","735","461.5","true","15","15","#111","1","true","2","transparent","1470","923","124","43","","","","","",""
"2479","
        <div class=""response-container"">
          <div class=""response-instruction"">
            <p>rotate the bar by using the left and right arrow keys.</p>
            <p>when you are determined, press the Enter key.</p>
          </div>
          <div class=""response-circle"">
            <div class=""response-fixation""></div>
            <div id=""bar"" class=""rotating-bar""></div>
          </div>
        </div>
      ","Enter","html-keyboard-response","166","2.0.0","614394","white","","","","","","","","","","","","","","","","","","","","","","","","","","","","","","","","","","","","","","","","","","124","","67","23","-20","0","98",""
"null","
          <p style=""color: #FF3333;"">Your reward: 0 points</p>
        ","null","html-keyboard-response","167","2.0.0","616397","","","","","","","","","","","","","","","","","","","","","","","","","","","","","","","","","","","","","","","","","","","","","","","","","",""
"null","<div class=""fixation"" style=""font-size: 60px;"">+</div>","null","html-keyboard-response","168","2.0.0","617400","","","","","","","","","","","","","","","","","","","","","","","","","","","","","","","","","","","","","","","","","","","","","","","","","",""
"-1","","","rdk","169","2.0.0","619404","black","0","B_H_vs_W_L_rep2","false","ALL_KEYS","[""a""]","2000","[]","false","2","[100,100]","1","[233,319]","1","0","2","1","-1","1","300","300","[""black"",""white""]","circle","#AAA","3","2","2","16.85","[13,17,17,17,16,17,17,17,17,16,17,17,17,17,17,17,17,16,17,17,17,16,17,16,18,16,17,17,17,17,17,17,17,17,17,17,17,16,18,16,18,17,17,16,17,17,17,17,17,16,18,17,17,17,17,17,17,16,17,17,17,17,17,17,17,17,17,17,17,17,17,16,17,17,17,17,17,16,16,18,17,17,17,15,18,16,17,17,16,17,17,17,17,17,17,17,17,17,17,17,17,17,17,17,16,17,17,17,17,16,17,16,18,17,17,17,17,17,17,17]","120","735","461.5","true","15","15","#111","1","true","2","transparent","1470","923","233","319","","","","","",""
"1147","
        <div class=""response-container"">
          <div class=""response-instruction"">
            <p>rotate the bar by using the left and right arrow keys.</p>
            <p>when you are determined, press the Enter key.</p>
          </div>
          <div class=""response-circle"">
            <div class=""response-fixation""></div>
            <div id=""bar"" class=""rotating-bar""></div>
          </div>
        </div>
      ","Enter","html-keyboard-response","170","2.0.0","620552","black","","","","","","","","","","","","","","","","","","","","","","","","","","","","","","","","","","","","","","","","","","233","","117","333","14","0","98",""
"null","
          <p style=""color: #FF3333;"">Your reward: 0 points</p>
        ","null","html-keyboard-response","171","2.0.0","622554","","","","","","","","","","","","","","","","","","","","","","","","","","","","","","","","","","","","","","","","","","","","","","","","","",""
"null","<div class=""fixation"" style=""font-size: 60px;"">+</div>","null","html-keyboard-response","172","2.0.0","623557","","","","","","","","","","","","","","","","","","","","","","","","","","","","","","","","","","","","","","","","","","","","","","","","","",""
"-1","","","rdk","173","2.0.0","625562","white","1","W_H_vs_B_L_rep16","false","ALL_KEYS","[""a""]","2000","[]","false","2","[100,100]","1","[36,111]","1","0","2","1","-1","1","300","300","[""black"",""white""]","circle","#AAA","3","2","2","16.96638655462185","[22,16,17,17,17,17,16,18,17,17,17,17,17,17,17,17,17,16,17,17,17,17,17,17,17,16,17,17,17,17,17,17,17,17,17,17,17,17,17,17,17,17,17,17,17,17,17,17,17,17,17,17,17,17,17,17,17,16,17,17,17,17,16,17,17,17,17,17,17,16,17,17,17,17,17,17,17,17,17,17,17,17,17,17,17,17,17,17,16,18,16,17,16,17,17,17,17,16,17,17,17,17,17,17,17,17,16,17,18,17,17,17,16,18,17,17,17,17,17]","119","735","461.5","true","15","15","#111","1","true","2","transparent","1470","923","111","36","","","","","",""
"2250","
        <div class=""response-container"">
          <div class=""response-instruction"">
            <p>rotate the bar by using the left and right arrow keys.</p>
            <p>when you are determined, press the Enter key.</p>
          </div>
          <div class=""response-circle"">
            <div class=""response-fixation""></div>
            <div id=""bar"" class=""rotating-bar""></div>
          </div>
        </div>
      ","Enter","html-keyboard-response","174","2.0.0","627814","white","","","","","","","","","","","","","","","","","","","","","","","","","","","","","","","","","","","","","","","","","","111","","63","27","-9","0","98",""
"null","
          <p style=""color: #FF3333;"">Your reward: 0 points</p>
        ","null","html-keyboard-response","175","2.0.0","629816","","","","","","","","","","","","","","","","","","","","","","","","","","","","","","","","","","","","","","","","","","","","","","","","","",""
"null","<div class=""fixation"" style=""font-size: 60px;"">+</div>","null","html-keyboard-response","176","2.0.0","630819","","","","","","","","","","","","","","","","","","","","","","","","","","","","","","","","","","","","","","","","","","","","","","","","","",""
"-1","","","rdk","177","2.0.0","632823","white","0","W_H_vs_B_L_rep8","false","ALL_KEYS","[""a""]","2000","[]","false","2","[100,100]","1","[111,64]","1","0","2","1","-1","1","300","300","[""white"",""black""]","circle","#AAA","3","2","2","16.85","[10,17,17,17,17,16,17,17,17,17,17,17,17,17,17,17,17,17,17,17,16,17,16,17,16,17,17,17,17,17,16,18,17,17,17,17,17,17,17,17,17,16,17,17,17,17,17,17,17,17,17,17,17,17,17,17,17,17,17,17,16,17,17,17,17,17,17,17,17,17,17,17,17,17,17,17,17,17,17,17,17,17,17,17,17,17,17,17,16,18,17,17,17,17,16,17,16,17,17,17,17,17,17,17,17,17,16,15,18,17,16,18,17,17,17,17,17,17,16,17]","120","735","461.5","true","15","15","#111","1","true","2","transparent","1470","923","111","64","","","","","",""
"754","
        <div class=""response-container"">
          <div class=""response-instruction"">
            <p>rotate the bar by using the left and right arrow keys.</p>
            <p>when you are determined, press the Enter key.</p>
          </div>
          <div class=""response-circle"">
            <div class=""response-fixation""></div>
            <div id=""bar"" class=""rotating-bar""></div>
          </div>
        </div>
      ","Enter","html-keyboard-response","178","2.0.0","633578","white","","","","","","","","","","","","","","","","","","","","","","","","","","","","","","","","","","","","","","","","","","111","","53","37","-27","0","98",""
"null","
          <p style=""color: #FF3333;"">Your reward: 0 points</p>
        ","null","html-keyboard-response","179","2.0.0","635581","","","","","","","","","","","","","","","","","","","","","","","","","","","","","","","","","","","","","","","","","","","","","","","","","",""
"null","<div class=""fixation"" style=""font-size: 60px;"">+</div>","null","html-keyboard-response","180","2.0.0","636584","","","","","","","","","","","","","","","","","","","","","","","","","","","","","","","","","","","","","","","","","","","","","","","","","",""
"-1","","","rdk","181","2.0.0","638588","white","0","W_H_vs_B_L_rep12","false","ALL_KEYS","[""a""]","2000","[]","false","2","[100,100]","1","[123,43]","1","0","2","1","-1","1","300","300","[""white"",""black""]","circle","#AAA","3","2","2","16.85","[11,17,17,17,17,17,17,17,17,17,16,17,17,17,17,16,18,17,16,17,17,17,17,17,17,17,17,17,17,16,17,17,17,17,17,17,17,17,17,17,17,17,17,17,16,17,17,17,17,17,17,17,17,16,17,17,17,17,17,17,17,16,16,17,17,17,17,17,16,17,17,17,17,17,17,17,17,17,17,16,17,17,17,17,17,17,17,17,17,17,17,17,17,17,16,17,17,17,16,18,17,16,17,17,16,17,17,17,17,17,17,17,17,17,17,17,17,17,17,17]","120","735","461.5","true","15","15","#111","1","true","2","transparent","1470","923","123","43","","","","","",""
"1621","
        <div class=""response-container"">
          <div class=""response-instruction"">
            <p>rotate the bar by using the left and right arrow keys.</p>
            <p>when you are determined, press the Enter key.</p>
          </div>
          <div class=""response-circle"">
            <div class=""response-fixation""></div>
            <div id=""bar"" class=""rotating-bar""></div>
          </div>
        </div>
      ","Enter","html-keyboard-response","182","2.0.0","640210","white","","","","","","","","","","","","","","","","","","","","","","","","","","","","","","","","","","","","","","","","","","123","","399","51","8","0","98",""
"null","
          <p style=""color: #FF3333;"">Your reward: 0 points</p>
        ","null","html-keyboard-response","183","2.0.0","642213","","","","","","","","","","","","","","","","","","","","","","","","","","","","","","","","","","","","","","","","","","","","","","","","","",""
"null","<div class=""fixation"" style=""font-size: 60px;"">+</div>","null","html-keyboard-response","184","2.0.0","643216","","","","","","","","","","","","","","","","","","","","","","","","","","","","","","","","","","","","","","","","","","","","","","","","","",""
"-1","","","rdk","185","2.0.0","645220","white","1","W_H_vs_B_L_rep10","false","ALL_KEYS","[""a""]","2000","[]","false","2","[100,100]","1","[38,110]","1","0","2","1","-1","1","300","300","[""black"",""white""]","circle","#AAA","3","2","2","16.916666666666668","[14,17,17,17,17,17,17,17,16,17,17,17,17,17,17,17,17,17,17,17,17,17,17,17,17,17,17,17,16,18,17,17,17,17,17,17,17,17,17,17,17,17,17,17,17,17,17,17,17,17,17,17,17,17,17,17,17,17,17,17,17,17,17,17,17,17,17,17,16,16,17,17,17,17,17,17,17,17,17,17,17,17,16,17,17,17,17,17,17,17,17,17,17,17,16,18,17,17,16,17,16,17,17,17,17,17,17,17,17,17,17,17,17,17,17,17,16,17,17,17]","120","735","461.5","true","15","15","#111","1","true","2","transparent","1470","923","110","38","","","","","",""
"1737","
        <div class=""response-container"">
          <div class=""response-instruction"">
            <p>rotate the bar by using the left and right arrow keys.</p>
            <p>when you are determined, press the Enter key.</p>
          </div>
          <div class=""response-circle"">
            <div class=""response-fixation""></div>
            <div id=""bar"" class=""rotating-bar""></div>
          </div>
        </div>
      ","Enter","html-keyboard-response","186","2.0.0","646959","white","","","","","","","","","","","","","","","","","","","","","","","","","","","","","","","","","","","","","","","","","","110","","-48","138","28","3","98",""
"null","
          <p style=""color: #00FF00;"">Your reward: 3 points</p>
        ","null","html-keyboard-response","187","2.0.0","648961","","","","","","","","","","","","","","","","","","","","","","","","","","","","","","","","","","","","","","","","","","","","","","","","","",""
"null","<div class=""fixation"" style=""font-size: 60px;"">+</div>","null","html-keyboard-response","188","2.0.0","649964","","","","","","","","","","","","","","","","","","","","","","","","","","","","","","","","","","","","","","","","","","","","","","","","","",""
"-1","","","rdk","189","2.0.0","651968","black","1","B_H_vs_W_L_rep3","false","ALL_KEYS","[""a""]","2000","[]","false","2","[100,100]","1","[303,240]","1","0","2","1","-1","1","300","300","[""white"",""black""]","circle","#AAA","3","2","2","16.916666666666668","[15,17,17,17,17,17,16,18,17,17,17,17,16,17,17,17,17,17,17,17,17,17,17,17,17,17,17,17,17,17,17,16,18,17,17,17,17,17,16,17,17,17,17,17,17,17,17,17,17,17,17,17,17,17,17,17,17,16,18,17,17,17,16,18,17,17,16,17,17,17,17,17,17,17,17,17,17,17,16,17,17,17,17,17,17,16,17,17,17,17,17,17,17,17,17,17,17,16,17,17,16,17,17,17,17,17,17,17,17,17,17,17,17,16,17,17,17,17,17,17]","120","735","461.5","true","15","15","#111","1","true","2","transparent","1470","923","240","303","","","","","",""
"2146","
        <div class=""response-container"">
          <div class=""response-instruction"">
            <p>rotate the bar by using the left and right arrow keys.</p>
            <p>when you are determined, press the Enter key.</p>
          </div>
          <div class=""response-circle"">
            <div class=""response-fixation""></div>
            <div id=""bar"" class=""rotating-bar""></div>
          </div>
        </div>
      ","Enter","html-keyboard-response","190","2.0.0","654115","black","","","","","","","","","","","","","","","","","","","","","","","","","","","","","","","","","","","","","","","","","","240","","466","344","41","0","98",""
"null","
          <p style=""color: #FF3333;"">Your reward: 0 points</p>
        ","null","html-keyboard-response","191","2.0.0","656117","","","","","","","","","","","","","","","","","","","","","","","","","","","","","","","","","","","","","","","","","","","","","","","","","",""
"null","<div class=""fixation"" style=""font-size: 60px;"">+</div>","null","html-keyboard-response","192","2.0.0","657120","","","","","","","","","","","","","","","","","","","","","","","","","","","","","","","","","","","","","","","","","","","","","","","","","",""
"-1","","","rdk","193","2.0.0","659124","white","1","W_H_vs_B_L_rep4","false","ALL_KEYS","[""a""]","2000","[]","false","2","[100,100]","1","[59,131]","1","0","2","1","-1","1","300","300","[""black"",""white""]","circle","#AAA","3","2","2","16.866666666666667","[10,17,17,17,17,17,17,17,17,17,17,17,17,17,17,17,17,17,17,17,17,17,17,17,17,16,18,17,16,17,17,17,16,17,17,17,17,17,17,17,17,17,17,17,17,16,17,17,17,17,17,17,17,17,17,17,17,17,17,17,16,17,17,17,17,17,17,17,17,17,17,17,17,17,17,17,17,17,17,17,17,16,17,17,17,16,17,17,16,17,17,17,17,17,17,17,17,16,17,17,17,17,16,17,17,17,17,17,17,17,17,17,17,17,17,17,17,17,17,17]","120","735","461.5","true","15","15","#111","1","true","2","transparent","1470","923","131","59","","","","","",""
"1381","
        <div class=""response-container"">
          <div class=""response-instruction"">
            <p>rotate the bar by using the left and right arrow keys.</p>
            <p>when you are determined, press the Enter key.</p>
          </div>
          <div class=""response-circle"">
            <div class=""response-fixation""></div>
            <div id=""bar"" class=""rotating-bar""></div>
          </div>
        </div>
      ","Enter","html-keyboard-response","194","2.0.0","660505","white","","","","","","","","","","","","","","","","","","","","","","","","","","","","","","","","","","","","","","","","","","131","","388","62","3","0","98",""
"null","
          <p style=""color: #FF3333;"">Your reward: 0 points</p>
        ","null","html-keyboard-response","195","2.0.0","662508","","","","","","","","","","","","","","","","","","","","","","","","","","","","","","","","","","","","","","","","","","","","","","","","","",""
"null","<div class=""fixation"" style=""font-size: 60px;"">+</div>","null","html-keyboard-response","196","2.0.0","663510","","","","","","","","","","","","","","","","","","","","","","","","","","","","","","","","","","","","","","","","","","","","","","","","","",""
"-1","","","rdk","197","2.0.0","665514","white","0","W_H_vs_B_L_rep5","false","ALL_KEYS","[""a""]","2000","[]","false","2","[100,100]","1","[112,39]","1","0","2","1","-1","1","300","300","[""white"",""black""]","circle","#AAA","3","2","2","16.915966386554622","[20,17,17,17,17,17,16,17,17,17,17,17,17,17,16,17,17,17,17,17,17,17,17,17,17,17,17,17,16,17,16,18,17,17,17,17,17,17,17,17,17,17,17,17,17,17,17,17,17,16,17,17,17,17,17,17,17,17,17,17,17,17,17,17,16,17,17,17,17,16,16,17,17,17,17,17,17,17,17,17,17,17,17,17,17,17,17,17,16,17,17,17,17,16,17,17,16,16,18,17,17,17,17,16,17,17,17,17,17,17,17,17,17,16,17,16,18,16,17]","119","735","461.5","true","15","15","#111","1","true","2","transparent","1470","923","112","39","","","","","",""
"605","
        <div class=""response-container"">
          <div class=""response-instruction"">
            <p>rotate the bar by using the left and right arrow keys.</p>
            <p>when you are determined, press the Enter key.</p>
          </div>
          <div class=""response-circle"">
            <div class=""response-fixation""></div>
            <div id=""bar"" class=""rotating-bar""></div>
          </div>
        </div>
      ","Enter","html-keyboard-response","198","2.0.0","666121","white","","","","","","","","","","","","","","","","","","","","","","","","","","","","","","","","","","","","","","","","","","112","","74","16","-23","0","98",""
"null","
          <p style=""color: #FF3333;"">Your reward: 0 points</p>
        ","null","html-keyboard-response","199","2.0.0","668124","","","","","","","","","","","","","","","","","","","","","","","","","","","","","","","","","","","","","","","","","","","","","","","","","",""
