"rt","stimulus","response","trial_type","trial_index","plugin_version","time_elapsed","target_group","target_index","condition_label","correct","choices","correct_choice","trial_duration","flip_timestamps","response_ends_trial","number_of_apertures","number_of_dots","number_of_sets","coherent_direction","coherence","opposite_coherence","dot_radius","dot_side_length","dot_life","move_distance","aperture_width","aperture_height","dot_color","dot_shape","background_color","RDK_type","aperture_type","reinsert_type","frame_rate","frame_rate_array","number_of_frames","aperture_center_x","aperture_center_y","fixation_cross","fixation_cross_width","fixation_cross_height","fixation_cross_color","fixation_cross_thickness","border","border_thickness","border_color","canvas_width","canvas_height","target_direction","distractor_direction","response_angle_css","response_angle_rdk","angular_error","reward_points","rotation_angle","key_press"
"15949","Welcome to the experiment. Press any key to begin.","Enter","html-keyboard-response","0","2.1.0","15951","","","","","","","","","","","","","","","","","","","","","","","","","","","","","","","","","","","","","","","","","","","","","","","","","",""
"105413","
        <div class=""instructions-container"">
          <h2>Instructions</h2>
          <p>In this experiment, you will see <strong>two random dot kinematograms (RDKs)</strong> simultaneously.</p>
          <p>RDK consists of white dots or black dots moving in a specific direction.</p>
          <p>Your task is to determine the direction of the <strong>target RDK</strong> based on the <strong>number of dots</strong>.</p>
          <p>For instance, if the white RDK has more dots than the black RDK, the white RDK is the target so you should respond to the direction of the white RDK.</p>
          <p>After viewing the RDKs, you will rotate a bar to indicate the perceived direction of the target RDK using the <strong>left and right arrow keys</strong>. <strong>Press Enter</strong> when you are ready to submit your response.</p>
          <p>You will receive points based on the <strong>accuracy of your response</strong>. Try to be as accurate as possible!</p>
          <p>You will have three practice trials. Press <strong>Enter</strong> key to start the practice phase.</p>
        </div>
      ","Enter","html-keyboard-response","1","2.1.0","121364","","","","","","","","","","","","","","","","","","","","","","","","","","","","","","","","","","","","","","","","","","","","","","","","","",""
"null","<div class=""fixation"" style=""font-size: 60px;"">+</div>","null","html-keyboard-response","2","2.1.0","122366","","","","","","","","","","","","","","","","","","","","","","","","","","","","","","","","","","","","","","","","","","","","","","","","","",""
"-1","","","rdk","3","2.0.0","124373","black","1","B_H_vs_W_L","false","ALL_KEYS","[""a""]","2000","[]","false","2","[50,100]","1","[10,100]","1","0","2","1","-1","1","300","300","[""white"",""black""]","circle","#AAA","3","2","2","16.825","[6,17,17,17,17,16,17,18,17,17,17,17,17,17,17,17,17,17,16,16,18,16,17,17,17,17,17,17,17,17,17,17,17,17,17,17,17,16,16,18,15,18,17,17,17,16,16,18,16,18,17,17,17,17,17,16,17,17,17,17,17,17,17,17,17,16,17,17,17,17,17,16,18,17,16,18,17,17,17,17,17,16,16,17,17,18,16,18,17,17,16,18,17,17,16,18,16,18,17,17,17,17,17,16,18,17,17,16,17,17,17,17,17,16,18,17,16,18,17,16]","120","735","461.5","true","15","15","#111","1","true","2","transparent","1470","923","100","10","","","","","",""
"9090","
        <div class=""response-container"">
          <div class=""response-instruction"">
            <p>rotate the bar by using the left and right arrow keys.</p>
            <p>when you are determined, press the Enter key.</p>
          </div>
          <div class=""response-circle"">
            <div class=""response-fixation""></div>
            <div id=""bar"" class=""rotating-bar""></div>
          </div>
        </div>
      ","Enter","html-keyboard-response","4","2.1.0","133465","black","","","","","","","","","","","","","","","","","","","","","","","","","","","","","","","","","","","","","","","","","","100","","339","111","11","7","116",""
"null","
          <p style=""color: #00FF00;"">Your reward: 7 points</p>
        ","null","html-keyboard-response","5","2.1.0","135468","","","","","","","","","","","","","","","","","","","","","","","","","","","","","","","","","","","","","","","","","","","","","","","","","",""
"null","<div class=""fixation"" style=""font-size: 60px;"">+</div>","null","html-keyboard-response","6","2.1.0","136472","","","","","","","","","","","","","","","","","","","","","","","","","","","","","","","","","","","","","","","","","","","","","","","","","",""
"-1","","","rdk","7","2.0.0","138478","white","0","W_H_vs_B_L","false","ALL_KEYS","[""a""]","2000","[]","false","2","[100,50]","1","[150,30]","1","0","2","1","-1","1","300","300","[""white"",""black""]","circle","#AAA","3","2","2","16.932773109243698","[21,16,17,17,17,17,17,16,17,17,17,17,17,17,17,17,17,17,17,17,17,17,17,16,16,17,17,17,17,17,17,17,17,17,17,17,16,17,17,17,17,17,17,17,17,16,17,17,16,17,16,18,17,17,17,17,17,17,17,17,17,17,17,17,17,17,17,17,17,17,17,17,17,17,17,16,17,16,17,17,17,17,17,17,17,17,17,17,17,17,17,17,17,17,17,17,17,17,17,16,16,18,17,17,17,17,17,17,16,17,17,17,16,17,17,17,17,17,17]","119","735","461.5","true","15","15","#111","1","true","2","transparent","1470","923","150","30","","","","","",""
"3383","
        <div class=""response-container"">
          <div class=""response-instruction"">
            <p>rotate the bar by using the left and right arrow keys.</p>
            <p>when you are determined, press the Enter key.</p>
          </div>
          <div class=""response-circle"">
            <div class=""response-fixation""></div>
            <div id=""bar"" class=""rotating-bar""></div>
          </div>
        </div>
      ","Enter","html-keyboard-response","8","2.1.0","141862","white","","","","","","","","","","","","","","","","","","","","","","","","","","","","","","","","","","","","","","","","","","150","","292","158","8","8","116",""
"null","
          <p style=""color: #00FF00;"">Your reward: 8 points</p>
        ","null","html-keyboard-response","9","2.1.0","143866","","","","","","","","","","","","","","","","","","","","","","","","","","","","","","","","","","","","","","","","","","","","","","","","","",""
"null","<div class=""fixation"" style=""font-size: 60px;"">+</div>","null","html-keyboard-response","10","2.1.0","144868","","","","","","","","","","","","","","","","","","","","","","","","","","","","","","","","","","","","","","","","","","","","","","","","","",""
"-1","","","rdk","11","2.0.0","146873","black","1","B_H_vs_W_L","false","ALL_KEYS","[""a""]","2000","[]","false","2","[50,100]","1","[270,180]","1","0","2","1","-1","1","300","300","[""white"",""black""]","circle","#AAA","3","2","2","16.833333333333332","[8,17,17,17,17,16,17,17,17,17,17,17,17,17,17,17,17,16,17,17,17,17,17,17,17,17,16,17,16,17,16,16,17,17,17,17,17,17,17,17,17,17,17,17,17,17,17,17,16,17,17,17,17,17,17,17,17,17,17,17,16,17,17,17,17,17,17,17,17,17,17,17,17,17,17,17,17,17,16,18,17,17,17,17,17,17,16,17,17,17,17,17,17,17,17,17,17,17,17,16,17,17,17,17,16,17,17,17,17,17,17,17,17,17,17,17,17,17,17,17]","120","735","461.5","true","15","15","#111","1","true","2","transparent","1470","923","180","270","","","","","",""
"5942","
        <div class=""response-container"">
          <div class=""response-instruction"">
            <p>rotate the bar by using the left and right arrow keys.</p>
            <p>when you are determined, press the Enter key.</p>
          </div>
          <div class=""response-circle"">
            <div class=""response-fixation""></div>
            <div id=""bar"" class=""rotating-bar""></div>
          </div>
        </div>
      ","Enter","html-keyboard-response","12","2.1.0","152816","black","","","","","","","","","","","","","","","","","","","","","","","","","","","","","","","","","","","","","","","","","","180","","-76","166","-14","6","116",""
"null","
          <p style=""color: #00FF00;"">Your reward: 6 points</p>
        ","null","html-keyboard-response","13","2.1.0","154819","","","","","","","","","","","","","","","","","","","","","","","","","","","","","","","","","","","","","","","","","","","","","","","","","",""
"4464","
        <div class=""instructions-container"">
          <h2>End of Practice</h2>
          <p>You have completed the practice trials.</p>
          <p>Press <strong>Enter</strong> key to begin the main experiment.</p>
        </div>
      ","Enter","html-keyboard-response","14","2.1.0","159285","","","","","","","","","","","","","","","","","","","","","","","","","","","","","","","","","","","","","","","","","","","","","","","","","",""
"null","<div class=""fixation"" style=""font-size: 60px;"">+</div>","null","html-keyboard-response","15","2.1.0","160288","","","","","","","","","","","","","","","","","","","","","","","","","","","","","","","","","","","","","","","","","","","","","","","","","",""
"-1","","","rdk","16","2.0.0","162294","white","0","W_H_vs_B_L_rep9","false","ALL_KEYS","[""a""]","2000","[]","false","2","[100,100]","1","[294,214]","1","0","2","1","-1","1","300","300","[""white"",""black""]","circle","#AAA","3","2","2","16.95798319327731","[20,18,17,17,17,17,17,17,17,17,16,18,17,17,16,17,17,17,17,17,17,17,17,17,17,17,17,17,17,17,17,17,17,17,17,17,17,17,16,17,17,16,17,17,17,17,17,17,17,17,17,17,17,17,17,17,16,17,17,17,17,17,17,17,17,17,17,17,16,17,17,17,17,17,17,17,17,17,17,17,17,17,17,17,17,17,17,17,16,18,17,17,17,17,16,17,17,17,17,17,17,17,17,17,17,17,17,16,16,17,17,16,17,17,17,17,17,17,17]","119","735","461.5","true","15","15","#111","1","true","2","transparent","1470","923","294","214","","","","","",""
"2690","
        <div class=""response-container"">
          <div class=""response-instruction"">
            <p>rotate the bar by using the left and right arrow keys.</p>
            <p>when you are determined, press the Enter key.</p>
          </div>
          <div class=""response-circle"">
            <div class=""response-fixation""></div>
            <div id=""bar"" class=""rotating-bar""></div>
          </div>
        </div>
      ","Enter","html-keyboard-response","17","2.1.0","164985","white","","","","","","","","","","","","","","","","","","","","","","","","","","","","","","","","","","","","","","","","","","294","","145","305","11","7","116",""
"null","
          <p style=""color: #00FF00;"">Your reward: 7 points</p>
        ","null","html-keyboard-response","18","2.1.0","166987","","","","","","","","","","","","","","","","","","","","","","","","","","","","","","","","","","","","","","","","","","","","","","","","","",""
"null","<div class=""fixation"" style=""font-size: 60px;"">+</div>","null","html-keyboard-response","19","2.1.0","167990","","","","","","","","","","","","","","","","","","","","","","","","","","","","","","","","","","","","","","","","","","","","","","","","","",""
"-1","","","rdk","20","2.0.0","170002","white","0","W_H_vs_B_L_rep11","false","ALL_KEYS","[""a""]","2000","[]","false","2","[100,100]","1","[316,232]","1","0","2","1","-1","1","300","300","[""white"",""black""]","circle","#AAA","3","2","2","16.825","[12,17,17,17,17,17,17,16,17,17,16,17,16,17,16,18,16,17,17,16,17,16,16,17,18,17,17,17,17,17,17,17,17,17,17,17,17,17,17,16,16,18,17,17,17,17,17,17,17,17,17,17,17,17,16,17,17,17,17,17,17,16,18,16,17,17,16,17,17,17,17,17,17,17,17,16,17,17,16,17,17,17,17,17,17,17,17,17,17,17,17,16,17,17,17,17,17,17,16,17,17,17,17,17,17,17,16,16,17,17,17,17,17,16,18,17,17,17,17,17]","120","735","461.5","true","15","15","#111","1","true","2","transparent","1470","923","316","232","","","","","",""
"3375","
        <div class=""response-container"">
          <div class=""response-instruction"">
            <p>rotate the bar by using the left and right arrow keys.</p>
            <p>when you are determined, press the Enter key.</p>
          </div>
          <div class=""response-circle"">
            <div class=""response-fixation""></div>
            <div id=""bar"" class=""rotating-bar""></div>
          </div>
        </div>
      ","Enter","html-keyboard-response","21","2.1.0","173378","white","","","","","","","","","","","","","","","","","","","","","","","","","","","","","","","","","","","","","","","","","","316","","216","234","2","0","116",""
"null","
          <p style=""color: #FF3333;"">Your reward: 0 points</p>
        ","null","html-keyboard-response","22","2.1.0","175381","","","","","","","","","","","","","","","","","","","","","","","","","","","","","","","","","","","","","","","","","","","","","","","","","",""
"null","<div class=""fixation"" style=""font-size: 60px;"">+</div>","null","html-keyboard-response","23","2.1.0","176384","","","","","","","","","","","","","","","","","","","","","","","","","","","","","","","","","","","","","","","","","","","","","","","","","",""
"-1","","","rdk","24","2.0.0","178388","white","0","W_H_vs_B_L_rep8","false","ALL_KEYS","[""a""]","2000","[]","false","2","[100,100]","1","[280,192]","1","0","2","1","-1","1","300","300","[""white"",""black""]","circle","#AAA","3","2","2","16.841666666666665","[8,17,17,17,16,17,17,17,17,17,17,17,17,17,17,17,17,17,17,17,17,17,17,17,17,17,17,17,17,16,17,17,17,17,17,17,17,17,17,17,17,16,18,17,17,17,17,17,17,17,17,17,17,16,17,16,17,17,17,17,17,17,17,17,17,17,17,17,17,17,17,17,17,17,16,16,17,17,17,17,17,17,17,17,17,17,17,17,16,17,17,17,17,16,17,17,16,18,17,17,17,17,17,17,16,17,17,17,17,17,17,17,17,17,17,16,17,17,17,17]","120","735","461.5","true","15","15","#111","1","true","2","transparent","1470","923","280","192","","","","","",""
"2773","
        <div class=""response-container"">
          <div class=""response-instruction"">
            <p>rotate the bar by using the left and right arrow keys.</p>
            <p>when you are determined, press the Enter key.</p>
          </div>
          <div class=""response-circle"">
            <div class=""response-fixation""></div>
            <div id=""bar"" class=""rotating-bar""></div>
          </div>
        </div>
      ","Enter","html-keyboard-response","25","2.1.0","181163","white","","","","","","","","","","","","","","","","","","","","","","","","","","","","","","","","","","","","","","","","","","280","","268","182","-10","0","116",""
"null","
          <p style=""color: #FF3333;"">Your reward: 0 points</p>
        ","null","html-keyboard-response","26","2.1.0","183166","","","","","","","","","","","","","","","","","","","","","","","","","","","","","","","","","","","","","","","","","","","","","","","","","",""
"null","<div class=""fixation"" style=""font-size: 60px;"">+</div>","null","html-keyboard-response","27","2.1.0","184169","","","","","","","","","","","","","","","","","","","","","","","","","","","","","","","","","","","","","","","","","","","","","","","","","",""
"-1","","","rdk","28","2.0.0","186173","black","0","B_H_vs_W_L_rep4","false","ALL_KEYS","[""a""]","2000","[]","false","2","[100,100]","1","[52,138]","1","0","2","1","-1","1","300","300","[""black"",""white""]","circle","#AAA","3","2","2","16.95798319327731","[23,17,17,17,17,17,16,17,17,17,16,17,17,17,17,17,16,17,17,17,17,17,17,17,17,17,17,16,18,17,17,17,17,17,17,17,17,17,16,18,17,16,17,17,16,17,17,17,17,17,17,17,17,17,17,17,17,17,17,17,17,17,17,17,17,17,17,16,17,17,16,17,17,17,17,17,17,17,17,17,16,16,18,16,17,17,17,17,17,17,17,17,17,17,17,17,17,16,17,17,17,17,17,17,17,17,17,17,17,17,17,17,17,17,16,18,17,17,16]","119","735","461.5","true","15","15","#111","1","true","2","transparent","1470","923","52","138","","","","","",""
"4364","
        <div class=""response-container"">
          <div class=""response-instruction"">
            <p>rotate the bar by using the left and right arrow keys.</p>
            <p>when you are determined, press the Enter key.</p>
          </div>
          <div class=""response-circle"">
            <div class=""response-fixation""></div>
            <div id=""bar"" class=""rotating-bar""></div>
          </div>
        </div>
      ","Enter","html-keyboard-response","29","2.1.0","190539","black","","","","","","","","","","","","","","","","","","","","","","","","","","","","","","","","","","","","","","","","","","52","","40","50","-2","9","116",""
"null","
          <p style=""color: #00FF00;"">Your reward: 9 points</p>
        ","null","html-keyboard-response","30","2.1.0","192542","","","","","","","","","","","","","","","","","","","","","","","","","","","","","","","","","","","","","","","","","","","","","","","","","",""
"null","<div class=""fixation"" style=""font-size: 60px;"">+</div>","null","html-keyboard-response","31","2.1.0","193544","","","","","","","","","","","","","","","","","","","","","","","","","","","","","","","","","","","","","","","","","","","","","","","","","",""
"-1","","","rdk","32","2.0.0","195547","white","1","W_H_vs_B_L_rep4","false","ALL_KEYS","[""a""]","2000","[]","false","2","[100,100]","1","[205,289]","1","0","2","1","-1","1","300","300","[""black"",""white""]","circle","#AAA","3","2","2","16.916666666666668","[15,17,17,17,16,17,17,17,17,17,17,17,17,17,16,16,18,17,17,17,17,17,17,17,17,17,17,17,17,17,17,17,17,17,17,17,17,16,17,17,17,17,17,17,17,16,16,18,17,17,17,17,17,17,17,17,16,17,17,17,16,17,17,17,17,17,17,17,17,17,17,17,17,17,16,17,17,17,17,16,18,17,17,17,16,18,17,17,17,17,17,17,17,17,17,16,17,17,17,17,17,17,17,17,17,17,17,17,17,17,17,17,17,17,17,17,17,17,17,17]","120","735","461.5","true","15","15","#111","1","true","2","transparent","1470","923","289","205","","","","","",""
"2289","
        <div class=""response-container"">
          <div class=""response-instruction"">
            <p>rotate the bar by using the left and right arrow keys.</p>
            <p>when you are determined, press the Enter key.</p>
          </div>
          <div class=""response-circle"">
            <div class=""response-fixation""></div>
            <div id=""bar"" class=""rotating-bar""></div>
          </div>
        </div>
      ","Enter","html-keyboard-response","33","2.1.0","197837","white","","","","","","","","","","","","","","","","","","","","","","","","","","","","","","","","","","","","","","","","","","289","","211","239","34","0","116",""
"null","
          <p style=""color: #FF3333;"">Your reward: 0 points</p>
        ","null","html-keyboard-response","34","2.1.0","199839","","","","","","","","","","","","","","","","","","","","","","","","","","","","","","","","","","","","","","","","","","","","","","","","","",""
"null","<div class=""fixation"" style=""font-size: 60px;"">+</div>","null","html-keyboard-response","35","2.1.0","200841","","","","","","","","","","","","","","","","","","","","","","","","","","","","","","","","","","","","","","","","","","","","","","","","","",""
"-1","","","rdk","36","2.0.0","202847","black","0","B_H_vs_W_L_rep15","false","ALL_KEYS","[""a""]","2000","[]","false","2","[100,100]","1","[46,135]","1","0","2","1","-1","1","300","300","[""black"",""white""]","circle","#AAA","3","2","2","16.941666666666666","[17,17,17,17,17,16,17,17,17,17,16,18,17,16,18,17,17,17,17,17,17,17,17,17,17,17,17,16,17,17,17,17,17,17,17,17,16,17,17,17,16,18,17,17,17,17,17,17,17,16,17,17,17,17,17,17,17,17,16,17,17,17,17,17,17,17,17,17,17,17,16,17,17,17,17,17,17,17,17,17,17,17,17,17,17,17,17,16,17,17,17,17,17,17,17,17,17,17,17,17,17,17,17,17,17,17,17,17,17,17,17,17,17,17,17,17,17,17,17,17]","120","735","461.5","true","15","15","#111","1","true","2","transparent","1470","923","46","135","","","","","",""
"2527","
        <div class=""response-container"">
          <div class=""response-instruction"">
            <p>rotate the bar by using the left and right arrow keys.</p>
            <p>when you are determined, press the Enter key.</p>
          </div>
          <div class=""response-circle"">
            <div class=""response-fixation""></div>
            <div id=""bar"" class=""rotating-bar""></div>
          </div>
        </div>
      ","Enter","html-keyboard-response","37","2.1.0","205375","black","","","","","","","","","","","","","","","","","","","","","","","","","","","","","","","","","","","","","","","","","","46","","317","133","-2","0","116",""
"null","
          <p style=""color: #FF3333;"">Your reward: 0 points</p>
        ","null","html-keyboard-response","38","2.1.0","207378","","","","","","","","","","","","","","","","","","","","","","","","","","","","","","","","","","","","","","","","","","","","","","","","","",""
"null","<div class=""fixation"" style=""font-size: 60px;"">+</div>","null","html-keyboard-response","39","2.1.0","208380","","","","","","","","","","","","","","","","","","","","","","","","","","","","","","","","","","","","","","","","","","","","","","","","","",""
"-1","","","rdk","40","2.0.0","210383","black","1","B_H_vs_W_L_rep5","false","ALL_KEYS","[""a""]","2000","[]","false","2","[100,100]","1","[101,36]","1","0","2","1","-1","1","300","300","[""white"",""black""]","circle","#AAA","3","2","2","16.841666666666665","[13,17,17,17,16,17,17,17,17,17,17,17,17,17,17,16,17,17,16,17,17,17,17,17,17,17,17,17,16,17,17,17,17,17,16,17,17,17,17,17,17,16,17,17,16,16,18,16,16,17,17,17,17,17,17,16,17,17,17,17,17,17,17,17,17,17,17,17,17,16,17,17,16,17,17,17,17,17,17,17,17,16,17,17,17,17,17,17,17,17,17,17,17,17,17,17,17,17,17,17,17,17,17,17,16,17,17,17,17,17,17,17,17,17,17,16,17,17,17,17]","120","735","461.5","true","15","15","#111","1","true","2","transparent","1470","923","36","101","","","","","",""
"2496","
        <div class=""response-container"">
          <div class=""response-instruction"">
            <p>rotate the bar by using the left and right arrow keys.</p>
            <p>when you are determined, press the Enter key.</p>
          </div>
          <div class=""response-circle"">
            <div class=""response-fixation""></div>
            <div id=""bar"" class=""rotating-bar""></div>
          </div>
        </div>
      ","Enter","html-keyboard-response","41","2.1.0","212880","black","","","","","","","","","","","","","","","","","","","","","","","","","","","","","","","","","","","","","","","","","","36","","49","41","5","8","116",""
"null","
          <p style=""color: #00FF00;"">Your reward: 8 points</p>
        ","null","html-keyboard-response","42","2.1.0","214882","","","","","","","","","","","","","","","","","","","","","","","","","","","","","","","","","","","","","","","","","","","","","","","","","",""
"null","<div class=""fixation"" style=""font-size: 60px;"">+</div>","null","html-keyboard-response","43","2.1.0","215883","","","","","","","","","","","","","","","","","","","","","","","","","","","","","","","","","","","","","","","","","","","","","","","","","",""
"-1","","","rdk","44","2.0.0","217887","black","0","B_H_vs_W_L_rep12","false","ALL_KEYS","[""a""]","2000","[]","false","2","[100,100]","1","[48,129]","1","0","2","1","-1","1","300","300","[""black"",""white""]","circle","#AAA","3","2","2","16.808333333333334","[10,16,17,16,17,18,17,17,17,17,17,17,16,17,17,17,17,17,17,17,17,16,18,17,17,16,17,16,17,17,17,16,17,17,16,17,17,17,16,17,17,17,16,16,18,17,17,16,18,17,17,17,17,17,17,16,18,17,17,17,16,18,17,17,17,17,17,17,16,17,17,17,17,17,17,17,17,17,17,16,17,17,17,17,17,16,17,17,17,17,16,17,17,17,17,17,17,17,16,17,17,17,16,17,17,17,17,17,17,17,17,17,17,17,16,18,16,17,16,17]","120","735","461.5","true","15","15","#111","1","true","2","transparent","1470","923","48","129","","","","","",""
"2710","
        <div class=""response-container"">
          <div class=""response-instruction"">
            <p>rotate the bar by using the left and right arrow keys.</p>
            <p>when you are determined, press the Enter key.</p>
          </div>
          <div class=""response-circle"">
            <div class=""response-fixation""></div>
            <div id=""bar"" class=""rotating-bar""></div>
          </div>
        </div>
      ","Enter","html-keyboard-response","45","2.1.0","220597","black","","","","","","","","","","","","","","","","","","","","","","","","","","","","","","","","","","","","","","","","","","48","","-48","138","9","0","116",""
"null","
          <p style=""color: #FF3333;"">Your reward: 0 points</p>
        ","null","html-keyboard-response","46","2.1.0","222599","","","","","","","","","","","","","","","","","","","","","","","","","","","","","","","","","","","","","","","","","","","","","","","","","",""
"null","<div class=""fixation"" style=""font-size: 60px;"">+</div>","null","html-keyboard-response","47","2.1.0","223601","","","","","","","","","","","","","","","","","","","","","","","","","","","","","","","","","","","","","","","","","","","","","","","","","",""
"-1","","","rdk","48","2.0.0","225604","white","1","W_H_vs_B_L_rep3","false","ALL_KEYS","[""a""]","2000","[]","false","2","[100,100]","1","[214,289]","1","0","2","1","-1","1","300","300","[""black"",""white""]","circle","#AAA","3","2","2","16.808333333333334","[9,17,17,17,16,17,16,17,17,17,17,16,17,16,18,17,17,17,17,16,17,17,17,17,17,17,17,17,16,17,17,16,17,16,16,17,17,17,17,17,16,18,17,17,17,17,17,17,17,17,17,17,17,17,17,17,16,17,17,17,17,17,17,16,17,17,17,17,17,17,16,18,17,17,16,18,17,17,17,17,17,17,17,16,18,17,17,16,17,16,16,18,17,17,16,17,17,17,17,17,16,17,17,17,16,17,17,17,17,17,17,17,17,17,17,17,17,17,17,17]","120","735","461.5","true","15","15","#111","1","true","2","transparent","1470","923","289","214","","","","","",""
"2772","
        <div class=""response-container"">
          <div class=""response-instruction"">
            <p>rotate the bar by using the left and right arrow keys.</p>
            <p>when you are determined, press the Enter key.</p>
          </div>
          <div class=""response-circle"">
            <div class=""response-fixation""></div>
            <div id=""bar"" class=""rotating-bar""></div>
          </div>
        </div>
      ","Enter","html-keyboard-response","49","2.1.0","228377","white","","","","","","","","","","","","","","","","","","","","","","","","","","","","","","","","","","","","","","","","","","289","","147","303","14","6","116",""
"null","
          <p style=""color: #00FF00;"">Your reward: 6 points</p>
        ","null","html-keyboard-response","50","2.1.0","230379","","","","","","","","","","","","","","","","","","","","","","","","","","","","","","","","","","","","","","","","","","","","","","","","","",""
"null","<div class=""fixation"" style=""font-size: 60px;"">+</div>","null","html-keyboard-response","51","2.1.0","231382","","","","","","","","","","","","","","","","","","","","","","","","","","","","","","","","","","","","","","","","","","","","","","","","","",""
"-1","","","rdk","52","2.0.0","233384","black","0","B_H_vs_W_L_rep13","false","ALL_KEYS","[""a""]","2000","[]","false","2","[100,100]","1","[46,109]","1","0","2","1","-1","1","300","300","[""black"",""white""]","circle","#AAA","3","2","2","16.833333333333332","[12,17,17,17,15,18,17,17,17,17,17,17,17,17,16,17,17,16,18,16,17,17,17,17,17,17,17,17,17,17,17,17,17,17,16,17,17,17,17,16,17,16,18,16,17,16,17,17,17,17,17,17,17,17,16,17,16,17,17,17,17,17,17,17,17,17,17,17,17,17,16,16,18,17,17,16,17,17,17,17,17,17,17,16,16,17,17,17,17,17,17,17,16,17,17,17,17,17,17,17,17,17,17,17,17,17,17,17,17,17,17,17,17,17,17,16,17,17,17,17]","120","735","461.5","true","15","15","#111","1","true","2","transparent","1470","923","46","109","","","","","",""
"1353","
        <div class=""response-container"">
          <div class=""response-instruction"">
            <p>rotate the bar by using the left and right arrow keys.</p>
            <p>when you are determined, press the Enter key.</p>
          </div>
          <div class=""response-circle"">
            <div class=""response-fixation""></div>
            <div id=""bar"" class=""rotating-bar""></div>
          </div>
        </div>
      ","Enter","html-keyboard-response","53","2.1.0","234738","black","","","","","","","","","","","","","","","","","","","","","","","","","","","","","","","","","","","","","","","","","","46","","48","42","-4","9","116",""
"null","
          <p style=""color: #00FF00;"">Your reward: 9 points</p>
        ","null","html-keyboard-response","54","2.1.0","236741","","","","","","","","","","","","","","","","","","","","","","","","","","","","","","","","","","","","","","","","","","","","","","","","","",""
"null","<div class=""fixation"" style=""font-size: 60px;"">+</div>","null","html-keyboard-response","55","2.1.0","237744","","","","","","","","","","","","","","","","","","","","","","","","","","","","","","","","","","","","","","","","","","","","","","","","","",""
"-1","","","rdk","56","2.0.0","239746","white","1","W_H_vs_B_L_rep7","false","ALL_KEYS","[""a""]","2000","[]","false","2","[100,100]","1","[231,279]","1","0","2","1","-1","1","300","300","[""black"",""white""]","circle","#AAA","3","2","2","16.933333333333334","[14,17,17,17,17,17,17,17,17,17,17,17,17,17,17,17,17,17,17,17,17,16,18,16,17,17,17,17,17,17,17,17,17,16,17,17,17,17,17,17,17,17,17,17,17,17,17,17,17,17,17,17,17,17,17,17,17,17,17,17,16,16,17,17,17,17,17,17,17,17,17,17,17,17,17,17,17,17,17,17,17,17,17,17,17,17,17,17,17,17,17,17,17,17,17,17,17,17,17,17,17,17,17,17,17,17,16,17,17,17,17,17,17,17,17,17,17,17,17,17]","120","735","461.5","true","15","15","#111","1","true","2","transparent","1470","923","279","231","","","","","",""
"2946","
        <div class=""response-container"">
          <div class=""response-instruction"">
            <p>rotate the bar by using the left and right arrow keys.</p>
            <p>when you are determined, press the Enter key.</p>
          </div>
          <div class=""response-circle"">
            <div class=""response-fixation""></div>
            <div id=""bar"" class=""rotating-bar""></div>
          </div>
        </div>
      ","Enter","html-keyboard-response","57","2.1.0","242693","white","","","","","","","","","","","","","","","","","","","","","","","","","","","","","","","","","","","","","","","","","","279","","153","297","18","6","116",""
"null","
          <p style=""color: #00FF00;"">Your reward: 6 points</p>
        ","null","html-keyboard-response","58","2.1.0","244696","","","","","","","","","","","","","","","","","","","","","","","","","","","","","","","","","","","","","","","","","","","","","","","","","",""
"null","<div class=""fixation"" style=""font-size: 60px;"">+</div>","null","html-keyboard-response","59","2.1.0","245698","","","","","","","","","","","","","","","","","","","","","","","","","","","","","","","","","","","","","","","","","","","","","","","","","",""
"-1","","","rdk","60","2.0.0","247702","white","1","W_H_vs_B_L_rep12","false","ALL_KEYS","[""a""]","2000","[]","false","2","[100,100]","1","[222,289]","1","0","2","1","-1","1","300","300","[""black"",""white""]","circle","#AAA","3","2","2","16.891666666666666","[10,17,17,17,17,17,17,17,17,17,17,17,17,17,17,17,17,17,17,17,17,17,16,17,17,17,17,17,17,17,17,17,17,16,17,17,17,17,17,17,17,17,17,17,17,17,17,17,17,17,17,17,17,17,17,17,17,17,16,17,17,16,17,17,17,17,17,17,17,17,17,17,17,17,17,17,17,17,17,17,17,17,17,17,17,17,17,17,17,17,17,17,17,17,17,17,16,17,17,17,17,17,17,16,17,17,17,17,17,17,17,17,17,17,17,17,17,17,17,17]","120","735","461.5","true","15","15","#111","1","true","2","transparent","1470","923","289","222","","","","","",""
"2624","
        <div class=""response-container"">
          <div class=""response-instruction"">
            <p>rotate the bar by using the left and right arrow keys.</p>
            <p>when you are determined, press the Enter key.</p>
          </div>
          <div class=""response-circle"">
            <div class=""response-fixation""></div>
            <div id=""bar"" class=""rotating-bar""></div>
          </div>
        </div>
      ","Enter","html-keyboard-response","61","2.1.0","250328","white","","","","","","","","","","","","","","","","","","","","","","","","","","","","","","","","","","","","","","","","","","289","","142","308","19","5","116",""
"null","
          <p style=""color: #00FF00;"">Your reward: 5 points</p>
        ","null","html-keyboard-response","62","2.1.0","252330","","","","","","","","","","","","","","","","","","","","","","","","","","","","","","","","","","","","","","","","","","","","","","","","","",""
"null","<div class=""fixation"" style=""font-size: 60px;"">+</div>","null","html-keyboard-response","63","2.1.0","253333","","","","","","","","","","","","","","","","","","","","","","","","","","","","","","","","","","","","","","","","","","","","","","","","","",""
"-1","","","rdk","64","2.0.0","255337","white","0","W_H_vs_B_L_rep6","false","ALL_KEYS","[""a""]","2000","[]","false","2","[100,100]","1","[288,219]","1","0","2","1","-1","1","300","300","[""white"",""black""]","circle","#AAA","3","2","2","16.85","[9,17,17,17,16,17,17,16,17,17,17,17,17,17,17,17,17,17,16,18,17,17,17,17,17,17,17,17,17,17,17,17,17,16,18,17,17,17,17,17,17,17,17,17,17,17,17,17,17,17,17,17,17,17,17,17,16,17,16,18,16,17,17,17,17,17,17,16,17,17,17,17,17,17,17,17,17,17,17,17,17,17,17,17,17,17,17,17,17,17,17,16,17,17,17,17,17,17,17,17,16,17,17,16,17,17,17,17,16,17,16,17,17,17,17,16,18,17,17,17]","120","735","461.5","true","15","15","#111","1","true","2","transparent","1470","923","288","219","","","","","",""
"3368","
        <div class=""response-container"">
          <div class=""response-instruction"">
            <p>rotate the bar by using the left and right arrow keys.</p>
            <p>when you are determined, press the Enter key.</p>
          </div>
          <div class=""response-circle"">
            <div class=""response-fixation""></div>
            <div id=""bar"" class=""rotating-bar""></div>
          </div>
        </div>
      ","Enter","html-keyboard-response","65","2.1.0","258705","white","","","","","","","","","","","","","","","","","","","","","","","","","","","","","","","","","","","","","","","","","","288","","512","298","10","7","116",""
"null","
          <p style=""color: #00FF00;"">Your reward: 7 points</p>
        ","null","html-keyboard-response","66","2.1.0","260708","","","","","","","","","","","","","","","","","","","","","","","","","","","","","","","","","","","","","","","","","","","","","","","","","",""
"null","<div class=""fixation"" style=""font-size: 60px;"">+</div>","null","html-keyboard-response","67","2.1.0","261711","","","","","","","","","","","","","","","","","","","","","","","","","","","","","","","","","","","","","","","","","","","","","","","","","",""
"-1","","","rdk","68","2.0.0","263714","white","0","W_H_vs_B_L_rep10","false","ALL_KEYS","[""a""]","2000","[]","false","2","[100,100]","1","[296,207]","1","0","2","1","-1","1","300","300","[""white"",""black""]","circle","#AAA","3","2","2","16.883333333333333","[14,17,17,17,16,17,17,17,17,16,17,16,17,16,18,17,17,16,17,17,17,17,17,17,17,17,17,17,17,17,17,17,17,17,17,17,17,17,17,17,17,17,17,17,17,17,17,17,17,17,17,17,17,17,17,17,17,16,17,17,17,17,17,16,17,17,17,17,17,17,17,17,17,17,17,16,17,17,17,17,17,17,17,17,17,17,17,16,17,17,17,17,17,17,17,15,18,16,17,17,16,17,17,17,17,17,17,17,17,17,17,17,17,17,17,17,17,16,18,17]","120","735","461.5","true","15","15","#111","1","true","2","transparent","1470","923","296","207","","","","","",""
"2183","
        <div class=""response-container"">
          <div class=""response-instruction"">
            <p>rotate the bar by using the left and right arrow keys.</p>
            <p>when you are determined, press the Enter key.</p>
          </div>
          <div class=""response-circle"">
            <div class=""response-fixation""></div>
            <div id=""bar"" class=""rotating-bar""></div>
          </div>
        </div>
      ","Enter","html-keyboard-response","69","2.1.0","265897","white","","","","","","","","","","","","","","","","","","","","","","","","","","","","","","","","","","","","","","","","","","296","","148","302","6","8","116",""
"null","
          <p style=""color: #00FF00;"">Your reward: 8 points</p>
        ","null","html-keyboard-response","70","2.1.0","267900","","","","","","","","","","","","","","","","","","","","","","","","","","","","","","","","","","","","","","","","","","","","","","","","","",""
"null","<div class=""fixation"" style=""font-size: 60px;"">+</div>","null","html-keyboard-response","71","2.1.0","268902","","","","","","","","","","","","","","","","","","","","","","","","","","","","","","","","","","","","","","","","","","","","","","","","","",""
"-1","","","rdk","72","2.0.0","270906","black","1","B_H_vs_W_L_rep3","false","ALL_KEYS","[""a""]","2000","[]","false","2","[100,100]","1","[123,53]","1","0","2","1","-1","1","300","300","[""white"",""black""]","circle","#AAA","3","2","2","16.991596638655462","[23,17,17,17,17,17,17,17,17,17,17,17,17,17,16,17,17,17,17,17,17,17,17,16,17,17,17,17,17,17,17,17,17,17,16,17,17,17,16,17,17,17,17,17,17,17,17,17,17,16,17,17,17,17,17,17,17,17,17,16,17,17,17,17,17,17,17,17,17,17,17,17,17,17,17,17,17,17,17,16,18,17,17,17,17,17,17,17,17,17,17,16,18,17,17,17,17,17,17,17,17,17,17,17,17,17,16,17,17,17,17,17,17,17,16,18,17,17,17]","119","735","461.5","true","15","15","#111","1","true","2","transparent","1470","923","53","123","","","","","",""
"2509","
        <div class=""response-container"">
          <div class=""response-instruction"">
            <p>rotate the bar by using the left and right arrow keys.</p>
            <p>when you are determined, press the Enter key.</p>
          </div>
          <div class=""response-circle"">
            <div class=""response-fixation""></div>
            <div id=""bar"" class=""rotating-bar""></div>
          </div>
        </div>
      ","Enter","html-keyboard-response","73","2.1.0","273416","black","","","","","","","","","","","","","","","","","","","","","","","","","","","","","","","","","","","","","","","","","","53","","28","62","9","8","116",""
"null","
          <p style=""color: #00FF00;"">Your reward: 8 points</p>
        ","null","html-keyboard-response","74","2.1.0","275418","","","","","","","","","","","","","","","","","","","","","","","","","","","","","","","","","","","","","","","","","","","","","","","","","",""
"null","<div class=""fixation"" style=""font-size: 60px;"">+</div>","null","html-keyboard-response","75","2.1.0","276421","","","","","","","","","","","","","","","","","","","","","","","","","","","","","","","","","","","","","","","","","","","","","","","","","",""
"-1","","","rdk","76","2.0.0","278425","black","0","B_H_vs_W_L_rep6","false","ALL_KEYS","[""a""]","2000","[]","false","2","[100,100]","1","[53,127]","1","0","2","1","-1","1","300","300","[""black"",""white""]","circle","#AAA","3","2","2","16.96638655462185","[20,17,17,17,17,17,17,17,17,17,17,17,17,17,17,17,17,17,17,17,17,16,17,17,17,17,16,17,17,17,17,17,16,18,17,17,17,17,17,17,17,17,17,17,17,17,17,17,17,17,17,17,16,17,17,17,17,17,17,17,17,17,17,17,17,17,17,17,17,17,17,16,17,17,17,17,17,17,17,17,17,17,17,17,17,17,16,17,17,17,17,17,17,17,17,17,17,17,17,17,17,16,17,17,17,17,17,17,17,17,17,17,16,17,17,17,17,17,17]","119","735","461.5","true","15","15","#111","1","true","2","transparent","1470","923","53","127","","","","","",""
"3284","
        <div class=""response-container"">
          <div class=""response-instruction"">
            <p>rotate the bar by using the left and right arrow keys.</p>
            <p>when you are determined, press the Enter key.</p>
          </div>
          <div class=""response-circle"">
            <div class=""response-fixation""></div>
            <div id=""bar"" class=""rotating-bar""></div>
          </div>
        </div>
      ","Enter","html-keyboard-response","77","2.1.0","281709","black","","","","","","","","","","","","","","","","","","","","","","","","","","","","","","","","","","","","","","","","","","53","","407","43","-10","7","116",""
"null","
          <p style=""color: #00FF00;"">Your reward: 7 points</p>
        ","null","html-keyboard-response","78","2.1.0","283712","","","","","","","","","","","","","","","","","","","","","","","","","","","","","","","","","","","","","","","","","","","","","","","","","",""
"null","<div class=""fixation"" style=""font-size: 60px;"">+</div>","null","html-keyboard-response","79","2.1.0","284715","","","","","","","","","","","","","","","","","","","","","","","","","","","","","","","","","","","","","","","","","","","","","","","","","",""
"-1","","","rdk","80","2.0.0","286718","black","1","B_H_vs_W_L_rep10","false","ALL_KEYS","[""a""]","2000","[]","false","2","[100,100]","1","[103,19]","1","0","2","1","-1","1","300","300","[""white"",""black""]","circle","#AAA","3","2","2","16.833333333333332","[10,17,17,17,17,17,17,17,17,16,17,17,17,17,17,17,17,17,17,17,17,17,17,17,17,16,17,18,15,17,17,16,17,17,17,16,17,17,17,17,17,17,17,17,17,17,17,17,17,17,17,17,16,17,17,17,17,16,17,17,17,17,17,17,17,17,17,17,17,16,17,17,17,17,17,16,17,17,17,17,17,17,17,17,17,17,17,17,17,17,16,16,17,17,17,17,17,17,17,17,17,17,17,17,17,17,17,17,17,17,17,16,17,17,17,16,17,17,17,17]","120","735","461.5","true","15","15","#111","1","true","2","transparent","1470","923","19","103","","","","","",""
"1072","
        <div class=""response-container"">
          <div class=""response-instruction"">
            <p>rotate the bar by using the left and right arrow keys.</p>
            <p>when you are determined, press the Enter key.</p>
          </div>
          <div class=""response-circle"">
            <div class=""response-fixation""></div>
            <div id=""bar"" class=""rotating-bar""></div>
          </div>
        </div>
      ","Enter","html-keyboard-response","81","2.1.0","287790","black","","","","","","","","","","","","","","","","","","","","","","","","","","","","","","","","","","","","","","","","","","19","","54","36","17","6","116",""
"null","
          <p style=""color: #00FF00;"">Your reward: 6 points</p>
        ","null","html-keyboard-response","82","2.1.0","289793","","","","","","","","","","","","","","","","","","","","","","","","","","","","","","","","","","","","","","","","","","","","","","","","","",""
"null","<div class=""fixation"" style=""font-size: 60px;"">+</div>","null","html-keyboard-response","83","2.1.0","290796","","","","","","","","","","","","","","","","","","","","","","","","","","","","","","","","","","","","","","","","","","","","","","","","","",""
"-1","","","rdk","84","2.0.0","292800","black","0","B_H_vs_W_L_rep14","false","ALL_KEYS","[""a""]","2000","[]","false","2","[100,100]","1","[41,110]","1","0","2","1","-1","1","300","300","[""black"",""white""]","circle","#AAA","3","2","2","16.883333333333333","[12,17,17,17,17,17,17,17,17,17,17,17,17,17,17,16,18,17,17,17,17,17,16,17,17,17,17,17,17,16,17,17,17,17,17,17,17,17,17,16,17,17,17,17,17,17,17,17,16,17,17,17,17,17,17,17,17,17,17,16,17,17,17,17,17,17,17,17,17,17,17,16,17,17,17,17,17,17,17,17,17,17,17,17,17,16,18,17,17,17,16,17,17,17,17,17,17,17,17,17,17,17,17,17,16,17,17,17,17,17,17,17,16,17,17,17,17,16,18,17]","120","735","461.5","true","15","15","#111","1","true","2","transparent","1470","923","41","110","","","","","",""
"2563","
        <div class=""response-container"">
          <div class=""response-instruction"">
            <p>rotate the bar by using the left and right arrow keys.</p>
            <p>when you are determined, press the Enter key.</p>
          </div>
          <div class=""response-circle"">
            <div class=""response-fixation""></div>
            <div id=""bar"" class=""rotating-bar""></div>
          </div>
        </div>
      ","Enter","html-keyboard-response","85","2.1.0","295364","black","","","","","","","","","","","","","","","","","","","","","","","","","","","","","","","","","","","","","","","","","","41","","47","43","2","9","116",""
"null","
          <p style=""color: #00FF00;"">Your reward: 9 points</p>
        ","null","html-keyboard-response","86","2.1.0","297367","","","","","","","","","","","","","","","","","","","","","","","","","","","","","","","","","","","","","","","","","","","","","","","","","",""
"null","<div class=""fixation"" style=""font-size: 60px;"">+</div>","null","html-keyboard-response","87","2.1.0","298369","","","","","","","","","","","","","","","","","","","","","","","","","","","","","","","","","","","","","","","","","","","","","","","","","",""
"-1","","","rdk","88","2.0.0","300373","white","0","W_H_vs_B_L_rep2","false","ALL_KEYS","[""a""]","2000","[]","false","2","[100,100]","1","[288,204]","1","0","2","1","-1","1","300","300","[""white"",""black""]","circle","#AAA","3","2","2","16.96638655462185","[22,17,17,17,17,17,17,17,17,17,17,17,17,17,17,17,17,17,17,17,17,16,18,17,17,17,17,17,17,17,17,17,17,17,17,17,17,17,17,17,17,17,17,17,17,17,17,17,16,17,16,17,17,17,17,16,17,16,17,17,17,17,17,16,17,17,17,17,17,17,17,17,17,17,17,17,17,16,18,17,17,17,17,17,17,17,17,17,17,17,16,17,17,16,17,17,17,17,17,16,17,17,17,17,17,17,17,17,17,17,17,17,17,17,17,16,17,17,17]","119","735","461.5","true","15","15","#111","1","true","2","transparent","1470","923","288","204","","","","","",""
"1055","
        <div class=""response-container"">
          <div class=""response-instruction"">
            <p>rotate the bar by using the left and right arrow keys.</p>
            <p>when you are determined, press the Enter key.</p>
          </div>
          <div class=""response-circle"">
            <div class=""response-fixation""></div>
            <div id=""bar"" class=""rotating-bar""></div>
          </div>
        </div>
      ","Enter","html-keyboard-response","89","2.1.0","301429","white","","","","","","","","","","","","","","","","","","","","","","","","","","","","","","","","","","","","","","","","","","288","","232","218","14","0","116",""
"null","
          <p style=""color: #FF3333;"">Your reward: 0 points</p>
        ","null","html-keyboard-response","90","2.1.0","303432","","","","","","","","","","","","","","","","","","","","","","","","","","","","","","","","","","","","","","","","","","","","","","","","","",""
"null","<div class=""fixation"" style=""font-size: 60px;"">+</div>","null","html-keyboard-response","91","2.1.0","304435","","","","","","","","","","","","","","","","","","","","","","","","","","","","","","","","","","","","","","","","","","","","","","","","","",""
"-1","","","rdk","92","2.0.0","306439","black","1","B_H_vs_W_L_rep1","false","ALL_KEYS","[""a""]","2000","[]","false","2","[100,100]","1","[104,32]","1","0","2","1","-1","1","300","300","[""white"",""black""]","circle","#AAA","3","2","2","16.96638655462185","[24,17,17,17,16,17,17,17,17,17,17,17,17,16,17,17,17,17,17,16,17,17,17,17,17,17,17,17,17,16,17,17,17,17,17,17,17,16,17,17,17,17,17,16,17,17,17,17,17,17,17,15,18,17,17,17,17,17,17,17,17,17,17,17,17,16,17,17,17,17,17,17,17,16,17,17,17,17,17,17,17,17,17,17,17,17,17,17,17,17,17,17,17,17,17,17,17,16,18,17,17,17,17,17,17,16,18,17,17,17,17,17,17,16,18,16,16,17,17]","119","735","461.5","true","15","15","#111","1","true","2","transparent","1470","923","32","104","","","","","",""
"907","
        <div class=""response-container"">
          <div class=""response-instruction"">
            <p>rotate the bar by using the left and right arrow keys.</p>
            <p>when you are determined, press the Enter key.</p>
          </div>
          <div class=""response-circle"">
            <div class=""response-fixation""></div>
            <div id=""bar"" class=""rotating-bar""></div>
          </div>
        </div>
      ","Enter","html-keyboard-response","93","2.1.0","307347","black","","","","","","","","","","","","","","","","","","","","","","","","","","","","","","","","","","","","","","","","","","32","","342","108","4","0","116",""
"null","
          <p style=""color: #FF3333;"">Your reward: 0 points</p>
        ","null","html-keyboard-response","94","2.1.0","309350","","","","","","","","","","","","","","","","","","","","","","","","","","","","","","","","","","","","","","","","","","","","","","","","","",""
"null","<div class=""fixation"" style=""font-size: 60px;"">+</div>","null","html-keyboard-response","95","2.1.0","310353","","","","","","","","","","","","","","","","","","","","","","","","","","","","","","","","","","","","","","","","","","","","","","","","","",""
"1966","","ArrowLeft","rdk","96","2.0.0","312358","white","0","W_H_vs_B_L_rep14","false","ALL_KEYS","[""a""]","2000","[]","false","2","[100,100]","1","[280,223]","1","0","2","1","-1","1","300","300","[""white"",""black""]","circle","#AAA","3","2","2","16.915966386554622","[20,17,17,17,17,17,17,17,17,17,16,17,17,17,17,17,17,17,16,17,17,17,17,17,17,17,17,17,16,17,16,17,17,17,17,17,17,17,17,17,17,17,17,17,17,17,17,17,16,17,17,17,17,17,16,17,17,17,17,17,17,17,17,17,16,17,17,17,16,17,17,17,17,17,17,16,17,17,17,17,17,16,17,17,17,17,17,17,17,17,17,17,17,17,16,17,17,17,17,17,17,17,16,17,17,17,17,17,17,17,17,17,17,17,17,17,16,17,17]","119","735","461.5","true","15","15","#111","1","true","2","transparent","1470","923","280","223","","","","","",""
"1628","
        <div class=""response-container"">
          <div class=""response-instruction"">
            <p>rotate the bar by using the left and right arrow keys.</p>
            <p>when you are determined, press the Enter key.</p>
          </div>
          <div class=""response-circle"">
            <div class=""response-fixation""></div>
            <div id=""bar"" class=""rotating-bar""></div>
          </div>
        </div>
      ","Enter","html-keyboard-response","97","2.1.0","313988","white","","","","","","","","","","","","","","","","","","","","","","","","","","","","","","","","","","","","","","","","","","280","","220","230","7","0","116",""
"null","
          <p style=""color: #FF3333;"">Your reward: 0 points</p>
        ","null","html-keyboard-response","98","2.1.0","315990","","","","","","","","","","","","","","","","","","","","","","","","","","","","","","","","","","","","","","","","","","","","","","","","","",""
"null","<div class=""fixation"" style=""font-size: 60px;"">+</div>","null","html-keyboard-response","99","2.1.0","316993","","","","","","","","","","","","","","","","","","","","","","","","","","","","","","","","","","","","","","","","","","","","","","","","","",""
"-1","","","rdk","100","2.0.0","318996","black","0","B_H_vs_W_L_rep11","false","ALL_KEYS","[""a""]","2000","[]","false","2","[100,100]","1","[30,113]","1","0","2","1","-1","1","300","300","[""black"",""white""]","circle","#AAA","3","2","2","16.875","[14,17,17,17,17,16,18,17,17,17,17,17,16,17,17,17,17,16,17,17,17,17,17,17,16,17,17,16,17,17,17,16,17,17,17,17,17,17,17,17,16,18,17,17,17,17,16,17,17,17,17,16,17,17,16,17,17,17,17,17,17,17,17,17,17,17,17,17,17,17,17,17,17,17,17,17,17,17,16,17,17,17,17,17,17,17,17,17,17,17,17,17,17,17,17,17,17,17,17,17,17,16,17,17,17,17,16,17,17,17,17,17,17,17,17,17,17,17,17,16]","120","735","461.5","true","15","15","#111","1","true","2","transparent","1470","923","30","113","","","","","",""
"981","
        <div class=""response-container"">
          <div class=""response-instruction"">
            <p>rotate the bar by using the left and right arrow keys.</p>
            <p>when you are determined, press the Enter key.</p>
          </div>
          <div class=""response-circle"">
            <div class=""response-fixation""></div>
            <div id=""bar"" class=""rotating-bar""></div>
          </div>
        </div>
      ","Enter","html-keyboard-response","101","2.1.0","319978","black","","","","","","","","","","","","","","","","","","","","","","","","","","","","","","","","","","","","","","","","","","30","","331","119","6","0","116",""
"null","
          <p style=""color: #FF3333;"">Your reward: 0 points</p>
        ","null","html-keyboard-response","102","2.1.0","321981","","","","","","","","","","","","","","","","","","","","","","","","","","","","","","","","","","","","","","","","","","","","","","","","","",""
"null","<div class=""fixation"" style=""font-size: 60px;"">+</div>","null","html-keyboard-response","103","2.1.0","322984","","","","","","","","","","","","","","","","","","","","","","","","","","","","","","","","","","","","","","","","","","","","","","","","","",""
"-1","","","rdk","104","2.0.0","324988","black","1","B_H_vs_W_L_rep8","false","ALL_KEYS","[""a""]","2000","[]","false","2","[100,100]","1","[99,15]","1","0","2","1","-1","1","300","300","[""white"",""black""]","circle","#AAA","3","2","2","16.983193277310924","[23,17,17,17,17,17,17,17,17,17,17,17,17,17,17,17,17,17,16,17,17,17,17,17,17,17,16,17,17,17,17,17,17,17,17,16,17,17,17,17,17,17,17,17,17,17,17,17,16,17,17,17,17,17,17,17,17,16,18,17,17,17,17,17,17,16,17,17,17,17,17,17,17,17,17,17,17,17,17,17,17,17,17,17,17,17,17,17,17,17,17,17,17,17,17,17,17,17,17,16,16,17,17,17,17,17,16,17,17,17,17,17,17,17,17,17,17,17,17]","119","735","461.5","true","15","15","#111","1","true","2","transparent","1470","923","15","99","","","","","",""
"1131","
        <div class=""response-container"">
          <div class=""response-instruction"">
            <p>rotate the bar by using the left and right arrow keys.</p>
            <p>when you are determined, press the Enter key.</p>
          </div>
          <div class=""response-circle"">
            <div class=""response-fixation""></div>
            <div id=""bar"" class=""rotating-bar""></div>
          </div>
        </div>
      ","Enter","html-keyboard-response","105","2.1.0","326120","black","","","","","","","","","","","","","","","","","","","","","","","","","","","","","","","","","","","","","","","","","","15","","340","110","11","0","116",""
"null","
          <p style=""color: #FF3333;"">Your reward: 0 points</p>
        ","null","html-keyboard-response","106","2.1.0","328122","","","","","","","","","","","","","","","","","","","","","","","","","","","","","","","","","","","","","","","","","","","","","","","","","",""
"null","<div class=""fixation"" style=""font-size: 60px;"">+</div>","null","html-keyboard-response","107","2.1.0","329124","","","","","","","","","","","","","","","","","","","","","","","","","","","","","","","","","","","","","","","","","","","","","","","","","",""
"-1","","","rdk","108","2.0.0","331126","white","0","W_H_vs_B_L_rep1","false","ALL_KEYS","[""a""]","2000","[]","false","2","[100,100]","1","[285,212]","1","0","2","1","-1","1","300","300","[""white"",""black""]","circle","#AAA","3","2","2","16.92436974789916","[18,17,17,17,17,17,17,17,17,17,16,17,17,17,17,17,17,17,17,16,17,17,17,17,17,17,17,17,17,17,17,17,17,17,17,17,17,17,17,17,17,17,16,18,17,17,17,17,16,17,17,17,17,17,17,17,17,17,17,17,17,17,17,17,16,17,17,17,17,17,16,17,16,17,17,16,17,17,17,17,17,17,17,17,17,17,17,17,17,17,17,17,17,17,16,17,17,17,17,17,17,17,17,17,17,17,16,17,17,17,17,17,17,17,16,17,17,17,17]","119","735","461.5","true","15","15","#111","1","true","2","transparent","1470","923","285","212","","","","","",""
"2223","
        <div class=""response-container"">
          <div class=""response-instruction"">
            <p>rotate the bar by using the left and right arrow keys.</p>
            <p>when you are determined, press the Enter key.</p>
          </div>
          <div class=""response-circle"">
            <div class=""response-fixation""></div>
            <div id=""bar"" class=""rotating-bar""></div>
          </div>
        </div>
      ","Enter","html-keyboard-response","109","2.1.0","333351","white","","","","","","","","","","","","","","","","","","","","","","","","","","","","","","","","","","","","","","","","","","285","","147","303","18","6","116",""
"null","
          <p style=""color: #00FF00;"">Your reward: 6 points</p>
        ","null","html-keyboard-response","110","2.1.0","335354","","","","","","","","","","","","","","","","","","","","","","","","","","","","","","","","","","","","","","","","","","","","","","","","","",""
"null","<div class=""fixation"" style=""font-size: 60px;"">+</div>","null","html-keyboard-response","111","2.1.0","336357","","","","","","","","","","","","","","","","","","","","","","","","","","","","","","","","","","","","","","","","","","","","","","","","","",""
"-1","","","rdk","112","2.0.0","338361","white","1","W_H_vs_B_L_rep13","false","ALL_KEYS","[""a""]","2000","[]","false","2","[100,100]","1","[211,299]","1","0","2","1","-1","1","300","300","[""black"",""white""]","circle","#AAA","3","2","2","16.925","[16,17,18,17,16,17,17,17,17,17,17,17,17,17,17,17,17,17,17,16,18,17,16,17,17,17,17,16,17,17,17,17,17,17,17,17,16,18,16,18,17,17,17,17,17,17,17,16,17,17,17,17,17,17,17,17,15,17,17,17,17,17,17,17,17,17,17,17,17,17,17,17,17,17,17,17,17,17,16,16,18,17,17,17,17,17,17,17,16,17,17,17,17,17,17,17,17,17,17,17,17,17,17,17,17,17,17,17,17,17,17,17,17,17,17,17,16,17,17,17]","120","735","461.5","true","15","15","#111","1","true","2","transparent","1470","923","299","211","","","","","",""
"1761","
        <div class=""response-container"">
          <div class=""response-instruction"">
            <p>rotate the bar by using the left and right arrow keys.</p>
            <p>when you are determined, press the Enter key.</p>
          </div>
          <div class=""response-circle"">
            <div class=""response-fixation""></div>
            <div id=""bar"" class=""rotating-bar""></div>
          </div>
        </div>
      ","Enter","html-keyboard-response","113","2.1.0","340123","white","","","","","","","","","","","","","","","","","","","","","","","","","","","","","","","","","","","","","","","","","","299","","230","220","9","0","116",""
"null","
          <p style=""color: #FF3333;"">Your reward: 0 points</p>
        ","null","html-keyboard-response","114","2.1.0","342125","","","","","","","","","","","","","","","","","","","","","","","","","","","","","","","","","","","","","","","","","","","","","","","","","",""
"null","<div class=""fixation"" style=""font-size: 60px;"">+</div>","null","html-keyboard-response","115","2.1.0","343128","","","","","","","","","","","","","","","","","","","","","","","","","","","","","","","","","","","","","","","","","","","","","","","","","",""
"195","","ArrowLeft","rdk","116","2.0.0","345131","black","0","B_H_vs_W_L_rep16","false","ALL_KEYS","[""a""]","2000","[]","false","2","[100,100]","1","[35,101]","1","0","2","1","-1","1","300","300","[""black"",""white""]","circle","#AAA","3","2","2","16.908333333333335","[11,17,17,17,17,17,17,17,17,17,15,18,17,16,17,17,17,17,17,17,17,17,17,17,17,17,16,17,17,17,17,17,17,17,17,17,17,17,17,17,17,17,17,17,17,16,18,17,17,16,18,17,17,17,17,17,16,17,17,17,17,17,17,17,17,17,17,17,17,17,16,17,17,17,17,17,17,17,17,17,17,17,17,17,17,17,17,17,17,17,17,17,17,17,17,17,17,17,17,17,17,17,17,17,17,17,17,17,17,17,17,17,17,17,17,17,17,17,17,17]","120","735","461.5","true","15","15","#111","1","true","2","transparent","1470","923","35","101","","","","","",""
"2943","
        <div class=""response-container"">
          <div class=""response-instruction"">
            <p>rotate the bar by using the left and right arrow keys.</p>
            <p>when you are determined, press the Enter key.</p>
          </div>
          <div class=""response-circle"">
            <div class=""response-fixation""></div>
            <div id=""bar"" class=""rotating-bar""></div>
          </div>
        </div>
      ","Enter","html-keyboard-response","117","2.1.0","348075","black","","","","","","","","","","","","","","","","","","","","","","","","","","","","","","","","","","","","","","","","","","35","","328","122","21","0","116",""
"null","
          <p style=""color: #FF3333;"">Your reward: 0 points</p>
        ","null","html-keyboard-response","118","2.1.0","350078","","","","","","","","","","","","","","","","","","","","","","","","","","","","","","","","","","","","","","","","","","","","","","","","","",""
"null","<div class=""fixation"" style=""font-size: 60px;"">+</div>","null","html-keyboard-response","119","2.1.0","351080","","","","","","","","","","","","","","","","","","","","","","","","","","","","","","","","","","","","","","","","","","","","","","","","","",""
"181","","ArrowLeft","rdk","120","2.0.0","353085","white","1","W_H_vs_B_L_rep16","false","ALL_KEYS","[""a""]","2000","[]","false","2","[100,100]","1","[196,285]","1","0","2","1","-1","1","300","300","[""black"",""white""]","circle","#AAA","3","2","2","16.791666666666668","[10,17,17,17,17,17,16,17,16,17,17,17,17,16,17,17,17,16,17,17,17,17,16,18,16,16,18,17,17,16,17,17,16,17,17,17,17,17,17,16,18,17,17,17,17,17,17,17,16,17,17,17,17,17,17,16,16,18,17,17,17,17,17,17,17,16,16,18,17,17,17,17,17,15,18,17,16,17,17,16,17,17,18,17,17,17,17,17,17,17,17,16,17,17,16,18,17,17,16,17,16,18,17,17,17,17,17,16,17,16,17,17,17,16,17,17,17,17,17,16]","120","735","461.5","true","15","15","#111","1","true","2","transparent","1470","923","285","196","","","","","",""
"2777","
        <div class=""response-container"">
          <div class=""response-instruction"">
            <p>rotate the bar by using the left and right arrow keys.</p>
            <p>when you are determined, press the Enter key.</p>
          </div>
          <div class=""response-circle"">
            <div class=""response-fixation""></div>
            <div id=""bar"" class=""rotating-bar""></div>
          </div>
        </div>
      ","Enter","html-keyboard-response","121","2.1.0","355864","white","","","","","","","","","","","","","","","","","","","","","","","","","","","","","","","","","","","","","","","","","","285","","-121","211","15","0","116",""
"null","
          <p style=""color: #FF3333;"">Your reward: 0 points</p>
        ","null","html-keyboard-response","122","2.1.0","357867","","","","","","","","","","","","","","","","","","","","","","","","","","","","","","","","","","","","","","","","","","","","","","","","","",""
"null","<div class=""fixation"" style=""font-size: 60px;"">+</div>","null","html-keyboard-response","123","2.1.0","358870","","","","","","","","","","","","","","","","","","","","","","","","","","","","","","","","","","","","","","","","","","","","","","","","","",""
"-1","","","rdk","124","2.0.0","360873","black","0","B_H_vs_W_L_rep2","false","ALL_KEYS","[""a""]","2000","[]","false","2","[100,100]","1","[52,124]","1","0","2","1","-1","1","300","300","[""black"",""white""]","circle","#AAA","3","2","2","16.983193277310924","[21,15,18,17,16,17,17,17,17,17,17,17,17,17,16,17,17,17,17,17,17,16,18,17,17,15,18,17,16,18,17,17,17,17,17,17,17,17,17,17,17,17,17,16,18,17,17,17,17,17,17,17,17,17,17,17,16,17,17,17,17,17,17,17,17,17,17,17,17,17,17,17,17,17,17,16,18,17,17,17,17,17,17,17,16,17,17,17,17,17,17,17,17,17,17,17,16,18,17,17,17,17,17,17,17,17,17,17,17,17,17,17,17,17,17,17,17,17,17]","119","735","461.5","true","15","15","#111","1","true","2","transparent","1470","923","52","124","","","","","",""
"2106","
        <div class=""response-container"">
          <div class=""response-instruction"">
            <p>rotate the bar by using the left and right arrow keys.</p>
            <p>when you are determined, press the Enter key.</p>
          </div>
          <div class=""response-circle"">
            <div class=""response-fixation""></div>
            <div id=""bar"" class=""rotating-bar""></div>
          </div>
        </div>
      ","Enter","html-keyboard-response","125","2.1.0","362980","black","","","","","","","","","","","","","","","","","","","","","","","","","","","","","","","","","","","","","","","","","","52","","397","53","1","9","116",""
"null","
          <p style=""color: #00FF00;"">Your reward: 9 points</p>
        ","null","html-keyboard-response","126","2.1.0","364983","","","","","","","","","","","","","","","","","","","","","","","","","","","","","","","","","","","","","","","","","","","","","","","","","",""
"null","<div class=""fixation"" style=""font-size: 60px;"">+</div>","null","html-keyboard-response","127","2.1.0","365985","","","","","","","","","","","","","","","","","","","","","","","","","","","","","","","","","","","","","","","","","","","","","","","","","",""
"-1","","","rdk","128","2.0.0","367989","black","1","B_H_vs_W_L_rep9","false","ALL_KEYS","[""a""]","2000","[]","false","2","[100,100]","1","[102,51]","1","0","2","1","-1","1","300","300","[""white"",""black""]","circle","#AAA","3","2","2","16.932773109243698","[22,17,17,16,17,17,17,17,17,17,17,17,17,17,17,17,17,17,17,17,17,17,16,17,16,17,17,17,17,17,16,17,17,17,17,17,17,16,17,17,16,17,17,17,17,17,17,17,17,17,17,17,17,17,17,17,17,17,17,16,17,16,17,17,17,17,16,17,17,17,17,17,17,17,17,17,17,17,16,17,17,17,17,17,17,17,17,17,17,17,17,17,17,17,17,17,17,17,17,17,16,17,17,17,17,17,17,17,17,17,17,16,17,17,17,16,17,17,17]","119","735","461.5","true","15","15","#111","1","true","2","transparent","1470","923","51","102","","","","","",""
"2522","
        <div class=""response-container"">
          <div class=""response-instruction"">
            <p>rotate the bar by using the left and right arrow keys.</p>
            <p>when you are determined, press the Enter key.</p>
          </div>
          <div class=""response-circle"">
            <div class=""response-fixation""></div>
            <div id=""bar"" class=""rotating-bar""></div>
          </div>
        </div>
      ","Enter","html-keyboard-response","129","2.1.0","370512","black","","","","","","","","","","","","","","","","","","","","","","","","","","","","","","","","","","","","","","","","","","51","","392","58","7","8","116",""
"null","
          <p style=""color: #00FF00;"">Your reward: 8 points</p>
        ","null","html-keyboard-response","130","2.1.0","372515","","","","","","","","","","","","","","","","","","","","","","","","","","","","","","","","","","","","","","","","","","","","","","","","","",""
"null","<div class=""fixation"" style=""font-size: 60px;"">+</div>","null","html-keyboard-response","131","2.1.0","373517","","","","","","","","","","","","","","","","","","","","","","","","","","","","","","","","","","","","","","","","","","","","","","","","","",""
"-1","","","rdk","132","2.0.0","375522","white","1","W_H_vs_B_L_rep5","false","ALL_KEYS","[""a""]","2000","[]","false","2","[100,100]","1","[215,293]","1","0","2","1","-1","1","300","300","[""black"",""white""]","circle","#AAA","3","2","2","16.991596638655462","[23,16,17,17,17,17,17,17,17,17,17,17,17,17,17,16,17,17,17,16,17,17,17,17,17,17,17,16,18,17,17,17,17,17,17,17,17,17,17,17,17,17,17,17,17,17,17,17,17,17,17,17,17,17,17,17,17,17,17,16,18,17,17,17,17,16,18,17,16,18,17,17,17,17,17,16,18,17,17,17,17,17,17,17,17,17,17,17,17,17,17,17,17,17,17,17,17,17,17,17,17,16,17,17,17,17,16,17,17,17,17,17,17,17,17,17,17,16,16]","119","735","461.5","true","15","15","#111","1","true","2","transparent","1470","923","293","215","","","","","",""
"2791","
        <div class=""response-container"">
          <div class=""response-instruction"">
            <p>rotate the bar by using the left and right arrow keys.</p>
            <p>when you are determined, press the Enter key.</p>
          </div>
          <div class=""response-circle"">
            <div class=""response-fixation""></div>
            <div id=""bar"" class=""rotating-bar""></div>
          </div>
        </div>
      ","Enter","html-keyboard-response","133","2.1.0","378314","white","","","","","","","","","","","","","","","","","","","","","","","","","","","","","","","","","","","","","","","","","","293","","225","225","10","0","116",""
"null","
          <p style=""color: #FF3333;"">Your reward: 0 points</p>
        ","null","html-keyboard-response","134","2.1.0","380317","","","","","","","","","","","","","","","","","","","","","","","","","","","","","","","","","","","","","","","","","","","","","","","","","",""
"null","<div class=""fixation"" style=""font-size: 60px;"">+</div>","null","html-keyboard-response","135","2.1.0","381319","","","","","","","","","","","","","","","","","","","","","","","","","","","","","","","","","","","","","","","","","","","","","","","","","",""
"-1","","","rdk","136","2.0.0","383324","black","1","B_H_vs_W_L_rep7","false","ALL_KEYS","[""a""]","2000","[]","false","2","[100,100]","1","[107,41]","1","0","2","1","-1","1","300","300","[""white"",""black""]","circle","#AAA","3","2","2","16.96638655462185","[21,17,17,17,17,17,17,17,17,17,17,17,16,18,17,17,16,18,17,17,17,17,17,17,17,17,17,17,17,17,17,17,16,17,17,17,17,17,17,17,17,17,17,17,17,17,17,17,17,17,17,17,17,17,17,17,17,17,16,17,17,17,17,17,17,17,17,17,17,17,17,17,17,17,16,17,17,17,17,17,16,17,17,17,17,17,17,17,17,17,17,16,17,17,17,17,17,17,17,17,17,17,17,17,17,17,17,17,17,17,16,17,16,17,17,17,17,17,16]","119","735","461.5","true","15","15","#111","1","true","2","transparent","1470","923","41","107","","","","","",""
"1073","
        <div class=""response-container"">
          <div class=""response-instruction"">
            <p>rotate the bar by using the left and right arrow keys.</p>
            <p>when you are determined, press the Enter key.</p>
          </div>
          <div class=""response-circle"">
            <div class=""response-fixation""></div>
            <div id=""bar"" class=""rotating-bar""></div>
          </div>
        </div>
      ","Enter","html-keyboard-response","137","2.1.0","384398","black","","","","","","","","","","","","","","","","","","","","","","","","","","","","","","","","","","","","","","","","","","41","","337","113","6","0","116",""
"null","
          <p style=""color: #FF3333;"">Your reward: 0 points</p>
        ","null","html-keyboard-response","138","2.1.0","386401","","","","","","","","","","","","","","","","","","","","","","","","","","","","","","","","","","","","","","","","","","","","","","","","","",""
"null","<div class=""fixation"" style=""font-size: 60px;"">+</div>","null","html-keyboard-response","139","2.1.0","387404","","","","","","","","","","","","","","","","","","","","","","","","","","","","","","","","","","","","","","","","","","","","","","","","","",""
"93","","ArrowLeft","rdk","140","2.0.0","389408","white","1","W_H_vs_B_L_rep15","false","ALL_KEYS","[""a""]","2000","[]","false","2","[100,100]","1","[213,294]","1","0","2","1","-1","1","300","300","[""black"",""white""]","circle","#AAA","3","2","2","16.949579831932773","[19,16,17,17,17,17,17,17,17,17,17,17,17,17,17,17,17,17,17,17,17,17,17,17,17,17,17,17,17,17,17,17,17,17,17,17,17,17,16,17,17,17,17,16,17,17,17,17,17,16,18,17,17,17,17,17,17,17,17,17,17,17,17,16,17,17,17,17,17,17,17,17,17,17,17,16,17,17,17,17,17,17,17,17,17,17,17,17,17,17,17,17,17,17,17,16,17,17,17,17,17,17,16,17,17,17,17,17,17,17,17,17,16,17,17,17,17,17,17]","119","735","461.5","true","15","15","#111","1","true","2","transparent","1470","923","294","213","","","","","",""
"1559","
        <div class=""response-container"">
          <div class=""response-instruction"">
            <p>rotate the bar by using the left and right arrow keys.</p>
            <p>when you are determined, press the Enter key.</p>
          </div>
          <div class=""response-circle"">
            <div class=""response-fixation""></div>
            <div id=""bar"" class=""rotating-bar""></div>
          </div>
        </div>
      ","Enter","html-keyboard-response","141","2.1.0","390969","white","","","","","","","","","","","","","","","","","","","","","","","","","","","","","","","","","","","","","","","","","","294","","235","215","2","0","116",""
"null","
          <p style=""color: #FF3333;"">Your reward: 0 points</p>
        ","null","html-keyboard-response","142","2.1.0","392972","","","","","","","","","","","","","","","","","","","","","","","","","","","","","","","","","","","","","","","","","","","","","","","","","",""
"952","","","html-keyboard-response","143","2.1.0","423929","","","","","","","","","","","","","","","","","","","","","","","","","","","","","","","","","","","","","","","","","","","","","","","","","","Enter"
"null","<div class=""fixation"" style=""font-size: 60px;"">+</div>","null","html-keyboard-response","144","2.1.0","424932","","","","","","","","","","","","","","","","","","","","","","","","","","","","","","","","","","","","","","","","","","","","","","","","","",""
"-1","","","rdk","145","2.0.0","426936","black","0","B_H_vs_W_L_rep1","false","ALL_KEYS","[""a""]","2000","[]","false","2","[100,100]","1","[302,11]","1","0","2","1","-1","1","300","300","[""black"",""white""]","circle","#AAA","3","2","2","16.96638655462185","[24,16,17,17,17,16,17,17,17,17,17,17,17,17,16,17,17,17,18,16,17,17,17,17,17,17,17,17,17,17,17,17,17,17,17,16,17,16,17,16,17,17,17,17,17,17,17,17,16,17,17,17,16,17,17,17,17,17,17,16,17,17,17,17,17,16,17,17,17,17,17,17,17,16,18,17,17,17,17,16,18,17,17,17,17,17,17,17,17,17,17,17,17,17,17,17,17,17,17,17,17,16,18,17,17,17,17,17,17,17,17,17,17,17,17,16,16,18,17]","119","735","461.5","true","15","15","#111","1","true","2","transparent","1470","923","302","11","","","","","",""
"1460","
        <div class=""response-container"">
          <div class=""response-instruction"">
            <p>rotate the bar by using the left and right arrow keys.</p>
            <p>when you are determined, press the Enter key.</p>
          </div>
          <div class=""response-circle"">
            <div class=""response-fixation""></div>
            <div id=""bar"" class=""rotating-bar""></div>
          </div>
        </div>
      ","Enter","html-keyboard-response","146","2.1.0","428397","black","","","","","","","","","","","","","","","","","","","","","","","","","","","","","","","","","","","","","","","","","","302","","145","305","3","9","116",""
"null","
          <p style=""color: #00FF00;"">Your reward: 9 points</p>
        ","null","html-keyboard-response","147","2.1.0","430399","","","","","","","","","","","","","","","","","","","","","","","","","","","","","","","","","","","","","","","","","","","","","","","","","",""
"null","<div class=""fixation"" style=""font-size: 60px;"">+</div>","null","html-keyboard-response","148","2.1.0","431402","","","","","","","","","","","","","","","","","","","","","","","","","","","","","","","","","","","","","","","","","","","","","","","","","",""
"-1","","","rdk","149","2.0.0","433406","white","0","W_H_vs_B_L_rep15","false","ALL_KEYS","[""a""]","2000","[]","false","2","[100,100]","1","[182,116]","1","0","2","1","-1","1","300","300","[""white"",""black""]","circle","#AAA","3","2","2","16.949579831932773","[20,16,17,17,17,17,17,17,17,17,17,17,17,17,16,17,17,17,17,17,17,16,17,17,17,17,16,17,17,17,17,17,16,17,17,17,17,17,17,17,17,17,17,17,17,16,16,18,17,17,17,17,17,16,18,17,17,17,17,17,17,17,17,17,17,17,17,17,17,17,16,18,17,17,17,17,17,17,16,17,17,17,17,17,17,17,16,18,17,17,17,17,17,17,17,17,17,17,17,17,17,17,17,17,17,17,17,17,17,17,17,17,17,16,17,17,16,17,17]","119","735","461.5","true","15","15","#111","1","true","2","transparent","1470","923","182","116","","","","","",""
"2093","
        <div class=""response-container"">
          <div class=""response-instruction"">
            <p>rotate the bar by using the left and right arrow keys.</p>
            <p>when you are determined, press the Enter key.</p>
          </div>
          <div class=""response-circle"">
            <div class=""response-fixation""></div>
            <div id=""bar"" class=""rotating-bar""></div>
          </div>
        </div>
      ","Enter","html-keyboard-response","150","2.1.0","435501","white","","","","","","","","","","","","","","","","","","","","","","","","","","","","","","","","","","","","","","","","","","182","","-37","127","11","0","116",""
"null","
          <p style=""color: #FF3333;"">Your reward: 0 points</p>
        ","null","html-keyboard-response","151","2.1.0","437503","","","","","","","","","","","","","","","","","","","","","","","","","","","","","","","","","","","","","","","","","","","","","","","","","",""
"null","<div class=""fixation"" style=""font-size: 60px;"">+</div>","null","html-keyboard-response","152","2.1.0","438505","","","","","","","","","","","","","","","","","","","","","","","","","","","","","","","","","","","","","","","","","","","","","","","","","",""
"-1","","","rdk","153","2.0.0","440509","black","0","B_H_vs_W_L_rep12","false","ALL_KEYS","[""a""]","2000","[]","false","2","[100,100]","1","[315,37]","1","0","2","1","-1","1","300","300","[""black"",""white""]","circle","#AAA","3","2","2","16.933333333333334","[16,17,17,17,17,17,16,17,17,16,17,17,17,17,17,16,18,17,17,17,17,17,17,17,17,17,17,17,17,17,17,17,17,17,17,17,17,17,17,17,17,17,17,17,17,17,17,16,17,17,17,17,17,17,17,16,18,17,17,17,17,17,16,17,17,17,17,17,17,17,17,17,17,17,17,17,17,17,17,17,17,17,17,16,17,17,16,17,17,17,17,17,17,17,17,17,17,17,17,17,17,17,17,17,17,17,16,17,17,17,17,17,17,17,17,17,17,17,17,17]","120","735","461.5","true","15","15","#111","1","true","2","transparent","1470","923","315","37","","","","","",""
"1705","
        <div class=""response-container"">
          <div class=""response-instruction"">
            <p>rotate the bar by using the left and right arrow keys.</p>
            <p>when you are determined, press the Enter key.</p>
          </div>
          <div class=""response-circle"">
            <div class=""response-fixation""></div>
            <div id=""bar"" class=""rotating-bar""></div>
          </div>
        </div>
      ","Enter","html-keyboard-response","154","2.1.0","442215","black","","","","","","","","","","","","","","","","","","","","","","","","","","","","","","","","","","","","","","","","","","315","","149","301","-14","6","116",""
"null","
          <p style=""color: #00FF00;"">Your reward: 6 points</p>
        ","null","html-keyboard-response","155","2.1.0","444217","","","","","","","","","","","","","","","","","","","","","","","","","","","","","","","","","","","","","","","","","","","","","","","","","",""
"null","<div class=""fixation"" style=""font-size: 60px;"">+</div>","null","html-keyboard-response","156","2.1.0","445220","","","","","","","","","","","","","","","","","","","","","","","","","","","","","","","","","","","","","","","","","","","","","","","","","",""
"-1","","","rdk","157","2.0.0","447224","white","1","W_H_vs_B_L_rep5","false","ALL_KEYS","[""a""]","2000","[]","false","2","[100,100]","1","[112,201]","1","0","2","1","-1","1","300","300","[""black"",""white""]","circle","#AAA","3","2","2","16.949579831932773","[19,17,17,17,16,17,17,17,17,17,17,17,17,17,17,17,16,17,17,17,17,17,17,17,17,17,17,17,17,17,17,17,17,17,17,17,17,17,17,17,17,17,17,17,17,17,17,17,17,17,17,17,17,17,16,17,17,17,17,17,17,16,18,17,16,17,17,17,17,17,17,17,17,17,17,17,17,17,17,17,16,17,17,17,17,16,17,17,17,17,17,17,17,17,17,17,17,17,17,17,17,17,17,16,18,16,17,16,17,17,17,17,17,17,17,17,17,17,17]","119","735","461.5","true","15","15","#111","1","true","2","transparent","1470","923","201","112","","","","","",""
"3101","
        <div class=""response-container"">
          <div class=""response-instruction"">
            <p>rotate the bar by using the left and right arrow keys.</p>
            <p>when you are determined, press the Enter key.</p>
          </div>
          <div class=""response-circle"">
            <div class=""response-fixation""></div>
            <div id=""bar"" class=""rotating-bar""></div>
          </div>
        </div>
      ","Enter","html-keyboard-response","158","2.1.0","450326","white","","","","","","","","","","","","","","","","","","","","","","","","","","","","","","","","","","","","","","","","","","201","","-21","111","-1","0","116",""
"null","
          <p style=""color: #FF3333;"">Your reward: 0 points</p>
        ","null","html-keyboard-response","159","2.1.0","452328","","","","","","","","","","","","","","","","","","","","","","","","","","","","","","","","","","","","","","","","","","","","","","","","","",""
"null","<div class=""fixation"" style=""font-size: 60px;"">+</div>","null","html-keyboard-response","160","2.1.0","453331","","","","","","","","","","","","","","","","","","","","","","","","","","","","","","","","","","","","","","","","","","","","","","","","","",""
"-1","","","rdk","161","2.0.0","455336","black","1","B_H_vs_W_L_rep10","false","ALL_KEYS","[""a""]","2000","[]","false","2","[100,100]","1","[34,304]","1","0","2","1","-1","1","300","300","[""white"",""black""]","circle","#AAA","3","2","2","16.92436974789916","[24,16,17,17,17,17,16,17,17,16,17,17,17,17,17,16,17,17,17,16,17,17,17,17,17,17,17,16,17,17,17,17,17,17,17,17,16,17,16,17,17,17,17,16,17,17,17,17,17,16,17,17,17,17,17,16,16,17,17,17,17,17,17,17,17,17,17,17,17,17,17,17,17,17,17,17,17,17,17,17,17,17,17,17,17,16,16,17,17,17,17,17,17,17,17,17,17,17,17,17,17,17,17,17,17,17,17,17,17,17,17,17,17,17,17,17,16,17,16]","119","735","461.5","true","15","15","#111","1","true","2","transparent","1470","923","304","34","","","","","",""
"643","
        <div class=""response-container"">
          <div class=""response-instruction"">
            <p>rotate the bar by using the left and right arrow keys.</p>
            <p>when you are determined, press the Enter key.</p>
          </div>
          <div class=""response-circle"">
            <div class=""response-fixation""></div>
            <div id=""bar"" class=""rotating-bar""></div>
          </div>
        </div>
      ","Enter","html-keyboard-response","162","2.1.0","455980","black","","","","","","","","","","","","","","","","","","","","","","","","","","","","","","","","","","","","","","","","","","304","","40","50","16","0","116",""
"null","
          <p style=""color: #FF3333;"">Your reward: 0 points</p>
        ","null","html-keyboard-response","163","2.1.0","457983","","","","","","","","","","","","","","","","","","","","","","","","","","","","","","","","","","","","","","","","","","","","","","","","","",""
"null","<div class=""fixation"" style=""font-size: 60px;"">+</div>","null","html-keyboard-response","164","2.1.0","458985","","","","","","","","","","","","","","","","","","","","","","","","","","","","","","","","","","","","","","","","","","","","","","","","","",""
"-1","","","rdk","165","2.0.0","460989","black","1","B_H_vs_W_L_rep11","false","ALL_KEYS","[""a""]","2000","[]","false","2","[100,100]","1","[16,286]","1","0","2","1","-1","1","300","300","[""white"",""black""]","circle","#AAA","3","2","2","16.915966386554622","[20,16,17,17,17,17,17,17,17,17,17,17,17,17,17,16,16,17,16,17,17,17,17,17,17,16,17,17,17,17,16,17,17,17,16,18,17,17,17,17,17,17,17,17,17,17,17,16,17,17,17,17,17,17,17,17,17,17,17,17,17,17,17,17,17,17,17,17,17,17,17,17,17,16,17,17,17,17,16,17,17,17,17,17,17,17,17,17,17,17,16,17,17,17,17,16,17,17,17,17,17,17,17,17,17,17,17,16,16,17,17,17,17,17,17,17,17,17,17]","119","735","461.5","true","15","15","#111","1","true","2","transparent","1470","923","286","16","","","","","",""
"2560","
        <div class=""response-container"">
          <div class=""response-instruction"">
            <p>rotate the bar by using the left and right arrow keys.</p>
            <p>when you are determined, press the Enter key.</p>
          </div>
          <div class=""response-circle"">
            <div class=""response-fixation""></div>
            <div id=""bar"" class=""rotating-bar""></div>
          </div>
        </div>
      ","Enter","html-keyboard-response","166","2.1.0","463551","black","","","","","","","","","","","","","","","","","","","","","","","","","","","","","","","","","","","","","","","","","","286","","406","44","28","0","116",""
"null","
          <p style=""color: #FF3333;"">Your reward: 0 points</p>
        ","null","html-keyboard-response","167","2.1.0","465554","","","","","","","","","","","","","","","","","","","","","","","","","","","","","","","","","","","","","","","","","","","","","","","","","",""
"null","<div class=""fixation"" style=""font-size: 60px;"">+</div>","null","html-keyboard-response","168","2.1.0","466556","","","","","","","","","","","","","","","","","","","","","","","","","","","","","","","","","","","","","","","","","","","","","","","","","",""
"-1","","","rdk","169","2.0.0","468559","white","0","W_H_vs_B_L_rep8","false","ALL_KEYS","[""a""]","2000","[]","false","2","[100,100]","1","[187,115]","1","0","2","1","-1","1","300","300","[""white"",""black""]","circle","#AAA","3","2","2","16.933333333333334","[16,17,17,17,17,17,17,17,17,17,17,17,17,17,17,17,17,17,17,16,17,17,17,17,17,17,17,17,17,17,17,17,17,17,17,17,17,17,17,16,17,17,17,17,17,17,17,17,17,17,17,17,17,17,17,17,17,17,17,17,17,17,17,17,17,17,17,17,17,17,17,16,17,17,17,17,17,17,17,16,17,17,17,17,17,17,17,17,17,17,17,17,16,17,17,17,17,17,17,17,17,17,17,17,16,17,17,16,18,17,17,16,17,17,17,17,17,17,17,17]","120","735","461.5","true","15","15","#111","1","true","2","transparent","1470","923","187","115","","","","","",""
"2485","
        <div class=""response-container"">
          <div class=""response-instruction"">
            <p>rotate the bar by using the left and right arrow keys.</p>
            <p>when you are determined, press the Enter key.</p>
          </div>
          <div class=""response-circle"">
            <div class=""response-fixation""></div>
            <div id=""bar"" class=""rotating-bar""></div>
          </div>
        </div>
      ","Enter","html-keyboard-response","170","2.1.0","471045","white","","","","","","","","","","","","","","","","","","","","","","","","","","","","","","","","","","","","","","","","","","187","","-33","123","8","0","116",""
"null","
          <p style=""color: #FF3333;"">Your reward: 0 points</p>
        ","null","html-keyboard-response","171","2.1.0","473048","","","","","","","","","","","","","","","","","","","","","","","","","","","","","","","","","","","","","","","","","","","","","","","","","",""
"null","<div class=""fixation"" style=""font-size: 60px;"">+</div>","null","html-keyboard-response","172","2.1.0","474050","","","","","","","","","","","","","","","","","","","","","","","","","","","","","","","","","","","","","","","","","","","","","","","","","",""
"37","","ArrowLeft","rdk","173","2.0.0","476054","white","0","W_H_vs_B_L_rep10","false","ALL_KEYS","[""a""]","2000","[]","false","2","[100,100]","1","[202,125]","1","0","2","1","-1","1","300","300","[""white"",""black""]","circle","#AAA","3","2","2","16.96638655462185","[21,16,17,17,17,17,17,17,17,17,16,17,17,17,16,16,17,17,17,17,17,17,17,17,17,17,17,17,17,17,17,17,17,17,17,17,17,17,17,16,18,17,17,17,16,18,17,17,17,17,17,17,17,17,17,17,17,17,17,17,17,17,16,17,17,16,17,17,17,17,17,17,17,17,16,17,17,17,17,17,17,17,17,17,17,17,17,17,17,17,17,17,17,17,17,17,17,17,17,17,17,17,17,17,17,17,16,17,17,17,17,17,17,17,17,17,17,17,17]","119","735","461.5","true","15","15","#111","1","true","2","transparent","1470","923","202","125","","","","","",""
"1961","
        <div class=""response-container"">
          <div class=""response-instruction"">
            <p>rotate the bar by using the left and right arrow keys.</p>
            <p>when you are determined, press the Enter key.</p>
          </div>
          <div class=""response-circle"">
            <div class=""response-fixation""></div>
            <div id=""bar"" class=""rotating-bar""></div>
          </div>
        </div>
      ","Enter","html-keyboard-response","174","2.1.0","478017","white","","","","","","","","","","","","","","","","","","","","","","","","","","","","","","","","","","","","","","","","","","202","","227","223","21","5","116",""
"null","
          <p style=""color: #00FF00;"">Your reward: 5 points</p>
        ","null","html-keyboard-response","175","2.1.0","480019","","","","","","","","","","","","","","","","","","","","","","","","","","","","","","","","","","","","","","","","","","","","","","","","","",""
"null","<div class=""fixation"" style=""font-size: 60px;"">+</div>","null","html-keyboard-response","176","2.1.0","481022","","","","","","","","","","","","","","","","","","","","","","","","","","","","","","","","","","","","","","","","","","","","","","","","","",""
"-1","","","rdk","177","2.0.0","483026","black","1","B_H_vs_W_L_rep14","false","ALL_KEYS","[""a""]","2000","[]","false","2","[100,100]","1","[6,300]","1","0","2","1","-1","1","300","300","[""white"",""black""]","circle","#AAA","3","2","2","16.941666666666666","[15,17,17,16,17,17,17,17,17,17,17,17,17,17,17,17,15,17,17,17,17,16,17,17,17,17,17,17,17,17,17,17,17,17,17,17,17,17,16,18,16,18,17,17,17,17,17,17,17,17,17,17,17,16,18,17,17,17,17,17,17,17,17,17,17,17,17,17,16,17,17,17,17,17,17,17,17,17,17,17,17,17,17,17,17,17,17,17,17,17,17,17,17,17,17,17,17,17,17,17,17,17,17,17,17,17,17,17,17,17,17,17,17,17,17,17,17,17,17,17]","120","735","461.5","true","15","15","#111","1","true","2","transparent","1470","923","300","6","","","","","",""
"985","
        <div class=""response-container"">
          <div class=""response-instruction"">
            <p>rotate the bar by using the left and right arrow keys.</p>
            <p>when you are determined, press the Enter key.</p>
          </div>
          <div class=""response-circle"">
            <div class=""response-fixation""></div>
            <div id=""bar"" class=""rotating-bar""></div>
          </div>
        </div>
      ","Enter","html-keyboard-response","178","2.1.0","484013","black","","","","","","","","","","","","","","","","","","","","","","","","","","","","","","","","","","","","","","","","","","300","","145","305","5","8","116",""
"null","
          <p style=""color: #00FF00;"">Your reward: 8 points</p>
        ","null","html-keyboard-response","179","2.1.0","486016","","","","","","","","","","","","","","","","","","","","","","","","","","","","","","","","","","","","","","","","","","","","","","","","","",""
"null","<div class=""fixation"" style=""font-size: 60px;"">+</div>","null","html-keyboard-response","180","2.1.0","487019","","","","","","","","","","","","","","","","","","","","","","","","","","","","","","","","","","","","","","","","","","","","","","","","","",""
"-1","","","rdk","181","2.0.0","489024","white","1","W_H_vs_B_L_rep2","false","ALL_KEYS","[""a""]","2000","[]","false","2","[100,100]","1","[112,200]","1","0","2","1","-1","1","300","300","[""black"",""white""]","circle","#AAA","3","2","2","16.949579831932773","[19,17,17,17,17,17,17,17,17,17,17,17,17,17,17,17,16,17,17,17,17,17,17,17,17,16,18,17,17,17,17,16,17,17,17,17,17,17,17,17,17,17,17,17,17,17,17,17,17,17,17,17,17,17,16,17,17,17,17,17,17,17,17,17,17,17,17,17,17,17,17,16,17,16,17,17,16,17,17,17,17,17,17,16,17,17,17,17,17,17,17,17,17,17,17,17,17,17,17,17,17,17,17,17,17,17,17,17,17,17,17,17,17,16,17,17,17,17,17]","119","735","461.5","true","15","15","#111","1","true","2","transparent","1470","923","200","112","","","","","",""
"2399","
        <div class=""response-container"">
          <div class=""response-instruction"">
            <p>rotate the bar by using the left and right arrow keys.</p>
            <p>when you are determined, press the Enter key.</p>
          </div>
          <div class=""response-circle"">
            <div class=""response-fixation""></div>
            <div id=""bar"" class=""rotating-bar""></div>
          </div>
        </div>
      ","Enter","html-keyboard-response","182","2.1.0","491424","white","","","","","","","","","","","","","","","","","","","","","","","","","","","","","","","","","","","","","","","","","","200","","225","225","25","4","116",""
"null","
          <p style=""color: #00FF00;"">Your reward: 4 points</p>
        ","null","html-keyboard-response","183","2.1.0","493426","","","","","","","","","","","","","","","","","","","","","","","","","","","","","","","","","","","","","","","","","","","","","","","","","",""
"null","<div class=""fixation"" style=""font-size: 60px;"">+</div>","null","html-keyboard-response","184","2.1.0","494429","","","","","","","","","","","","","","","","","","","","","","","","","","","","","","","","","","","","","","","","","","","","","","","","","",""
"-1","","","rdk","185","2.0.0","496434","white","0","W_H_vs_B_L_rep12","false","ALL_KEYS","[""a""]","2000","[]","false","2","[100,100]","1","[183,105]","1","0","2","1","-1","1","300","300","[""white"",""black""]","circle","#AAA","3","2","2","16.825","[9,17,17,17,17,17,17,17,17,16,17,17,17,17,17,17,17,17,17,17,17,16,17,17,17,17,17,17,17,17,17,17,16,17,17,17,16,17,17,16,17,17,17,17,17,17,17,17,16,17,17,16,17,17,17,17,17,17,16,17,17,17,17,17,17,17,17,17,17,17,17,17,17,17,17,17,17,17,17,17,17,17,17,17,17,17,17,17,17,17,17,17,17,17,17,17,17,17,17,16,17,17,17,17,17,17,17,17,16,17,16,17,16,16,17,17,17,17,17,17]","120","735","461.5","true","15","15","#111","1","true","2","transparent","1470","923","183","105","","","","","",""
"2146","
        <div class=""response-container"">
          <div class=""response-instruction"">
            <p>rotate the bar by using the left and right arrow keys.</p>
            <p>when you are determined, press the Enter key.</p>
          </div>
          <div class=""response-circle"">
            <div class=""response-fixation""></div>
            <div id=""bar"" class=""rotating-bar""></div>
          </div>
        </div>
      ","Enter","html-keyboard-response","186","2.1.0","498580","white","","","","","","","","","","","","","","","","","","","","","","","","","","","","","","","","","","","","","","","","","","183","","345","105","0","0","116",""
"null","
          <p style=""color: #FF3333;"">Your reward: 0 points</p>
        ","null","html-keyboard-response","187","2.1.0","500584","","","","","","","","","","","","","","","","","","","","","","","","","","","","","","","","","","","","","","","","","","","","","","","","","",""
"null","<div class=""fixation"" style=""font-size: 60px;"">+</div>","null","html-keyboard-response","188","2.1.0","501586","","","","","","","","","","","","","","","","","","","","","","","","","","","","","","","","","","","","","","","","","","","","","","","","","",""
"-1","","","rdk","189","2.0.0","503590","white","0","W_H_vs_B_L_rep1","false","ALL_KEYS","[""a""]","2000","[]","false","2","[100,100]","1","[205,121]","1","0","2","1","-1","1","300","300","[""white"",""black""]","circle","#AAA","3","2","2","16.907563025210084","[17,17,17,17,17,17,16,17,17,17,17,17,17,17,17,16,17,17,17,17,17,17,17,17,17,17,17,17,17,17,17,16,17,17,17,17,17,17,17,17,16,17,16,17,16,17,17,17,17,17,17,17,17,17,17,17,16,17,16,18,17,17,17,17,17,17,17,17,17,17,17,17,17,17,17,17,17,17,17,17,17,17,17,17,17,17,16,17,16,17,17,17,17,17,17,17,17,17,17,17,16,17,17,17,17,17,16,17,17,17,17,17,17,17,17,17,17,17,17]","119","735","461.5","true","15","15","#111","1","true","2","transparent","1470","923","205","121","","","","","",""
"1726","
        <div class=""response-container"">
          <div class=""response-instruction"">
            <p>rotate the bar by using the left and right arrow keys.</p>
            <p>when you are determined, press the Enter key.</p>
          </div>
          <div class=""response-circle"">
            <div class=""response-fixation""></div>
            <div id=""bar"" class=""rotating-bar""></div>
          </div>
        </div>
      ","Enter","html-keyboard-response","190","2.1.0","505317","white","","","","","","","","","","","","","","","","","","","","","","","","","","","","","","","","","","","","","","","","","","205","","221","229","24","4","116",""
"null","
          <p style=""color: #00FF00;"">Your reward: 4 points</p>
        ","null","html-keyboard-response","191","2.1.0","507319","","","","","","","","","","","","","","","","","","","","","","","","","","","","","","","","","","","","","","","","","","","","","","","","","",""
"null","<div class=""fixation"" style=""font-size: 60px;"">+</div>","null","html-keyboard-response","192","2.1.0","508322","","","","","","","","","","","","","","","","","","","","","","","","","","","","","","","","","","","","","","","","","","","","","","","","","",""
"-1","","","rdk","193","2.0.0","510325","black","0","B_H_vs_W_L_rep6","false","ALL_KEYS","[""a""]","2000","[]","false","2","[100,100]","1","[288,5]","1","0","2","1","-1","1","300","300","[""black"",""white""]","circle","#AAA","3","2","2","16.916666666666668","[16,17,17,17,17,17,17,17,17,17,17,17,17,17,17,17,17,17,17,17,17,17,17,17,17,17,17,16,17,17,17,17,17,17,17,17,17,17,17,17,16,17,17,17,17,17,17,17,17,17,17,16,18,17,17,17,17,16,17,17,17,17,17,17,17,17,17,17,17,17,17,17,17,17,17,17,17,17,17,17,16,17,17,17,17,17,17,17,17,16,16,18,17,17,17,17,17,17,17,17,17,17,17,17,17,17,16,16,17,17,17,17,17,17,17,17,16,17,16,17]","120","735","461.5","true","15","15","#111","1","true","2","transparent","1470","923","288","5","","","","","",""
"2902","
        <div class=""response-container"">
          <div class=""response-instruction"">
            <p>rotate the bar by using the left and right arrow keys.</p>
            <p>when you are determined, press the Enter key.</p>
          </div>
          <div class=""response-circle"">
            <div class=""response-fixation""></div>
            <div id=""bar"" class=""rotating-bar""></div>
          </div>
        </div>
      ","Enter","html-keyboard-response","194","2.1.0","513228","black","","","","","","","","","","","","","","","","","","","","","","","","","","","","","","","","","","","","","","","","","","288","","424","26","21","0","116",""
"null","
          <p style=""color: #FF3333;"">Your reward: 0 points</p>
        ","null","html-keyboard-response","195","2.1.0","515230","","","","","","","","","","","","","","","","","","","","","","","","","","","","","","","","","","","","","","","","","","","","","","","","","",""
"null","<div class=""fixation"" style=""font-size: 60px;"">+</div>","null","html-keyboard-response","196","2.1.0","516233","","","","","","","","","","","","","","","","","","","","","","","","","","","","","","","","","","","","","","","","","","","","","","","","","",""
"-1","","","rdk","197","2.0.0","518237","white","1","W_H_vs_B_L_rep6","false","ALL_KEYS","[""a""]","2000","[]","false","2","[100,100]","1","[135,202]","1","0","2","1","-1","1","300","300","[""black"",""white""]","circle","#AAA","3","2","2","16.96638655462185","[22,17,17,16,17,17,17,17,17,17,17,17,17,17,17,17,17,17,17,17,17,16,17,17,17,17,17,17,17,17,17,17,17,17,17,17,17,17,17,17,17,17,17,17,17,17,17,17,17,17,17,17,17,17,17,17,17,17,17,17,17,17,16,16,17,17,16,17,16,17,17,17,17,17,17,17,17,16,17,17,17,16,18,17,17,17,17,17,17,17,17,17,17,17,17,17,17,16,17,17,17,17,17,17,17,17,17,17,17,17,17,17,17,17,16,16,18,17,17]","119","735","461.5","true","15","15","#111","1","true","2","transparent","1470","923","202","135","","","","","",""
"2056","
        <div class=""response-container"">
          <div class=""response-instruction"">
            <p>rotate the bar by using the left and right arrow keys.</p>
            <p>when you are determined, press the Enter key.</p>
          </div>
          <div class=""response-circle"">
            <div class=""response-fixation""></div>
            <div id=""bar"" class=""rotating-bar""></div>
          </div>
        </div>
      ","Enter","html-keyboard-response","198","2.1.0","520294","white","","","","","","","","","","","","","","","","","","","","","","","","","","","","","","","","","","","","","","","","","","202","","245","205","3","9","116",""
"null","
          <p style=""color: #00FF00;"">Your reward: 9 points</p>
        ","null","html-keyboard-response","199","2.1.0","522297","","","","","","","","","","","","","","","","","","","","","","","","","","","","","","","","","","","","","","","","","","","","","","","","","",""
